"Condition","Talker","Target","Trial","current_stimulus","response_response","response_time_response","subject_nr","time_Audio1","time_Audio10","time_Audio11","time_Audio12","time_Audio13","time_Audio14","time_Audio15","time_Audio16","time_Audio2","time_Audio3","time_Audio4","time_Audio5","time_Audio6","time_Audio7","time_Audio8","time_Audio9","time_response","title"
"Blocked","m160","tile","17","m160gnash.wav","NA","NA","182","282912.85335","NA","NA","NA","NA","NA","NA","NA","NA","NA","NA","NA","NA","NA","NA","NA","NA","Mapping"
"Blocked","m160","tile","17","m160jolt.wav","None","719.160050619","182","282912.85335","NA","NA","NA","NA","NA","NA","NA","283679.776332","NA","NA","NA","NA","NA","NA","NA","282926.736155","Mapping"
"Blocked","m160","tile","17","m160done.wav","None","723.082531244","182","282912.85335","NA","NA","NA","NA","NA","NA","NA","283679.776332","284446.142492","NA","NA","NA","NA","NA","NA","283689.689043","Mapping"
"Blocked","m160","tile","17","m160done.wav","None","723.160133697","182","282912.85335","NA","NA","NA","NA","NA","NA","NA","283679.776332","284446.142492","285212.313256","NA","NA","NA","NA","NA","284456.235142","Mapping"
"Blocked","m160","tile","17","m160cling.wav","None","721.427217592","182","282912.85335","NA","NA","NA","NA","NA","NA","NA","283679.776332","284446.142492","285212.313256","285979.291888","NA","NA","NA","NA","285221.387798","Mapping"
"Blocked","m160","tile","17","m160tile.wav","None","721.392899752","182","282912.85335","NA","NA","NA","NA","NA","NA","NA","283679.776332","284446.142492","285212.313256","285979.291888","286746.613394","NA","NA","NA","285988.24709","Mapping"
"Blocked","m160","tile","17","m160jolt.wav","space","495.893097948","182","282912.85335","NA","NA","NA","NA","NA","NA","NA","283679.776332","284446.142492","285212.313256","285979.291888","286746.613394","287496.130852","NA","NA","286756.394397","Mapping"
"Blocked","m160","tile","17","m160tile.wav","None","734.211220406","182","282912.85335","NA","NA","NA","NA","NA","NA","NA","283679.776332","284446.142492","285212.313256","285979.291888","286746.613394","287496.130852","288262.055513","NA","287505.227346","Mapping"
"Blocked","m160","tile","17","m160park.wav","space","477.333121467","182","282912.85335","NA","NA","NA","NA","NA","NA","NA","283679.776332","284446.142492","285212.313256","285979.291888","286746.613394","287496.130852","288262.055513","289029.183786","288270.907761","Mapping"
"Blocked","m160","tile","17","m160tile.wav","None","729.853114579","182","282912.85335","289795.749363","NA","NA","NA","NA","NA","NA","283679.776332","284446.142492","285212.313256","285979.291888","286746.613394","287496.130852","288262.055513","289029.183786","289039.373207","Mapping"
"Blocked","m160","tile","17","m160depth.wav","space","375.358524732","182","282912.85335","289795.749363","290562.129746","NA","NA","NA","NA","NA","283679.776332","284446.142492","285212.313256","285979.291888","286746.613394","287496.130852","288262.055513","289029.183786","289804.885122","Mapping"
"Blocked","m160","tile","17","m160tile.wav","None","721.303548664","182","282912.85335","289795.749363","290562.129746","291329.498555","NA","NA","NA","NA","283679.776332","284446.142492","285212.313256","285979.291888","286746.613394","287496.130852","288262.055513","289029.183786","290578.187893","Mapping"
"Blocked","m160","tile","17","m160lash.wav","space","361.03483988","182","282912.85335","289795.749363","290562.129746","291329.498555","292096.086702","NA","NA","NA","283679.776332","284446.142492","285212.313256","285979.291888","286746.613394","287496.130852","288262.055513","289029.183786","291339.158054","Mapping"
"Blocked","m160","tile","17","m160gnash.wav","None","723.300498445","182","282912.85335","289795.749363","290562.129746","291329.498555","292096.086702","292862.628783","NA","NA","283679.776332","284446.142492","285212.313256","285979.291888","286746.613394","287496.130852","288262.055513","289029.183786","292106.108551","Mapping"
"Blocked","m160","tile","17","m160ball.wav","None","720.552566927","182","282912.85335","289795.749363","290562.129746","291329.498555","292096.086702","292862.628783","293629.314628","NA","283679.776332","284446.142492","285212.313256","285979.291888","286746.613394","287496.130852","288262.055513","289029.183786","292872.320125","Mapping"
"Blocked","m160","tile","17","m160reek.wav","None","720.242466312","182","282912.85335","289795.749363","290562.129746","291329.498555","292096.086702","292862.628783","293629.314628","294396.050869","283679.776332","284446.142492","285212.313256","285979.291888","286746.613394","287496.130852","288262.055513","289029.183786","293639.227339","Mapping"
"Blocked","m160","ball","2","m160gnash.wav","None","720.710863359","182","297545.907737","289795.749363","290562.129746","291329.498555","292096.086702","292862.628783","293629.314628","294396.050869","283679.776332","284446.142492","285212.313256","285979.291888","286746.613394","287496.130852","288262.055513","289029.183786","294405.518989","Mapping"
"Blocked","m160","ball","2","m160ball.wav","None","719.812715426","182","297545.907737","289795.749363","290562.129746","291329.498555","292096.086702","292862.628783","293629.314628","294396.050869","298295.548865","284446.142492","285212.313256","285979.291888","286746.613394","287496.130852","288262.055513","289029.183786","297555.115534","Mapping"
"Blocked","m160","ball","2","m160bluff.wav","space","435.229915194","182","297545.907737","289795.749363","290562.129746","291329.498555","292096.086702","292862.628783","293629.314628","294396.050869","298295.548865","299061.938832","285212.313256","285979.291888","286746.613394","287496.130852","288262.055513","289029.183786","298304.797162","Mapping"
"Blocked","m160","ball","2","m160gnash.wav","None","733.842685819","182","297545.907737","289795.749363","290562.129746","291329.498555","292096.086702","292862.628783","293629.314628","294396.050869","298295.548865","299061.938832","299829.386171","285979.291888","286746.613394","287496.130852","288262.055513","289029.183786","299070.796953","Mapping"
"Blocked","m160","ball","2","m160ball.wav","None","730.050058104","182","297545.907737","289795.749363","290562.129746","291329.498555","292096.086702","292862.628783","293629.314628","294396.050869","298295.548865","299061.938832","299829.386171","300595.517669","286746.613394","287496.130852","288262.055513","289029.183786","299838.520384","Mapping"
"Blocked","m160","ball","2","m160greet.wav","space","535.527556203","182","297545.907737","289795.749363","290562.129746","291329.498555","292096.086702","292862.628783","293629.314628","294396.050869","298295.548865","299061.938832","299829.386171","300595.517669","301362.116019","287496.130852","288262.055513","289029.183786","300604.474107","Mapping"
"Blocked","m160","ball","2","m160depth.wav","None","727.180312853","182","297545.907737","289795.749363","290562.129746","291329.498555","292096.086702","292862.628783","293629.314628","294396.050869","298295.548865","299061.938832","299829.386171","300595.517669","301362.116019","302128.667374","288262.055513","289029.183786","301371.119451","Mapping"
"Blocked","m160","ball","2","m160done.wav","None","723.98315277","182","297545.907737","289795.749363","290562.129746","291329.498555","292096.086702","292862.628783","293629.314628","294396.050869","298295.548865","299061.938832","299829.386171","300595.517669","301362.116019","302128.667374","302895.314882","289029.183786","302137.570634","Mapping"
"Blocked","m160","ball","2","m160ball.wav","None","720.888328739","182","297545.907737","289795.749363","290562.129746","291329.498555","292096.086702","292862.628783","293629.314628","294396.050869","298295.548865","299061.938832","299829.386171","300595.517669","301362.116019","302128.667374","302895.314882","303645.123272","302904.291108","Mapping"
"Blocked","m160","ball","2","m160cave.wav","space","374.088132288","182","297545.907737","304412.033268","290562.129746","291329.498555","292096.086702","292862.628783","293629.314628","294396.050869","298295.548865","299061.938832","299829.386171","300595.517669","301362.116019","302128.667374","302895.314882","303645.123272","303653.845666","Mapping"
"Blocked","m160","ball","2","m160priest.wav","None","733.98181377","182","297545.907737","304412.033268","305178.654188","291329.498555","292096.086702","292862.628783","293629.314628","294396.050869","298295.548865","299061.938832","299829.386171","300595.517669","301362.116019","302128.667374","302895.314882","303645.123272","304421.04474","Mapping"
"Blocked","m160","ball","2","m160knife.wav","None","735.116788652","182","297545.907737","304412.033268","305178.654188","305961.844008","292096.086702","292862.628783","293629.314628","294396.050869","298295.548865","299061.938832","299829.386171","300595.517669","301362.116019","302128.667374","302895.314882","303645.123272","305187.655766","Mapping"
"Blocked","m160","ball","2","m160knife.wav","None","723.092424683","182","297545.907737","304412.033268","305178.654188","305961.844008","306711.927253","292862.628783","293629.314628","294396.050869","298295.548865","299061.938832","299829.386171","300595.517669","301362.116019","302128.667374","302895.314882","303645.123272","305970.439641","Mapping"
"Blocked","m160","ball","2","m160ball.wav","None","735.948773567","182","297545.907737","304412.033268","305178.654188","305961.844008","306711.927253","307478.728729","293629.314628","294396.050869","298295.548865","299061.938832","299829.386171","300595.517669","301362.116019","302128.667374","302895.314882","303645.123272","306720.913681","Mapping"
"Blocked","m160","ball","2","m160greet.wav","space","332.127145957","182","297545.907737","304412.033268","305178.654188","305961.844008","306711.927253","307478.728729","308245.448893","294396.050869","298295.548865","299061.938832","299829.386171","300595.517669","301362.116019","302128.667374","302895.314882","303645.123272","307487.769263","Mapping"
"Blocked","m160","ball","2","m160cave.wav","None","728.904571384","182","297545.907737","304412.033268","305178.654188","305961.844008","306711.927253","307478.728729","308245.448893","309012.017872","298295.548865","299061.938832","299829.386171","300595.517669","301362.116019","302128.667374","302895.314882","303645.123272","308254.485408","Mapping"
"Blocked","m160","cave","9","m160cad.wav","None","725.166358519","182","312129.107328","304412.033268","305178.654188","305961.844008","306711.927253","307478.728729","308245.448893","309012.017872","298295.548865","299061.938832","299829.386171","300595.517669","301362.116019","302128.667374","302895.314882","303645.123272","309021.605332","Mapping"
"Blocked","m160","cave","9","m160done.wav","None","722.34515287","182","312129.107328","304412.033268","305178.654188","305961.844008","306711.927253","307478.728729","308245.448893","309012.017872","312895.098461","299061.938832","299829.386171","300595.517669","301362.116019","302128.667374","302895.314882","303645.123272","312138.646867","Mapping"
"Blocked","m160","cave","9","m160cave.wav","None","726.739431266","182","312129.107328","304412.033268","305178.654188","305961.844008","306711.927253","307478.728729","308245.448893","309012.017872","312895.098461","313645.365973","299829.386171","300595.517669","301362.116019","302128.667374","302895.314882","303645.123272","312898.461338","Mapping"
"Blocked","m160","cave","9","m160reek.wav","space","530.619122088","182","312129.107328","304412.033268","305178.654188","305961.844008","306711.927253","307478.728729","308245.448893","309012.017872","312895.098461","313645.365973","314411.869716","300595.517669","301362.116019","302128.667374","302895.314882","303645.123272","313649.133558","Mapping"
"Blocked","m160","cave","9","m160cave.wav","None","730.740133207","182","312129.107328","304412.033268","305178.654188","305961.844008","306711.927253","307478.728729","308245.448893","309012.017872","312895.098461","313645.365973","314411.869716","315178.672738","301362.116019","302128.667374","302895.314882","303645.123272","314420.917669","Mapping"
"Blocked","m160","cave","9","m160dime.wav","space","424.035371747","182","312129.107328","304412.033268","305178.654188","305961.844008","306711.927253","307478.728729","308245.448893","309012.017872","312895.098461","313645.365973","314411.869716","315178.672738","315945.269851","302128.667374","302895.314882","303645.123272","315187.716363","Mapping"
"Blocked","m160","cave","9","m160cad.wav","None","727.705597878","182","312129.107328","304412.033268","305178.654188","305961.844008","306711.927253","307478.728729","308245.448893","309012.017872","312895.098461","313645.365973","314411.869716","315178.672738","315945.269851","316712.175519","302895.314882","303645.123272","315954.559578","Mapping"
"Blocked","m160","cave","9","m160cad.wav","None","723.633786663","182","312129.107328","304412.033268","305178.654188","305961.844008","306711.927253","307478.728729","308245.448893","309012.017872","312895.098461","313645.365973","314411.869716","315178.672738","315945.269851","316712.175519","317478.912069","303645.123272","316722.1108","Mapping"
"Blocked","m160","cave","9","m160bluff.wav","None","720.538653899","182","312129.107328","304412.033268","305178.654188","305961.844008","306711.927253","307478.728729","308245.448893","309012.017872","312895.098461","313645.365973","314411.869716","315178.672738","315945.269851","316712.175519","317478.912069","318228.087582","317488.513752","Mapping"
"Blocked","m160","cave","9","m160cave.wav","None","735.599098727","182","312129.107328","318995.201323","305178.654188","305961.844008","306711.927253","307478.728729","308245.448893","309012.017872","312895.098461","313645.365973","314411.869716","315178.672738","315945.269851","316712.175519","317478.912069","318228.087582","318236.843057","Mapping"
"Blocked","m160","cave","9","m160done.wav","space","535.384717863","182","312129.107328","318995.201323","319761.794108","305961.844008","306711.927253","307478.728729","308245.448893","309012.017872","312895.098461","313645.365973","314411.869716","315178.672738","315945.269851","316712.175519","317478.912069","318228.087582","319004.295034","Mapping"
"Blocked","m160","cave","9","m160jolt.wav","None","728.011988569","182","312129.107328","318995.201323","319761.794108","320528.867656","306711.927253","307478.728729","308245.448893","309012.017872","312895.098461","313645.365973","314411.869716","315178.672738","315945.269851","316712.175519","317478.912069","318228.087582","319770.895857","Mapping"
"Blocked","m160","cave","9","m160lash.wav","None","723.729939666","182","312129.107328","318995.201323","319761.794108","320528.867656","321295.53186","307478.728729","308245.448893","309012.017872","312895.098461","313645.365973","314411.869716","315178.672738","315945.269851","316712.175519","317478.912069","318228.087582","320538.625163","Mapping"
"Blocked","m160","cave","9","m160cave.wav","None","720.708698966","182","312129.107328","318995.201323","319761.794108","320528.867656","321295.53186","322044.744782","308245.448893","309012.017872","312895.098461","313645.365973","314411.869716","315178.672738","315945.269851","316712.175519","317478.912069","318228.087582","321305.016366","Mapping"
"Blocked","m160","cave","9","m160romp.wav","space","606.045325287","182","312129.107328","318995.201323","319761.794108","320528.867656","321295.53186","322044.744782","322811.310669","309012.017872","312895.098461","313645.365973","314411.869716","315178.672738","315945.269851","316712.175519","317478.912069","318228.087582","322053.594247","Mapping"
"Blocked","m160","cave","9","m160knife.wav","None","735.103184823","182","312129.107328","318995.201323","319761.794108","320528.867656","321295.53186","322044.744782","322811.310669","323578.539423","312895.098461","313645.365973","314411.869716","315178.672738","315945.269851","316712.175519","317478.912069","318228.087582","322820.25505","Mapping"
"Blocked","m160","cave","7","m160jolt.wav","None","731.28056759","182","326712.059579","318995.201323","319761.794108","320528.867656","321295.53186","322044.744782","322811.310669","323578.539423","312895.098461","313645.365973","314411.869716","315178.672738","315945.269851","316712.175519","317478.912069","318228.087582","323587.56728","Mapping"
"Blocked","m160","cave","7","m160done.wav","None","720.26905464","182","326712.059579","318995.201323","319761.794108","320528.867656","321295.53186","322044.744782","322811.310669","323578.539423","327461.599607","313645.365973","314411.869716","315178.672738","315945.269851","316712.175519","317478.912069","318228.087582","326721.305404","Mapping"
"Blocked","m160","cave","7","m160park.wav","None","734.307682142","182","326712.059579","318995.201323","319761.794108","320528.867656","321295.53186","322044.744782","322811.310669","323578.539423","327461.599607","328228.416542","314411.869716","315178.672738","315945.269851","316712.175519","317478.912069","318228.087582","327470.659618","Mapping"
"Blocked","m160","cave","7","m160cave.wav","None","731.032301672","182","326712.059579","318995.201323","319761.794108","320528.867656","321295.53186","322044.744782","322811.310669","323578.539423","327461.599607","328228.416542","328995.056939","315178.672738","315945.269851","316712.175519","317478.912069","318228.087582","328237.412245","Mapping"
"Blocked","m160","cave","7","m160romp.wav","space","556.702519301","182","326712.059579","318995.201323","319761.794108","320528.867656","321295.53186","322044.744782","322811.310669","323578.539423","327461.599607","328228.416542","328995.056939","329762.132961","315945.269851","316712.175519","317478.912069","318228.087582","328998.789278","Mapping"
"Blocked","m160","cave","7","m160cave.wav","None","723.356149159","182","326712.059579","318995.201323","319761.794108","320528.867656","321295.53186","322044.744782","322811.310669","323578.539423","327461.599607","328228.416542","328995.056939","329762.132961","330528.779542","316712.175519","317478.912069","318228.087582","329771.584077","Mapping"
"Blocked","m160","cave","7","m160dime.wav","space","432.671816088","182","326712.059579","318995.201323","319761.794108","320528.867656","321295.53186","322044.744782","322811.310669","323578.539423","327461.599607","328228.416542","328995.056939","329762.132961","330528.779542","331278.352651","317478.912069","318228.087582","330538.814995","Mapping"
"Blocked","m160","cave","7","m160cave.wav","None","733.587308787","182","326712.059579","318995.201323","319761.794108","320528.867656","321295.53186","322044.744782","322811.310669","323578.539423","327461.599607","328228.416542","328995.056939","329762.132961","330528.779542","331278.352651","332044.994285","318228.087582","331287.423174","Mapping"
"Blocked","m160","cave","7","m160depth.wav","space","397.110096645","182","326712.059579","318995.201323","319761.794108","320528.867656","321295.53186","322044.744782","322811.310669","323578.539423","327461.599607","328228.416542","328995.056939","329762.132961","330528.779542","331278.352651","332044.994285","332811.542858","332054.318949","Mapping"
"Blocked","m160","cave","7","m160park.wav","None","726.713770069","182","326712.059579","333578.048456","319761.794108","320528.867656","321295.53186","322044.744782","322811.310669","323578.539423","327461.599607","328228.416542","328995.056939","329762.132961","330528.779542","331278.352651","332044.994285","332811.542858","332820.702423","Mapping"
"Blocked","m160","cave","7","m160greet.wav","None","723.828256596","182","326712.059579","333578.048456","334345.333788","320528.867656","321295.53186","322044.744782","322811.310669","323578.539423","327461.599607","328228.416542","328995.056939","329762.132961","330528.779542","331278.352651","332044.994285","332811.542858","333587.019735","Mapping"
"Blocked","m160","cave","7","m160park.wav","None","719.002063386","182","326712.059579","333578.048456","334345.333788","335094.913081","321295.53186","322044.744782","322811.310669","323578.539423","327461.599607","328228.416542","328995.056939","329762.132961","330528.779542","331278.352651","332044.994285","332811.542858","334355.352855","Mapping"
"Blocked","m160","cave","7","m160cave.wav","None","724.992603064","182","326712.059579","333578.048456","334345.333788","335094.913081","335861.531527","322044.744782","322811.310669","323578.539423","327461.599607","328228.416542","328995.056939","329762.132961","330528.779542","331278.352651","332044.994285","332811.542858","335112.538736","Mapping"
"Blocked","m160","cave","7","m160cling.wav","space","548.347113654","182","326712.059579","333578.048456","334345.333788","335094.913081","335861.531527","336628.212735","322811.310669","323578.539423","327461.599607","328228.416542","328995.056939","329762.132961","330528.779542","331278.352651","332044.994285","332811.542858","335871.058699","Mapping"
"Blocked","m160","cave","7","m160ball.wav","None","726.595356595","182","326712.059579","333578.048456","334345.333788","335094.913081","335861.531527","336628.212735","337395.225686","323578.539423","327461.599607","328228.416542","328995.056939","329762.132961","330528.779542","331278.352651","332044.994285","332811.542858","336637.463197","Mapping"
"Blocked","m160","cave","7","m160jaw.wav","None","721.993622836","182","326712.059579","333578.048456","334345.333788","335094.913081","335861.531527","336628.212735","337395.225686","338161.297823","327461.599607","328228.416542","328995.056939","329762.132961","330528.779542","331278.352651","332044.994285","332811.542858","337405.371514","Mapping"
"Blocked","m160","done","22","m160depth.wav","None","724.460206926","182","341278.59597","333578.048456","334345.333788","335094.913081","335861.531527","336628.212735","337395.225686","338161.297823","327461.599607","328228.416542","328995.056939","329762.132961","330528.779542","331278.352651","332044.994285","332811.542858","338170.189953","Mapping"
"Blocked","m160","done","22","m160done.wav","None","718.830163125","182","341278.59597","333578.048456","334345.333788","335094.913081","335861.531527","336628.212735","337395.225686","338161.297823","342028.156094","328228.416542","328995.056939","329762.132961","330528.779542","331278.352651","332044.994285","332811.542858","341289.446095","Mapping"
"Blocked","m160","done","22","m160gnash.wav","space","453.601604793","182","341278.59597","333578.048456","334345.333788","335094.913081","335861.531527","336628.212735","337395.225686","338161.297823","342028.156094","342794.860181","328995.056939","329762.132961","330528.779542","331278.352651","332044.994285","332811.542858","342037.692542","Mapping"
"Blocked","m160","done","22","m160tile.wav","None","730.648308527","182","341278.59597","333578.048456","334345.333788","335094.913081","335861.531527","336628.212735","337395.225686","338161.297823","342028.156094","342794.860181","343561.335171","329762.132961","330528.779542","331278.352651","332044.994285","332811.542858","342804.149599","Mapping"
"Blocked","m160","done","22","m160done.wav","None","727.638507262","182","341278.59597","333578.048456","334345.333788","335094.913081","335861.531527","336628.212735","337395.225686","338161.297823","342028.156094","342794.860181","343561.335171","344328.47581","330528.779542","331278.352651","332044.994285","332811.542858","343570.684568","Mapping"
"Blocked","m160","done","22","m160reek.wav","space","401.035977527","182","341278.59597","333578.048456","334345.333788","335094.913081","335861.531527","336628.212735","337395.225686","338161.297823","342028.156094","342794.860181","343561.335171","344328.47581","345095.033967","331278.352651","332044.994285","332811.542858","344338.215385","Mapping"
"Blocked","m160","done","22","m160ball.wav","None","720.326561015","182","341278.59597","333578.048456","334345.333788","335094.913081","335861.531527","336628.212735","337395.225686","338161.297823","342028.156094","342794.860181","343561.335171","344328.47581","345095.033967","345844.26173","332044.994285","332811.542858","345104.767049","Mapping"
"Blocked","m160","done","22","m160done.wav","None","735.459970776","182","341278.59597","333578.048456","334345.333788","335094.913081","335861.531527","336628.212735","337395.225686","338161.297823","342028.156094","342794.860181","343561.335171","344328.47581","345095.033967","345844.26173","346611.288594","332811.542858","345853.159735","Mapping"
"Blocked","m160","done","22","m160romp.wav","None","730.599150062","182","341278.59597","333578.048456","334345.333788","335094.913081","335861.531527","336628.212735","337395.225686","338161.297823","342028.156094","342794.860181","343561.335171","344328.47581","345095.033967","345844.26173","346611.288594","347377.665576","346621.592718","Mapping"
"Blocked","m160","done","22","m160knife.wav","space","0.174682587385","182","341278.59597","348144.704806","334345.333788","335094.913081","335861.531527","336628.212735","337395.225686","338161.297823","342028.156094","342794.860181","343561.335171","344328.47581","345095.033967","345844.26173","346611.288594","347377.665576","347386.990549","Mapping"
"Blocked","m160","done","22","m160done.wav","None","724.71001884","182","341278.59597","348144.704806","348911.569045","335094.913081","335861.531527","336628.212735","337395.225686","338161.297823","342028.156094","342794.860181","343561.335171","344328.47581","345095.033967","345844.26173","346611.288594","347377.665576","348154.342044","Mapping"
"Blocked","m160","done","22","m160dime.wav","space","433.89706919","182","341278.59597","348144.704806","348911.569045","349661.13628","335861.531527","336628.212735","337395.225686","338161.297823","342028.156094","342794.860181","343561.335171","344328.47581","345095.033967","345844.26173","346611.288594","347377.665576","348921.249876","Mapping"
"Blocked","m160","done","22","m160cad.wav","None","735.286524519","182","341278.59597","348144.704806","348911.569045","349661.13628","350428.010412","336628.212735","337395.225686","338161.297823","342028.156094","342794.860181","343561.335171","344328.47581","345095.033967","345844.26173","346611.288594","347377.665576","349670.364172","Mapping"
"Blocked","m160","done","22","m160lash.wav","None","731.326943729","182","341278.59597","348144.704806","348911.569045","349661.13628","350428.010412","351194.714808","337395.225686","338161.297823","342028.156094","342794.860181","343561.335171","344328.47581","345095.033967","345844.26173","346611.288594","347377.665576","350437.77101","Mapping"
"Blocked","m160","done","22","m160ball.wav","None","728.609929327","182","341278.59597","348144.704806","348911.569045","349661.13628","350428.010412","351194.714808","351960.952353","338161.297823","342028.156094","342794.860181","343561.335171","344328.47581","345095.033967","345844.26173","346611.288594","347377.665576","351204.079974","Mapping"
"Blocked","m160","done","22","m160jolt.wav","None","726.394393947","182","341278.59597","348144.704806","348911.569045","349661.13628","350428.010412","351194.714808","351960.952353","352727.764959","342028.156094","342794.860181","343561.335171","344328.47581","345095.033967","345844.26173","346611.288594","347377.665576","351970.047919","Mapping"
"Blocked","m160","tile","13","m160park.wav","None","722.898263484","182","355845.151531","348144.704806","348911.569045","349661.13628","350428.010412","351194.714808","351960.952353","352727.764959","342028.156094","342794.860181","343561.335171","344328.47581","345095.033967","345844.26173","346611.288594","347377.665576","352737.160733","Mapping"
"Blocked","m160","tile","13","m160gnash.wav","None","718.490072526","182","355845.151531","348144.704806","348911.569045","349661.13628","350428.010412","351194.714808","351960.952353","352727.764959","356594.148341","342794.860181","343561.335171","344328.47581","345095.033967","345844.26173","346611.288594","347377.665576","355855.469877","Mapping"
"Blocked","m160","tile","13","m160tile.wav","None","734.562749974","182","355845.151531","348144.704806","348911.569045","349661.13628","350428.010412","351194.714808","351960.952353","352727.764959","356594.148341","357361.138722","343561.335171","344328.47581","345095.033967","345844.26173","346611.288594","347377.665576","356603.093031","Mapping"
"Blocked","m160","tile","13","m160greet.wav","space","352.462084964","182","355845.151531","348144.704806","348911.569045","349661.13628","350428.010412","351194.714808","351960.952353","352727.764959","356594.148341","357361.138722","358127.857958","344328.47581","345095.033967","345844.26173","346611.288594","347377.665576","357370.523675","Mapping"
"Blocked","m160","tile","13","m160greet.wav","None","726.941012777","182","355845.151531","348144.704806","348911.569045","349661.13628","350428.010412","351194.714808","351960.952353","352727.764959","356594.148341","357361.138722","358127.857958","358894.846485","345095.033967","345844.26173","346611.288594","347377.665576","358137.34432","Mapping"
"Blocked","m160","tile","13","m160cad.wav","None","729.064723011","182","355845.151531","348144.704806","348911.569045","349661.13628","350428.010412","351194.714808","351960.952353","352727.764959","356594.148341","357361.138722","358127.857958","358894.846485","359661.417627","345844.26173","346611.288594","347377.665576","358898.982295","Mapping"
"Blocked","m160","tile","13","m160cad.wav","None","720.723539591","182","355845.151531","348144.704806","348911.569045","349661.13628","350428.010412","351194.714808","351960.952353","352727.764959","356594.148341","357361.138722","358127.857958","358894.846485","359661.417627","360410.969094","346611.288594","347377.665576","359671.074343","Mapping"
"Blocked","m160","tile","13","m160greet.wav","None","735.066702589","182","355845.151531","348144.704806","348911.569045","349661.13628","350428.010412","351194.714808","351960.952353","352727.764959","356594.148341","357361.138722","358127.857958","358894.846485","359661.417627","360410.969094","361177.416258","347377.665576","360420.414954","Mapping"
"Blocked","m160","tile","13","m160tile.wav","None","732.515714597","182","355845.151531","348144.704806","348911.569045","349661.13628","350428.010412","351194.714808","351960.952353","352727.764959","356594.148341","357361.138722","358127.857958","358894.846485","359661.417627","360410.969094","361177.416258","361944.085718","361186.684961","Mapping"
"Blocked","m160","tile","13","m160done.wav","space","393.83100532","182","355845.151531","362711.00468","348911.569045","349661.13628","350428.010412","351194.714808","351960.952353","352727.764959","356594.148341","357361.138722","358127.857958","358894.846485","359661.417627","360410.969094","361177.416258","361944.085718","361953.124397","Mapping"
"Blocked","m160","tile","13","m160ball.wav","None","725.76182615","182","355845.151531","362711.00468","363477.568093","349661.13628","350428.010412","351194.714808","351960.952353","352727.764959","356594.148341","357361.138722","358127.857958","358894.846485","359661.417627","360410.969094","361177.416258","361944.085718","362720.361498","Mapping"
"Blocked","m160","tile","13","m160tile.wav","None","723.180538975","182","355845.151531","362711.00468","363477.568093","364244.212819","350428.010412","351194.714808","351960.952353","352727.764959","356594.148341","357361.138722","358127.857958","358894.846485","359661.417627","360410.969094","361177.416258","361944.085718","363486.737243","Mapping"
"Blocked","m160","tile","13","m160greet.wav","space","437.609621324","182","355845.151531","362711.00468","363477.568093","364244.212819","364994.016571","351194.714808","351960.952353","352727.764959","356594.148341","357361.138722","358127.857958","358894.846485","359661.417627","360410.969094","361177.416258","361944.085718","364253.25799","Mapping"
"Blocked","m160","tile","13","m160knife.wav","None","733.932346106","182","355845.151531","362711.00468","363477.568093","364244.212819","364994.016571","365760.987165","351960.952353","352727.764959","356594.148341","357361.138722","358127.857958","358894.846485","359661.417627","360410.969094","361177.416258","361944.085718","365002.896335","Mapping"
"Blocked","m160","tile","13","m160tile.wav","None","729.596810415","182","355845.151531","362711.00468","363477.568093","364244.212819","364994.016571","365760.987165","366527.758962","352727.764959","356594.148341","357361.138722","358127.857958","358894.846485","359661.417627","360410.969094","361177.416258","361944.085718","365771.006851","Mapping"
"Blocked","m160","tile","13","m160greet.wav","None","727.569561452","182","355845.151531","362711.00468","363477.568093","364244.212819","364994.016571","365760.987165","366527.758962","367293.971772","356594.148341","357361.138722","358127.857958","358894.846485","359661.417627","360410.969094","361177.416258","361944.085718","366536.837833","Mapping"
"Blocked","m160","ball","4","m160greet.wav","space","0.0234972685575","182","370411.182733","362711.00468","363477.568093","364244.212819","364994.016571","365760.987165","366527.758962","367293.971772","356594.148341","357361.138722","358127.857958","358894.846485","359661.417627","360410.969094","361177.416258","361944.085718","367303.215432","Mapping"
"Blocked","m160","ball","4","m160tile.wav","None","719.907321967","182","370411.182733","362711.00468","363477.568093","364244.212819","364994.016571","365760.987165","366527.758962","367293.971772","371160.84643","357361.138722","358127.857958","358894.846485","359661.417627","360410.969094","361177.416258","361944.085718","370420.950442","Mapping"
"Blocked","m160","ball","4","m160jolt.wav","None","734.100845642","182","370411.182733","362711.00468","363477.568093","364244.212819","364994.016571","365760.987165","366527.758962","367293.971772","371160.84643","371927.72149","358127.857958","358894.846485","359661.417627","360410.969094","361177.416258","361944.085718","371170.318878","Mapping"
"Blocked","m160","ball","4","m160ball.wav","None","730.661602691","182","370411.182733","362711.00468","363477.568093","364244.212819","364994.016571","365760.987165","366527.758962","367293.971772","371160.84643","371927.72149","372693.861336","358894.846485","359661.417627","360410.969094","361177.416258","361944.085718","371937.363056","Mapping"
"Blocked","m160","ball","4","m160dime.wav","space","331.975650508","182","370411.182733","362711.00468","363477.568093","364244.212819","364994.016571","365760.987165","366527.758962","367293.971772","371160.84643","371927.72149","372693.861336","373460.789573","359661.417627","360410.969094","361177.416258","361944.085718","372702.767997","Mapping"
"Blocked","m160","ball","4","m160reek.wav","None","724.828431848","182","370411.182733","362711.00468","363477.568093","364244.212819","364994.016571","365760.987165","366527.758962","367293.971772","371160.84643","371927.72149","372693.861336","373460.789573","374227.894966","360410.969094","361177.416258","361944.085718","373470.653435","Mapping"
"Blocked","m160","ball","4","m160ball.wav","None","721.447004471","182","370411.182733","362711.00468","363477.568093","364244.212819","364994.016571","365760.987165","366527.758962","367293.971772","371160.84643","371927.72149","372693.861336","373460.789573","374227.894966","374978.095388","361177.416258","361944.085718","374237.627739","Mapping"
"Blocked","m160","ball","4","m160romp.wav","space","462.978519034","182","370411.182733","362711.00468","363477.568093","364244.212819","364994.016571","365760.987165","366527.758962","367293.971772","371160.84643","371927.72149","372693.861336","373460.789573","374227.894966","374978.095388","375744.212355","361944.085718","374987.722114","Mapping"
"Blocked","m160","ball","4","m160ball.wav","None","732.546322513","182","370411.182733","362711.00468","363477.568093","364244.212819","364994.016571","365760.987165","366527.758962","367293.971772","371160.84643","371927.72149","372693.861336","373460.789573","374227.894966","374978.095388","375744.212355","376510.557492","375753.565772","Mapping"
"Blocked","m160","ball","4","m160jolt.wav","space","515.093680937","182","370411.182733","377277.440281","363477.568093","364244.212819","364994.016571","365760.987165","366527.758962","367293.971772","371160.84643","371927.72149","372693.861336","373460.789573","374227.894966","374978.095388","375744.212355","376510.557492","376519.532481","Mapping"
"Blocked","m160","ball","4","m160depth.wav","None","726.539705414","182","370411.182733","377277.440281","378044.513212","364244.212819","364994.016571","365760.987165","366527.758962","367293.971772","371160.84643","371927.72149","372693.861336","373460.789573","374227.894966","374978.095388","375744.212355","376510.557492","377286.625817","Mapping"
"Blocked","m160","ball","4","m160cad.wav","None","722.2613669","182","370411.182733","377277.440281","378044.513212","378810.540518","364994.016571","365760.987165","366527.758962","367293.971772","371160.84643","371927.72149","372693.861336","373460.789573","374227.894966","374978.095388","375744.212355","376510.557492","378054.58762","Mapping"
"Blocked","m160","ball","4","m160cling.wav","None","720.92388384","182","370411.182733","377277.440281","378044.513212","378810.540518","379560.528847","365760.987165","366527.758962","367293.971772","371160.84643","371927.72149","372693.861336","373460.789573","374227.894966","374978.095388","375744.212355","376510.557492","378819.732547","Mapping"
"Blocked","m160","ball","4","m160ball.wav","None","733.67325915","182","370411.182733","377277.440281","378044.513212","378810.540518","379560.528847","380327.05114","366527.758962","367293.971772","371160.84643","371927.72149","372693.861336","373460.789573","374227.894966","374978.095388","375744.212355","376510.557492","379570.588725","Mapping"
"Blocked","m160","ball","4","m160cling.wav","space","378.406663425","182","370411.182733","377277.440281","378044.513212","378810.540518","379560.528847","380327.05114","381093.738222","367293.971772","371160.84643","371927.72149","372693.861336","373460.789573","374227.894966","374978.095388","375744.212355","376510.557492","380336.178242","Mapping"
"Blocked","m160","ball","4","m160gnash.wav","None","728.476675693","182","370411.182733","377277.440281","378044.513212","378810.540518","379560.528847","380327.05114","381093.738222","381860.369654","371160.84643","371927.72149","372693.861336","373460.789573","374227.894966","374978.095388","375744.212355","376510.557492","381102.667454","Mapping"
"Blocked","m160","ball","1","m160gnash.wav","None","725.613423157","182","384977.72438","377277.440281","378044.513212","378810.540518","379560.528847","380327.05114","381093.738222","381860.369654","371160.84643","371927.72149","372693.861336","373460.789573","374227.894966","374978.095388","375744.212355","376510.557492","381869.378651","Mapping"
"Blocked","m160","ball","1","m160dime.wav","None","719.100379851","182","384977.72438","377277.440281","378044.513212","378810.540518","379560.528847","380327.05114","381093.738222","381860.369654","385726.915351","371927.72149","372693.861336","373460.789573","374227.894966","374978.095388","375744.212355","376510.557492","384987.467046","Mapping"
"Blocked","m160","ball","1","m160ball.wav","None","734.588411637","182","384977.72438","377277.440281","378044.513212","378810.540518","379560.528847","380327.05114","381093.738222","381860.369654","385726.915351","386494.019508","372693.861336","373460.789573","374227.894966","374978.095388","375744.212355","376510.557492","385735.890958","Mapping"
"Blocked","m160","ball","1","m160bluff.wav","space","387.07804447","182","384977.72438","377277.440281","378044.513212","378810.540518","379560.528847","380327.05114","381093.738222","381860.369654","385726.915351","386494.019508","387260.575192","373460.789573","374227.894966","374978.095388","375744.212355","376510.557492","386503.366123","Mapping"
"Blocked","m160","ball","1","m160ball.wav","None","726.32142948","182","384977.72438","377277.440281","378044.513212","378810.540518","379560.528847","380327.05114","381093.738222","381860.369654","385726.915351","386494.019508","387260.575192","388027.617824","374227.894966","374978.095388","375744.212355","376510.557492","387270.984126","Mapping"
"Blocked","m160","ball","1","m160priest.wav","space","717.066329904","182","384977.72438","377277.440281","378044.513212","378810.540518","379560.528847","380327.05114","381093.738222","381860.369654","385726.915351","386494.019508","387260.575192","388027.617824","388793.787041","374978.095388","375744.212355","376510.557492","388037.407484","Mapping"
"Blocked","m160","ball","1","m160tile.wav","None","721.2175983","182","384977.72438","377277.440281","378044.513212","378810.540518","379560.528847","380327.05114","381093.738222","381860.369654","385726.915351","386494.019508","387260.575192","388027.617824","388793.787041","389543.79794","375744.212355","376510.557492","388802.96392","Mapping"
"Blocked","m160","ball","1","m160park.wav","None","734.55100134","182","384977.72438","377277.440281","378044.513212","378810.540518","379560.528847","380327.05114","381093.738222","381860.369654","385726.915351","386494.019508","387260.575192","388027.617824","388793.787041","389543.79794","390310.512229","376510.557492","389553.394057","Mapping"
"Blocked","m160","ball","1","m160jolt.wav","None","731.756385416","182","384977.72438","377277.440281","378044.513212","378810.540518","379560.528847","380327.05114","381093.738222","381860.369654","385726.915351","386494.019508","387260.575192","388027.617824","388793.787041","389543.79794","390310.512229","391077.239195","390319.908312","Mapping"
"Blocked","m160","ball","1","m160jaw.wav","None","728.852012195","182","384977.72438","391843.511985","378044.513212","378810.540518","379560.528847","380327.05114","381093.738222","381860.369654","385726.915351","386494.019508","387260.575192","388027.617824","388793.787041","389543.79794","390310.512229","391077.239195","391086.61549","Mapping"
"Blocked","m160","ball","1","m160ball.wav","None","726.629984099","182","384977.72438","391843.511985","392610.850186","378810.540518","379560.528847","380327.05114","381093.738222","381860.369654","385726.915351","386494.019508","387260.575192","388027.617824","388793.787041","389543.79794","390310.512229","391077.239195","391852.73153","Mapping"
"Blocked","m160","ball","1","m160lash.wav","space","405.907001346","182","384977.72438","391843.511985","392610.850186","393377.578698","379560.528847","380327.05114","381093.738222","381860.369654","385726.915351","386494.019508","387260.575192","388027.617824","388793.787041","389543.79794","390310.512229","391077.239195","392620.471038","Mapping"
"Blocked","m160","ball","1","m160cad.wav","None","718.226038385","182","384977.72438","391843.511985","392610.850186","393377.578698","394127.25538","380327.05114","381093.738222","381860.369654","385726.915351","386494.019508","387260.575192","388027.617824","388793.787041","389543.79794","390310.512229","391077.239195","393388.050703","Mapping"
"Blocked","m160","ball","1","m160depth.wav","None","733.436432201","182","384977.72438","391843.511985","392610.850186","393377.578698","394127.25538","394893.86486","381093.738222","381860.369654","385726.915351","386494.019508","387260.575192","388027.617824","388793.787041","389543.79794","390310.512229","391077.239195","394136.613435","Mapping"
"Blocked","m160","ball","1","m160ball.wav","None","730.669950601","182","384977.72438","391843.511985","392610.850186","393377.578698","394127.25538","394893.86486","395660.450533","381860.369654","385726.915351","386494.019508","387260.575192","388027.617824","388793.787041","389543.79794","390310.512229","391077.239195","394903.251049","Mapping"
"Blocked","m160","ball","1","m160cad.wav","space","369.878429919","182","384977.72438","391843.511985","392610.850186","393377.578698","394127.25538","394893.86486","395660.450533","396427.587772","385726.915351","386494.019508","387260.575192","388027.617824","388793.787041","389543.79794","390310.512229","391077.239195","395664.456182","Mapping"
"Blocked","m160","cave","12","m160cad.wav","None","723.548764363","182","399544.099383","391843.511985","392610.850186","393377.578698","394127.25538","394893.86486","395660.450533","396427.587772","385726.915351","386494.019508","387260.575192","388027.617824","388793.787041","389543.79794","390310.512229","391077.239195","396437.332602","Mapping"
"Blocked","m160","cave","12","m160cling.wav","None","717.686221935","182","399544.099383","391843.511985","392610.850186","393377.578698","394127.25538","394893.86486","395660.450533","396427.587772","400293.36301","386494.019508","387260.575192","388027.617824","388793.787041","389543.79794","390310.512229","391077.239195","399555.462735","Mapping"
"Blocked","m160","cave","12","m160cave.wav","None","734.753509983","182","399544.099383","391843.511985","392610.850186","393377.578698","394127.25538","394893.86486","395660.450533","396427.587772","400293.36301","401060.405333","387260.575192","388027.617824","388793.787041","389543.79794","390310.512229","391077.239195","400302.327487","Mapping"
"Blocked","m160","cave","12","m160greet.wav","space","556.279879995","182","399544.099383","391843.511985","392610.850186","393377.578698","394127.25538","394893.86486","395660.450533","396427.587772","400293.36301","401060.405333","401827.099835","388027.617824","388793.787041","389543.79794","390310.512229","391077.239195","401069.952291","Mapping"
"Blocked","m160","cave","12","m160cave.wav","None","727.155887987","182","399544.099383","391843.511985","392610.850186","393377.578698","394127.25538","394893.86486","395660.450533","396427.587772","400293.36301","401060.405333","401827.099835","402593.397359","388793.787041","389543.79794","390310.512229","391077.239195","401836.801072","Mapping"
"Blocked","m160","cave","12","m160reek.wav","space","479.672016576","182","399544.099383","391843.511985","392610.850186","393377.578698","394127.25538","394893.86486","395660.450533","396427.587772","400293.36301","401060.405333","401827.099835","402593.397359","403360.629205","389543.79794","390310.512229","391077.239195","402602.500964","Mapping"
"Blocked","m160","cave","12","m160cave.wav","None","720.512992702","182","399544.099383","391843.511985","392610.850186","393377.578698","394127.25538","394893.86486","395660.450533","396427.587772","400293.36301","401060.405333","401827.099835","402593.397359","403360.629205","404109.784002","390310.512229","391077.239195","403370.329823","Mapping"
"Blocked","m160","cave","12","m160dime.wav","space","387.22737506","182","399544.099383","391843.511985","392610.850186","393377.578698","394127.25538","394893.86486","395660.450533","396427.587772","400293.36301","401060.405333","401827.099835","402593.397359","403360.629205","404109.784002","404877.029761","391077.239195","404118.909868","Mapping"
"Blocked","m160","cave","12","m160jaw.wav","None","731.585412286","182","399544.099383","391843.511985","392610.850186","393377.578698","394127.25538","394893.86486","395660.450533","396427.587772","400293.36301","401060.405333","401827.099835","402593.397359","403360.629205","404109.784002","404877.029761","405643.64697","404886.155935","Mapping"
"Blocked","m160","cave","12","m160cling.wav","None","728.554896545","182","399544.099383","406410.146384","392610.850186","393377.578698","394127.25538","394893.86486","395660.450533","396427.587772","400293.36301","401060.405333","401827.099835","402593.397359","403360.629205","404109.784002","404877.029761","405643.64697","405653.061912","Mapping"
"Blocked","m160","cave","12","m160bluff.wav","None","726.024623029","182","399544.099383","406410.146384","407176.737932","393377.578698","394127.25538","394893.86486","395660.450533","396427.587772","400293.36301","401060.405333","401827.099835","402593.397359","403360.629205","404109.784002","404877.029761","405643.64697","406419.540921","Mapping"
"Blocked","m160","cave","12","m160cave.wav","None","722.837047651","182","399544.099383","406410.146384","407176.737932","407943.92804","394127.25538","394893.86486","395660.450533","396427.587772","400293.36301","401060.405333","401827.099835","402593.397359","403360.629205","404109.784002","404877.029761","405643.64697","407186.55851","Mapping"
"Blocked","m160","cave","12","m160cad.wav","space","384.3375328","182","399544.099383","406410.146384","407176.737932","407943.92804","408693.20156","394893.86486","395660.450533","396427.587772","400293.36301","401060.405333","401827.099835","402593.397359","403360.629205","404109.784002","404877.029761","405643.64697","407953.741815","Mapping"
"Blocked","m160","cave","12","m160greet.wav","None","734.319739975","182","399544.099383","406410.146384","407176.737932","407943.92804","408693.20156","409460.162879","395660.450533","396427.587772","400293.36301","401060.405333","401827.099835","402593.397359","403360.629205","404109.784002","404877.029761","405643.64697","408702.18335","Mapping"
"Blocked","m160","cave","12","m160cad.wav","None","730.997674167","182","399544.099383","406410.146384","407176.737932","407943.92804","408693.20156","409460.162879","410226.892009","396427.587772","400293.36301","401060.405333","401827.099835","402593.397359","403360.629205","404109.784002","404877.029761","405643.64697","409469.473939","Mapping"
"Blocked","m160","cave","12","m160cling.wav","None","728.482859209","182","399544.099383","406410.146384","407176.737932","407943.92804","408693.20156","409460.162879","410226.892009","410993.645254","400293.36301","401060.405333","401827.099835","402593.397359","403360.629205","404109.784002","404877.029761","405643.64697","410235.978918","Mapping"
"Blocked","m160","cave","10","m160romp.wav","None","730.564522557","182","414093.644543","406410.146384","407176.737932","407943.92804","408693.20156","409460.162879","410226.892009","410993.645254","400293.36301","401060.405333","401827.099835","402593.397359","403360.629205","404109.784002","404877.029761","405643.64697","410998.039533","Mapping"
"Blocked","m160","cave","10","m160cave.wav","None","735.894049983","182","414093.644543","406410.146384","407176.737932","407943.92804","408693.20156","409460.162879","410226.892009","410993.645254","414859.665975","401060.405333","401827.099835","402593.397359","403360.629205","404109.784002","404877.029761","405643.64697","414102.980337","Mapping"
"Blocked","m160","cave","10","m160reek.wav","space","508.537044749","182","414093.644543","406410.146384","407176.737932","407943.92804","408693.20156","409460.162879","410226.892009","410993.645254","414859.665975","415626.886691","401827.099835","402593.397359","403360.629205","404109.784002","404877.029761","405643.64697","414869.399366","Mapping"
"Blocked","m160","cave","10","m160gnash.wav","None","729.952050373","182","414093.644543","406410.146384","407176.737932","407943.92804","408693.20156","409460.162879","410226.892009","410993.645254","414859.665975","415626.886691","416393.44423","402593.397359","403360.629205","404109.784002","404877.029761","405643.64697","415636.144264","Mapping"
"Blocked","m160","cave","10","m160depth.wav","None","727.00222861","182","414093.644543","406410.146384","407176.737932","407943.92804","408693.20156","409460.162879","410226.892009","410993.645254","414859.665975","415626.886691","416393.44423","417160.365975","403360.629205","404109.784002","404877.029761","405643.64697","416402.908331","Mapping"
"Blocked","m160","cave","10","m160cave.wav","None","723.805686925","182","414093.644543","406410.146384","407176.737932","407943.92804","408693.20156","409460.162879","410226.892009","410993.645254","414859.665975","415626.886691","416393.44423","417160.365975","417926.626707","404109.784002","404877.029761","405643.64697","417170.066284","Mapping"
"Blocked","m160","cave","10","m160cad.wav","space","490.158862434","182","414093.644543","406410.146384","407176.737932","407943.92804","408693.20156","409460.162879","410226.892009","410993.645254","414859.665975","415626.886691","416393.44423","417160.365975","417926.626707","418676.319157","404877.029761","405643.64697","417935.735877","Mapping"
"Blocked","m160","cave","10","m160knife.wav","None","735.844891518","182","414093.644543","406410.146384","407176.737932","407943.92804","408693.20156","409460.162879","410226.892009","410993.645254","414859.665975","415626.886691","416393.44423","417160.365975","417926.626707","418676.319157","419443.371682","405643.64697","418685.38628","Mapping"
"Blocked","m160","cave","10","m160cad.wav","None","732.443677261","182","414093.644543","406410.146384","407176.737932","407943.92804","408693.20156","409460.162879","410226.892009","410993.645254","414859.665975","415626.886691","416393.44423","417160.365975","417926.626707","418676.319157","419443.371682","420210.013316","419452.598956","Mapping"
"Blocked","m160","cave","10","m160reek.wav","space","390.379395802","182","414093.644543","420976.339594","407176.737932","407943.92804","408693.20156","409460.162879","410226.892009","410993.645254","414859.665975","415626.886691","416393.44423","417160.365975","417926.626707","418676.319157","419443.371682","420210.013316","420219.455156","Mapping"
"Blocked","m160","cave","10","m160romp.wav","None","725.791816134","182","414093.644543","420976.339594","421743.127467","407943.92804","408693.20156","409460.162879","410226.892009","410993.645254","414859.665975","415626.886691","416393.44423","417160.365975","417926.626707","418676.319157","419443.371682","420210.013316","420986.178412","Mapping"
"Blocked","m160","cave","10","m160cave.wav","None","723.557112273","182","414093.644543","420976.339594","421743.127467","422509.525472","408693.20156","409460.162879","410226.892009","410993.645254","414859.665975","415626.886691","416393.44423","417160.365975","417926.626707","418676.319157","419443.371682","420210.013316","421752.418121","Mapping"
"Blocked","m160","cave","10","m160lash.wav","space","615.934230387","182","414093.644543","420976.339594","421743.127467","422509.525472","423259.503598","409460.162879","410226.892009","410993.645254","414859.665975","415626.886691","416393.44423","417160.365975","417926.626707","418676.319157","419443.371682","420210.013316","422513.865954","Mapping"
"Blocked","m160","cave","10","m160jolt.wav","None","733.470132109","182","414093.644543","420976.339594","421743.127467","422509.525472","423259.503598","424026.698343","410226.892009","410993.645254","414859.665975","415626.886691","416393.44423","417160.365975","417926.626707","418676.319157","419443.371682","420210.013316","423269.421874","Mapping"
"Blocked","m160","cave","10","m160cave.wav","None","730.952534825","182","414093.644543","420976.339594","421743.127467","422509.525472","423259.503598","424026.698343","424793.325446","410993.645254","414859.665975","415626.886691","416393.44423","417160.365975","417926.626707","418676.319157","419443.371682","420210.013316","424035.900265","Mapping"
"Blocked","m160","cave","10","m160knife.wav","space","559.229701292","182","414093.644543","420976.339594","421743.127467","422509.525472","423259.503598","424026.698343","424793.325446","425559.85825","414859.665975","415626.886691","416393.44423","417160.365975","417926.626707","418676.319157","419443.371682","420210.013316","424802.581782","Mapping"
"Blocked","m160","tile","15","m160jolt.wav","None","725.283534732","182","428676.83393","420976.339594","421743.127467","422509.525472","423259.503598","424026.698343","424793.325446","425559.85825","414859.665975","415626.886691","416393.44423","417160.365975","417926.626707","418676.319157","419443.371682","420210.013316","425568.760893","Mapping"
"Blocked","m160","tile","15","m160tile.wav","None","720.266272314","182","428676.83393","420976.339594","421743.127467","422509.525472","423259.503598","424026.698343","424793.325446","425559.85825","429426.381069","415626.886691","416393.44423","417160.365975","417926.626707","418676.319157","419443.371682","420210.013316","428686.301123","Mapping"
"Blocked","m160","tile","15","m160dime.wav","space","414.031454362","182","428676.83393","420976.339594","421743.127467","422509.525472","423259.503598","424026.698343","424793.325446","425559.85825","429426.381069","430193.601784","416393.44423","417160.365975","417926.626707","418676.319157","419443.371682","420210.013316","429435.711607","Mapping"
"Blocked","m160","tile","15","m160cling.wav","None","730.69808539","182","428676.83393","420976.339594","421743.127467","422509.525472","423259.503598","424026.698343","424793.325446","425559.85825","429426.381069","430193.601784","430959.404632","417160.365975","417926.626707","418676.319157","419443.371682","420210.013316","430203.155236","Mapping"
"Blocked","m160","tile","15","m160jolt.wav","None","728.935797699","182","428676.83393","420976.339594","421743.127467","422509.525472","423259.503598","424026.698343","424793.325446","425559.85825","429426.381069","430193.601784","430959.404632","431726.534141","417926.626707","418676.319157","419443.371682","420210.013316","430969.175432","Mapping"
"Blocked","m160","tile","15","m160tile.wav","None","726.526102051","182","428676.83393","420976.339594","421743.127467","422509.525472","423259.503598","424026.698343","424793.325446","425559.85825","429426.381069","430193.601784","430959.404632","431726.534141","432493.508445","418676.319157","419443.371682","420210.013316","431735.761724","Mapping"
"Blocked","m160","tile","15","m160priest.wav","space","442.274426576","182","428676.83393","420976.339594","421743.127467","422509.525472","423259.503598","424026.698343","424793.325446","425559.85825","429426.381069","430193.601784","430959.404632","431726.534141","432493.508445","433259.278829","419443.371682","420210.013316","432503.365196","Mapping"
"Blocked","m160","tile","15","m160park.wav","None","725.379069801","182","428676.83393","420976.339594","421743.127467","422509.525472","423259.503598","424026.698343","424793.325446","425559.85825","429426.381069","430193.601784","430959.404632","431726.534141","432493.508445","433259.278829","434026.852311","420210.013316","433268.258764","Mapping"
"Blocked","m160","tile","15","m160tile.wav","None","720.504953992","182","428676.83393","420976.339594","421743.127467","422509.525472","423259.503598","424026.698343","424793.325446","425559.85825","429426.381069","430193.601784","430959.404632","431726.534141","432493.508445","433259.278829","434026.852311","434776.676469","434037.253516","Mapping"
"Blocked","m160","tile","15","m160romp.wav","None","735.928677488","182","428676.83393","435543.011403","421743.127467","422509.525472","423259.503598","424026.698343","424793.325446","425559.85825","429426.381069","430193.601784","430959.404632","431726.534141","432493.508445","433259.278829","434026.852311","434776.676469","434785.971452","Mapping"
"Blocked","m160","tile","15","m160cling.wav","space","41.3250178099","182","428676.83393","435543.011403","436309.593985","422509.525472","423259.503598","424026.698343","424793.325446","425559.85825","429426.381069","430193.601784","430959.404632","431726.534141","432493.508445","433259.278829","434026.852311","434776.676469","435552.283507","Mapping"
"Blocked","m160","tile","15","m160priest.wav","None","729.964108206","182","428676.83393","435543.011403","436309.593985","437076.496561","423259.503598","424026.698343","424793.325446","425559.85825","429426.381069","430193.601784","430959.404632","431726.534141","432493.508445","433259.278829","434026.852311","434776.676469","436319.146818","Mapping"
"Blocked","m160","tile","15","m160romp.wav","None","727.808552328","182","428676.83393","435543.011403","436309.593985","437076.496561","437843.082853","424026.698343","424793.325446","425559.85825","429426.381069","430193.601784","430959.404632","431726.534141","432493.508445","433259.278829","434026.852311","434776.676469","437085.873784","Mapping"
"Blocked","m160","tile","15","m160bluff.wav","None","725.429464597","182","428676.83393","435543.011403","436309.593985","437076.496561","437843.082853","438609.860523","424793.325446","425559.85825","429426.381069","430193.601784","430959.404632","431726.534141","432493.508445","433259.278829","434026.852311","434776.676469","437852.363305","Mapping"
"Blocked","m160","tile","15","m160tile.wav","None","722.34020615","182","428676.83393","435543.011403","436309.593985","437076.496561","437843.082853","438609.860523","439376.185563","425559.85825","429426.381069","430193.601784","430959.404632","431726.534141","432493.508445","433259.278829","434026.852311","434776.676469","438619.932767","Mapping"
"Blocked","m160","tile","15","m160knife.wav","space","448.190455791","182","428676.83393","435543.011403","436309.593985","437076.496561","437843.082853","438609.860523","439376.185563","440126.212539","429426.381069","430193.601784","430959.404632","431726.534141","432493.508445","433259.278829","434026.852311","434776.676469","439385.349766","Mapping"
"Blocked","m160","ball","6","m160cad.wav","None","734.213075601","182","443259.922219","435543.011403","436309.593985","437076.496561","437843.082853","438609.860523","439376.185563","440126.212539","429426.381069","430193.601784","430959.404632","431726.534141","432493.508445","433259.278829","434026.852311","434776.676469","440135.498865","Mapping"
"Blocked","m160","ball","6","m160ball.wav","None","719.76386616","182","443259.922219","435543.011403","436309.593985","437076.496561","437843.082853","438609.860523","439376.185563","440126.212539","444009.143798","430193.601784","430959.404632","431726.534141","432493.508445","433259.278829","434026.852311","434776.676469","443269.64386","Mapping"
"Blocked","m160","ball","6","m160gnash.wav","space","351.133568212","182","443259.922219","435543.011403","436309.593985","437076.496561","437843.082853","438609.860523","439376.185563","440126.212539","444009.143798","444776.048538","430959.404632","431726.534141","432493.508445","433259.278829","434026.852311","434776.676469","444018.328097","Mapping"
"Blocked","m160","ball","6","m160ball.wav","None","731.343329884","182","443259.922219","435543.011403","436309.593985","437076.496561","437843.082853","438609.860523","439376.185563","440126.212539","444009.143798","444776.048538","445542.943694","431726.534141","432493.508445","433259.278829","434026.852311","434776.676469","444785.389279","Mapping"
"Blocked","m160","ball","6","m160bluff.wav","space","449.068198446","182","443259.922219","435543.011403","436309.593985","437076.496561","437843.082853","438609.860523","439376.185563","440126.212539","444009.143798","444776.048538","445542.943694","446309.299652","432493.508445","433259.278829","434026.852311","434776.676469","445552.350597","Mapping"
"Blocked","m160","ball","6","m160romp.wav","None","725.99494271","182","443259.922219","435543.011403","436309.593985","437076.496561","437843.082853","438609.860523","439376.185563","440126.212539","444009.143798","444776.048538","445542.943694","446309.299652","447076.70247","433259.278829","434026.852311","434776.676469","446318.265056","Mapping"
"Blocked","m160","ball","6","m160greet.wav","None","721.961468924","182","443259.922219","435543.011403","436309.593985","437076.496561","437843.082853","438609.860523","439376.185563","440126.212539","444009.143798","444776.048538","445542.943694","446309.299652","447076.70247","447843.26712","434026.852311","434776.676469","447086.373717","Mapping"
"Blocked","m160","ball","6","m160park.wav","None","719.503851142","182","443259.922219","435543.011403","436309.593985","437076.496561","437843.082853","438609.860523","439376.185563","440126.212539","444009.143798","444776.048538","445542.943694","446309.299652","447076.70247","447843.26712","448592.762008","434776.676469","447853.041012","Mapping"
"Blocked","m160","ball","6","m160park.wav","None","734.672506806","182","443259.922219","435543.011403","436309.593985","437076.496561","437843.082853","438609.860523","439376.185563","440126.212539","444009.143798","444776.048538","445542.943694","446309.299652","447076.70247","447843.26712","448592.762008","449359.091377","448601.890965","Mapping"
"Blocked","m160","ball","6","m160ball.wav","None","732.721005566","182","443259.922219","450125.786498","436309.593985","437076.496561","437843.082853","438609.860523","439376.185563","440126.212539","444009.143798","444776.048538","445542.943694","446309.299652","447076.70247","447843.26712","448592.762008","449359.091377","449368.156026","Mapping"
"Blocked","m160","ball","6","m160gnash.wav","space","537.880055141","182","443259.922219","450125.786498","450892.865303","437076.496561","437843.082853","438609.860523","439376.185563","440126.212539","444009.143798","444776.048538","445542.943694","446309.299652","447076.70247","447843.26712","448592.762008","449359.091377","450135.424663","Mapping"
"Blocked","m160","ball","6","m160cling.wav","None","725.881167222","182","443259.922219","450125.786498","450892.865303","451659.984919","437843.082853","438609.860523","439376.185563","440126.212539","444009.143798","444776.048538","445542.943694","446309.299652","447076.70247","447843.26712","448592.762008","449359.091377","450902.18131","Mapping"
"Blocked","m160","ball","6","m160romp.wav","None","722.564356402","182","443259.922219","450125.786498","450892.865303","451659.984919","452426.360973","438609.860523","439376.185563","440126.212539","444009.143798","444776.048538","445542.943694","446309.299652","447076.70247","447843.26712","448592.762008","449359.091377","451669.692957","Mapping"
"Blocked","m160","ball","6","m160ball.wav","None","719.949060585","182","443259.922219","450125.786498","450892.865303","451659.984919","452426.360973","453175.907802","439376.185563","440126.212539","444009.143798","444776.048538","445542.943694","446309.299652","447076.70247","447843.26712","448592.762008","449359.091377","452436.525351","Mapping"
"Blocked","m160","ball","6","m160park.wav","space","415.45674298","182","443259.922219","450125.786498","450892.865303","451659.984919","452426.360973","453175.907802","453942.78719","440126.212539","444009.143798","444776.048538","445542.943694","446309.299652","447076.70247","447843.26712","448592.762008","449359.091377","453185.817113","Mapping"
"Blocked","m160","ball","6","m160greet.wav","None","731.76967958","182","443259.922219","450125.786498","450892.865303","451659.984919","452426.360973","453175.907802","453942.78719","454709.337618","444009.143798","444776.048538","445542.943694","446309.299652","447076.70247","447843.26712","448592.762008","449359.091377","453952.029614","Mapping"
"Blocked","m160","done","19","m160gnash.wav","None","729.617524892","182","457843.241768","450125.786498","450892.865303","451659.984919","452426.360973","453175.907802","453942.78719","454709.337618","444009.143798","444776.048538","445542.943694","446309.299652","447076.70247","447843.26712","448592.762008","449359.091377","454718.391446","Mapping"
"Blocked","m160","done","19","m160park.wav","None","718.389899936","182","457843.241768","450125.786498","450892.865303","451659.984919","452426.360973","453175.907802","453942.78719","454709.337618","458592.639885","444776.048538","445542.943694","446309.299652","447076.70247","447843.26712","448592.762008","449359.091377","457853.497661","Mapping"
"Blocked","m160","done","19","m160tile.wav","None","733.933892101","182","457843.241768","450125.786498","450892.865303","451659.984919","452426.360973","453175.907802","453942.78719","454709.337618","458592.639885","459359.044074","445542.943694","446309.299652","447076.70247","447843.26712","448592.762008","449359.091377","458602.183752","Mapping"
"Blocked","m160","done","19","m160done.wav","None","732.340104412","182","457843.241768","450125.786498","450892.865303","451659.984919","452426.360973","453175.907802","453942.78719","454709.337618","458592.639885","459359.044074","460125.61027","446309.299652","447076.70247","447843.26712","448592.762008","449359.091377","459368.022154","Mapping"
"Blocked","m160","done","19","m160gnash.wav","space","386.474847328","182","457843.241768","450125.786498","450892.865303","451659.984919","452426.360973","453175.907802","453942.78719","454709.337618","458592.639885","459359.044074","460125.61027","460892.271381","447076.70247","447843.26712","448592.762008","449359.091377","460134.689759","Mapping"
"Blocked","m160","done","19","m160priest.wav","None","726.424384397","182","457843.241768","450125.786498","450892.865303","451659.984919","452426.360973","453175.907802","453942.78719","454709.337618","458592.639885","459359.044074","460125.61027","460892.271381","461659.278767","447843.26712","448592.762008","449359.091377","460901.23122","Mapping"
"Blocked","m160","done","19","m160cave.wav","None","723.745398689","182","457843.241768","450125.786498","450892.865303","451659.984919","452426.360973","453175.907802","453942.78719","454709.337618","458592.639885","459359.044074","460125.61027","460892.271381","461659.278767","462426.238231","448592.762008","449359.091377","461668.127304","Mapping"
"Blocked","m160","done","19","m160tile.wav","None","720.100864768","182","457843.241768","450125.786498","450892.865303","451659.984919","452426.360973","453175.907802","453942.78719","454709.337618","458592.639885","459359.044074","460125.61027","460892.271381","461659.278767","462426.238231","463175.653971","449359.091377","462436.052934","Mapping"
"Blocked","m160","done","19","m160done.wav","None","734.039320145","182","457843.241768","450125.786498","450892.865303","451659.984919","452426.360973","453175.907802","453942.78719","454709.337618","458592.639885","459359.044074","460125.61027","460892.271381","461659.278767","462426.238231","463175.653971","463942.563967","463186.364967","Mapping"
"Blocked","m160","done","19","m160cling.wav","space","424.963819329","182","457843.241768","464709.163863","450892.865303","451659.984919","452426.360973","453175.907802","453942.78719","454709.337618","458592.639885","459359.044074","460125.61027","460892.271381","461659.278767","462426.238231","463175.653971","463942.563967","463952.070116","Mapping"
"Blocked","m160","done","19","m160done.wav","None","729.047100525","182","457843.241768","464709.163863","465475.902577","451659.984919","452426.360973","453175.907802","453942.78719","454709.337618","458592.639885","459359.044074","460125.61027","460892.271381","461659.278767","462426.238231","463175.653971","463942.563967","464718.499348","Mapping"
"Blocked","m160","done","19","m160gnash.wav","space","580.015415326","182","457843.241768","464709.163863","465475.902577","466242.897287","452426.360973","453175.907802","453942.78719","454709.337618","458592.639885","459359.044074","460125.61027","460892.271381","461659.278767","462426.238231","463175.653971","463942.563967","465485.067089","Mapping"
"Blocked","m160","done","19","m160cad.wav","None","721.841200721","182","457843.241768","464709.163863","465475.902577","466242.897287","467009.461009","453175.907802","453942.78719","454709.337618","458592.639885","459359.044074","460125.61027","460892.271381","461659.278767","462426.238231","463175.653971","463942.563967","466252.913571","Mapping"
"Blocked","m160","done","19","m160done.wav","None","720.481147524","182","457843.241768","464709.163863","465475.902577","466242.897287","467009.461009","467758.981868","453942.78719","454709.337618","458592.639885","459359.044074","460125.61027","460892.271381","461659.278767","462426.238231","463175.653971","463942.563967","467018.850599","Mapping"
"Blocked","m160","done","19","m160jolt.wav","space","432.278547436","182","457843.241768","464709.163863","465475.902577","466242.897287","467009.461009","467758.981868","468525.490867","454709.337618","458592.639885","459359.044074","460125.61027","460892.271381","461659.278767","462426.238231","463175.653971","463942.563967","467768.773383","Mapping"
"Blocked","m160","done","19","m160cling.wav","None","731.866141781","182","457843.241768","464709.163863","465475.902577","466242.897287","467009.461009","467758.981868","468525.490867","469292.417868","458592.639885","459359.044074","460125.61027","460892.271381","461659.278767","462426.238231","463175.653971","463942.563967","468534.733909","Mapping"
"Blocked","m160","cave","8","m160depth.wav","None","728.509138804","182","472426.128784","464709.163863","465475.902577","466242.897287","467009.461009","467758.981868","468525.490867","469292.417868","458592.639885","459359.044074","460125.61027","460892.271381","461659.278767","462426.238231","463175.653971","463942.563967","469302.315429","Mapping"
"Blocked","m160","cave","8","m160cave.wav","None","719.044110738","182","472426.128784","464709.163863","465475.902577","466242.897287","467009.461009","467758.981868","468525.490867","469292.417868","473175.316972","459359.044074","460125.61027","460892.271381","461659.278767","462426.238231","463175.653971","463942.563967","472435.910406","Mapping"
"Blocked","m160","cave","8","m160priest.wav","space","480.499054771","182","472426.128784","464709.163863","465475.902577","466242.897287","467009.461009","467758.981868","468525.490867","469292.417868","473175.316972","473942.4471","460125.61027","460892.271381","461659.278767","462426.238231","463175.653971","463942.563967","473184.415321","Mapping"
"Blocked","m160","cave","8","m160cave.wav","None","729.404814076","182","472426.128784","464709.163863","465475.902577","466242.897287","467009.461009","467758.981868","468525.490867","469292.417868","473175.316972","473942.4471","474708.713707","460892.271381","461659.278767","462426.238231","463175.653971","463942.563967","473952.798837","Mapping"
"Blocked","m160","cave","8","m160jolt.wav","space","435.393468011","182","472426.128784","464709.163863","465475.902577","466242.897287","467009.461009","467758.981868","468525.490867","469292.417868","473175.316972","473942.4471","474708.713707","475476.239576","461659.278767","462426.238231","463175.653971","463942.563967","474717.497936","Mapping"
"Blocked","m160","cave","8","m160greet.wav","None","722.868892364","182","472426.128784","464709.163863","465475.902577","466242.897287","467009.461009","467758.981868","468525.490867","469292.417868","473175.316972","473942.4471","474708.713707","475476.239576","476242.148779","462426.238231","463175.653971","463942.563967","475486.400553","Mapping"
"Blocked","m160","cave","8","m160lash.wav","None","722.026086412","182","472426.128784","464709.163863","465475.902577","466242.897287","467009.461009","467758.981868","468525.490867","469292.417868","473175.316972","473942.4471","474708.713707","475476.239576","476242.148779","476992.574897","463175.653971","463942.563967","476251.501577","Mapping"
"Blocked","m160","cave","8","m160done.wav","None","735.887557268","182","472426.128784","464709.163863","465475.902577","466242.897287","467009.461009","467758.981868","468525.490867","469292.417868","473175.316972","473942.4471","474708.713707","475476.239576","476242.148779","476992.574897","477758.855107","463942.563967","477001.876991","Mapping"
"Blocked","m160","cave","8","m160park.wav","None","733.828154393","182","472426.128784","464709.163863","465475.902577","466242.897287","467009.461009","467758.981868","468525.490867","469292.417868","473175.316972","473942.4471","474708.713707","475476.239576","476242.148779","476992.574897","477758.855107","478525.672042","477768.26232","Mapping"
"Blocked","m160","cave","8","m160bluff.wav","None","731.297572143","182","472426.128784","479291.93463","465475.902577","466242.897287","467009.461009","467758.981868","468525.490867","469292.417868","473175.316972","473942.4471","474708.713707","475476.239576","476242.148779","476992.574897","477758.855107","478525.672042","478535.128723","Mapping"
"Blocked","m160","cave","8","m160cave.wav","None","729.842603207","182","472426.128784","479291.93463","480058.878944","466242.897287","467009.461009","467758.981868","468525.490867","469292.417868","473175.316972","473942.4471","474708.713707","475476.239576","476242.148779","476992.574897","477758.855107","478525.672042","479300.951357","Mapping"
"Blocked","m160","cave","8","m160tile.wav","space","564.609933179","182","472426.128784","479291.93463","480058.878944","480825.38918","467009.461009","467758.981868","468525.490867","469292.417868","473175.316972","473942.4471","474708.713707","475476.239576","476242.148779","476992.574897","477758.855107","478525.672042","480068.227415","Mapping"
"Blocked","m160","cave","8","m160cave.wav","None","723.607816268","182","472426.128784","479291.93463","480058.878944","480825.38918","481592.659363","467758.981868","468525.490867","469292.417868","473175.316972","473942.4471","474708.713707","475476.239576","476242.148779","476992.574897","477758.855107","478525.672042","480834.42724","Mapping"
"Blocked","m160","cave","8","m160ball.wav","space","533.861421514","182","472426.128784","479291.93463","480058.878944","480825.38918","481592.659363","482342.198153","468525.490867","469292.417868","473175.316972","473942.4471","474708.713707","475476.239576","476242.148779","476992.574897","477758.855107","478525.672042","481602.892687","Mapping"
"Blocked","m160","cave","8","m160lash.wav","None","733.336878475","182","472426.128784","479291.93463","480058.878944","480825.38918","481592.659363","482342.198153","483108.887709","469292.417868","473175.316972","473942.4471","474708.713707","475476.239576","476242.148779","476992.574897","477758.855107","478525.672042","482351.956587","Mapping"
"Blocked","m160","cave","8","m160knife.wav","None","731.201419141","182","472426.128784","479291.93463","480058.878944","480825.38918","481592.659363","482342.198153","483108.887709","483875.181833","473175.316972","473942.4471","474708.713707","475476.239576","476242.148779","476992.574897","477758.855107","478525.672042","483118.509489","Mapping"
"Blocked","m160","ball","3","m160bluff.wav","None","729.78571523","182","487009.245207","479291.93463","480058.878944","480825.38918","481592.659363","482342.198153","483108.887709","483875.181833","473175.316972","473942.4471","474708.713707","475476.239576","476242.148779","476992.574897","477758.855107","478525.672042","483884.240916","Mapping"
"Blocked","m160","ball","3","m160ball.wav","None","719.716562424","182","487009.245207","479291.93463","480058.878944","480825.38918","481592.659363","482342.198153","483108.887709","483875.181833","487758.573759","473942.4471","474708.713707","475476.239576","476242.148779","476992.574897","477758.855107","478525.672042","487018.974269","Mapping"
"Blocked","m160","ball","3","m160greet.wav","space","432.865358423","182","487009.245207","479291.93463","480058.878944","480825.38918","481592.659363","482342.198153","483108.887709","483875.181833","487758.573759","488525.555175","474708.713707","475476.239576","476242.148779","476992.574897","477758.855107","478525.672042","487767.80629","Mapping"
"Blocked","m160","ball","3","m160jolt.wav","None","731.67630937","182","487009.245207","479291.93463","480058.878944","480825.38918","481592.659363","482342.198153","483108.887709","483875.181833","487758.573759","488525.555175","489292.134974","475476.239576","476242.148779","476992.574897","477758.855107","478525.672042","488534.543767","Mapping"
"Blocked","m160","ball","3","m160ball.wav","None","729.108007625","182","487009.245207","479291.93463","480058.878944","480825.38918","481592.659363","482342.198153","483108.887709","483875.181833","487758.573759","488525.555175","489292.134974","490058.693749","476242.148779","476992.574897","477758.855107","478525.672042","489301.623499","Mapping"
"Blocked","m160","ball","3","m160cave.wav","space","460.145255551","182","487009.245207","479291.93463","480058.878944","480825.38918","481592.659363","482342.198153","483108.887709","483875.181833","487758.573759","488525.555175","489292.134974","490058.693749","490825.23212","476992.574897","477758.855107","478525.672042","490068.477536","Mapping"
"Blocked","m160","ball","3","m160ball.wav","None","723.863502499","182","487009.245207","479291.93463","480058.878944","480825.38918","481592.659363","482342.198153","483108.887709","483875.181833","487758.573759","488525.555175","489292.134974","490058.693749","490825.23212","491592.401822","477758.855107","478525.672042","490834.407144","Mapping"
"Blocked","m160","ball","3","m160cling.wav","None","720.511755906","182","487009.245207","479291.93463","480058.878944","480825.38918","481592.659363","482342.198153","483108.887709","483875.181833","487758.573759","488525.555175","489292.134974","490058.693749","490825.23212","491592.401822","492341.584136","478525.672042","491602.288253","Mapping"
"Blocked","m160","ball","3","m160dime.wav","space","2.03528720886","182","487009.245207","479291.93463","480058.878944","480825.38918","481592.659363","482342.198153","483108.887709","483875.181833","487758.573759","488525.555175","489292.134974","490058.693749","490825.23212","491592.401822","492341.584136","493108.658921","492350.556342","Mapping"
"Blocked","m160","ball","3","m160tile.wav","None","732.336394023","182","487009.245207","493875.461634","480058.878944","480825.38918","481592.659363","482342.198153","483108.887709","483875.181833","487758.573759","488525.555175","489292.134974","490058.693749","490825.23212","491592.401822","492341.584136","493108.658921","493117.969981","Mapping"
"Blocked","m160","ball","3","m160done.wav","None","730.13013415","182","487009.245207","493875.461634","494642.006188","480825.38918","481592.659363","482342.198153","483108.887709","483875.181833","487758.573759","488525.555175","489292.134974","490058.693749","490825.23212","491592.401822","492341.584136","493108.658921","493884.735594","Mapping"
"Blocked","m160","ball","3","m160ball.wav","None","728.230882902","182","487009.245207","493875.461634","494642.006188","495408.240641","481592.659363","482342.198153","483108.887709","483875.181833","487758.573759","488525.555175","489292.134974","490058.693749","490825.23212","491592.401822","492341.584136","493108.658921","494651.233153","Mapping"
"Blocked","m160","ball","3","m160done.wav","space","366.885633208","182","487009.245207","493875.461634","494642.006188","495408.240641","496175.125285","482342.198153","483108.887709","483875.181833","487758.573759","488525.555175","489292.134974","490058.693749","490825.23212","491592.401822","492341.584136","493108.658921","495417.651564","Mapping"
"Blocked","m160","ball","3","m160knife.wav","None","722.512724809","182","487009.245207","493875.461634","494642.006188","495408.240641","496175.125285","496941.629027","483108.887709","483875.181833","487758.573759","488525.555175","489292.134974","490058.693749","490825.23212","491592.401822","492341.584136","493108.658921","496184.40821","Mapping"
"Blocked","m160","ball","3","m160knife.wav","None","725.568592548","182","487009.245207","493875.461634","494642.006188","495408.240641","496175.125285","496941.629027","497709.224151","483875.181833","487758.573759","488525.555175","489292.134974","490058.693749","490825.23212","491592.401822","492341.584136","493108.658921","496951.021709","Mapping"
"Blocked","m160","ball","3","m160depth.wav","None","721.573147457","182","487009.245207","493875.461634","494642.006188","495408.240641","496175.125285","496941.629027","497709.224151","498475.782309","487758.573759","488525.555175","489292.134974","490058.693749","490825.23212","491592.401822","492341.584136","493108.658921","497719.419756","Mapping"
"Blocked","m160","done","23","m160ball.wav","None","719.915360678","182","501592.385745","493875.461634","494642.006188","495408.240641","496175.125285","496941.629027","497709.224151","498475.782309","487758.573759","488525.555175","489292.134974","490058.693749","490825.23212","491592.401822","492341.584136","493108.658921","498485.558365","Mapping"
"Blocked","m160","done","23","m160cad.wav","None","719.046583865","182","501592.385745","493875.461634","494642.006188","495408.240641","496175.125285","496941.629027","497709.224151","498475.782309","502341.502205","488525.555175","489292.134974","490058.693749","490825.23212","491592.401822","492341.584136","493108.658921","501602.201375","Mapping"
"Blocked","m160","done","23","m160cad.wav","None","735.501400195","182","501592.385745","493875.461634","494642.006188","495408.240641","496175.125285","496941.629027","497709.224151","498475.782309","502341.502205","503108.526595","489292.134974","490058.693749","490825.23212","491592.401822","492341.584136","493108.658921","502350.184407","Mapping"
"Blocked","m160","done","23","m160done.wav","None","732.31444275","182","501592.385745","493875.461634","494642.006188","495408.240641","496175.125285","496941.629027","497709.224151","498475.782309","502341.502205","503108.526595","503875.25016","490058.693749","490825.23212","491592.401822","492341.584136","493108.658921","503117.905673","Mapping"
"Blocked","m160","done","23","m160lash.wav","space","370.975994971","182","501592.385745","493875.461634","494642.006188","495408.240641","496175.125285","496941.629027","497709.224151","498475.782309","502341.502205","503108.526595","503875.25016","504641.497907","490825.23212","491592.401822","492341.584136","493108.658921","503885.383002","Mapping"
"Blocked","m160","done","23","m160done.wav","None","727.308001369","182","501592.385745","493875.461634","494642.006188","495408.240641","496175.125285","496941.629027","497709.224151","498475.782309","502341.502205","503108.526595","503875.25016","504641.497907","505408.066576","491592.401822","492341.584136","493108.658921","504650.759809","Mapping"
"Blocked","m160","done","23","m160reek.wav","space","511.025889311","182","501592.385745","493875.461634","494642.006188","495408.240641","496175.125285","496941.629027","497709.224151","498475.782309","502341.502205","503108.526595","503875.25016","504641.497907","505408.066576","506175.638203","492341.584136","493108.658921","505417.306836","Mapping"
"Blocked","m160","done","23","m160ball.wav","None","720.312030055","182","501592.385745","493875.461634","494642.006188","495408.240641","496175.125285","496941.629027","497709.224151","498475.782309","502341.502205","503108.526595","503875.25016","504641.497907","505408.066576","506175.638203","506924.671496","493108.658921","506185.452597","Mapping"
"Blocked","m160","done","23","m160ball.wav","None","736.605766695","182","501592.385745","493875.461634","494642.006188","495408.240641","496175.125285","496941.629027","497709.224151","498475.782309","502341.502205","503108.526595","503875.25016","504641.497907","505408.066576","506175.638203","506924.671496","507691.701142","506933.676475","Mapping"
"Blocked","m160","done","23","m160done.wav","None","733.736948576","182","501592.385745","508458.406157","494642.006188","495408.240641","496175.125285","496941.629027","497709.224151","498475.782309","502341.502205","503108.526595","503875.25016","504641.497907","505408.066576","506175.638203","506924.671496","507691.701142","507701.077129","Mapping"
"Blocked","m160","done","23","m160cave.wav","space","500.593149103","182","501592.385745","508458.406157","509224.791177","495408.240641","496175.125285","496941.629027","497709.224151","498475.782309","502341.502205","503108.526595","503875.25016","504641.497907","505408.066576","506175.638203","506924.671496","507691.701142","508467.714125","Mapping"
"Blocked","m160","done","23","m160dime.wav","None","728.658469394","182","501592.385745","508458.406157","509224.791177","509991.407459","496175.125285","496941.629027","497709.224151","498475.782309","502341.502205","503108.526595","503875.25016","504641.497907","505408.066576","506175.638203","506924.671496","507691.701142","509233.809141","Mapping"
"Blocked","m160","done","23","m160lash.wav","None","726.424384397","182","501592.385745","508458.406157","509224.791177","509991.407459","510758.702375","496941.629027","497709.224151","498475.782309","502341.502205","503108.526595","503875.25016","504641.497907","505408.066576","506175.638203","506924.671496","507691.701142","510000.968331","Mapping"
"Blocked","m160","done","23","m160done.wav","None","723.952235188","182","501592.385745","508458.406157","509224.791177","509991.407459","510758.702375","511525.588875","497709.224151","498475.782309","502341.502205","503108.526595","503875.25016","504641.497907","505408.066576","506175.638203","506924.671496","507691.701142","510768.182863","Mapping"
"Blocked","m160","done","23","m160greet.wav","space","600.996836089","182","501592.385745","508458.406157","509224.791177","509991.407459","510758.702375","511525.588875","512274.821275","498475.782309","502341.502205","503108.526595","503875.25016","504641.497907","505408.066576","506175.638203","506924.671496","507691.701142","511535.244972","Mapping"
"Blocked","m160","done","23","m160dime.wav","None","735.321770422","182","501592.385745","508458.406157","509224.791177","509991.407459","510758.702375","511525.588875","512274.821275","513041.66047","502341.502205","503108.526595","503875.25016","504641.497907","505408.066576","506175.638203","506924.671496","507691.701142","512284.222923","Mapping"
"Blocked","m160","done","20","m160priest.wav","None","732.932170853","182","516175.359329","508458.406157","509224.791177","509991.407459","510758.702375","511525.588875","512274.821275","513041.66047","502341.502205","503108.526595","503875.25016","504641.497907","505408.066576","506175.638203","506924.671496","507691.701142","513051.175894","Mapping"
"Blocked","m160","done","20","m160depth.wav","None","719.682553317","182","516175.359329","508458.406157","509224.791177","509991.407459","510758.702375","511525.588875","512274.821275","513041.66047","516924.385511","503108.526595","503875.25016","504641.497907","505408.066576","506175.638203","506924.671496","507691.701142","516185.457235","Mapping"
"Blocked","m160","done","20","m160greet.wav","None","735.828196164","182","516175.359329","508458.406157","509224.791177","509991.407459","510758.702375","511525.588875","512274.821275","513041.66047","516924.385511","517691.245421","503875.25016","504641.497907","505408.066576","506175.638203","506924.671496","507691.701142","516933.884857","Mapping"
"Blocked","m160","done","20","m160done.wav","None","734.065908473","182","516175.359329","508458.406157","509224.791177","509991.407459","510758.702375","511525.588875","512274.821275","513041.66047","516924.385511","517691.245421","518457.920136","504641.497907","505408.066576","506175.638203","506924.671496","507691.701142","517700.156102","Mapping"
"Blocked","m160","done","20","m160gnash.wav","space","405.156019609","182","516175.359329","508458.406157","509224.791177","509991.407459","510758.702375","511525.588875","512274.821275","513041.66047","516924.385511","517691.245421","518457.920136","519224.96555","505408.066576","506175.638203","506924.671496","507691.701142","518466.932844","Mapping"
"Blocked","m160","done","20","m160dime.wav","None","727.777635213","182","516175.359329","508458.406157","509224.791177","509991.407459","510758.702375","511525.588875","512274.821275","513041.66047","516924.385511","517691.245421","518457.920136","519224.96555","519991.228756","506175.638203","506924.671496","507691.701142","519234.237655","Mapping"
"Blocked","m160","done","20","m160done.wav","None","726.24599142","182","516175.359329","508458.406157","509224.791177","509991.407459","510758.702375","511525.588875","512274.821275","513041.66047","516924.385511","517691.245421","518457.920136","519224.96555","519991.228756","520758.534185","506924.671496","507691.701142","520000.272382","Mapping"
"Blocked","m160","done","20","m160lash.wav","space","640.067362692","182","516175.359329","508458.406157","509224.791177","509991.407459","510758.702375","511525.588875","512274.821275","513041.66047","516924.385511","517691.245421","518457.920136","519224.96555","519991.228756","520758.534185","521525.560122","507691.701142","520768.030749","Mapping"
"Blocked","m160","done","20","m160greet.wav","None","719.296704978","182","516175.359329","508458.406157","509224.791177","509991.407459","510758.702375","511525.588875","512274.821275","513041.66047","516924.385511","517691.245421","518457.920136","519224.96555","519991.228756","520758.534185","521525.560122","522274.410384","521535.095641","Mapping"
"Blocked","m160","done","20","m160park.wav","None","735.576220322","182","516175.359329","523041.545767","509224.791177","509991.407459","510758.702375","511525.588875","512274.821275","513041.66047","516924.385511","517691.245421","518457.920136","519224.96555","519991.228756","520758.534185","521525.560122","522274.410384","522283.481216","Mapping"
"Blocked","m160","done","20","m160cave.wav","None","732.00248694","182","516175.359329","523041.545767","523808.123711","509991.407459","510758.702375","511525.588875","512274.821275","513041.66047","516924.385511","517691.245421","518457.920136","519224.96555","519991.228756","520758.534185","521525.560122","522274.410384","523051.354287","Mapping"
"Blocked","m160","done","20","m160done.wav","None","730.723437387","182","516175.359329","523041.545767","523808.123711","524574.506258","510758.702375","511525.588875","512274.821275","513041.66047","516924.385511","517691.245421","518457.920136","519224.96555","519991.228756","520758.534185","521525.560122","522274.410384","523817.286059","Mapping"
"Blocked","m160","done","20","m160jaw.wav","space","400.395988952","182","516175.359329","523041.545767","523808.123711","524574.506258","525341.462012","511525.588875","512274.821275","513041.66047","516924.385511","517691.245421","518457.920136","519224.96555","519991.228756","520758.534185","521525.560122","522274.410384","524583.592859","Mapping"
"Blocked","m160","done","20","m160bluff.wav","None","724.98209076","182","516175.359329","523041.545767","523808.123711","524574.506258","525341.462012","526108.097154","512274.821275","513041.66047","516924.385511","517691.245421","518457.920136","519224.96555","519991.228756","520758.534185","521525.560122","522274.410384","525350.947137","Mapping"
"Blocked","m160","done","20","m160done.wav","None","723.621419631","182","516175.359329","523041.545767","523808.123711","524574.506258","525341.462012","526108.097154","526874.902959","513041.66047","516924.385511","517691.245421","518457.920136","519224.96555","519991.228756","520758.534185","521525.560122","522274.410384","526117.348543","Mapping"
"Blocked","m160","done","20","m160jolt.wav","space","603.570703417","182","516175.359329","523041.545767","523808.123711","524574.506258","525341.462012","526108.097154","526874.902959","527624.664354","516924.385511","517691.245421","518457.920136","519224.96555","519991.228756","520758.534185","521525.560122","522274.410384","526884.347272","Mapping"
"Blocked","m160","tile","18","m160lash.wav","None","734.865121543","182","530758.434941","523041.545767","523808.123711","524574.506258","525341.462012","526108.097154","526874.902959","527624.664354","516924.385511","517691.245421","518457.920136","519224.96555","519991.228756","520758.534185","521525.560122","522274.410384","527633.921309","Mapping"
"Blocked","m160","tile","18","m160greet.wav","None","719.497976825","182","530758.434941","523041.545767","523808.123711","524574.506258","525341.462012","526108.097154","526874.902959","527624.664354","531507.742779","517691.245421","518457.920136","519224.96555","519991.228756","520758.534185","521525.560122","522274.410384","530768.51646","Mapping"
"Blocked","m160","tile","18","m160dime.wav","None","735.506656114","182","530758.434941","523041.545767","523808.123711","524574.506258","525341.462012","526108.097154","526874.902959","527624.664354","531507.742779","532274.739963","518457.920136","519224.96555","519991.228756","520758.534185","521525.560122","522274.410384","531517.274898","Mapping"
"Blocked","m160","tile","18","m160tile.wav","None","733.570922632","182","530758.434941","523041.545767","523808.123711","524574.506258","525341.462012","526108.097154","526874.902959","527624.664354","531507.742779","532274.739963","533041.334602","519224.96555","519991.228756","520758.534185","521525.560122","522274.410384","532283.861499","Mapping"
"Blocked","m160","tile","18","m160dime.wav","space","613.02521918","182","530758.434941","523041.545767","523808.123711","524574.506258","525341.462012","526108.097154","526874.902959","527624.664354","531507.742779","532274.739963","533041.334602","533807.90389","519991.228756","520758.534185","521525.560122","522274.410384","533050.82591","Mapping"
"Blocked","m160","tile","18","m160ball.wav","None","728.13318437","182","530758.434941","523041.545767","523808.123711","524574.506258","525341.462012","526108.097154","526874.902959","527624.664354","531507.742779","532274.739963","533041.334602","533807.90389","534574.284581","520758.534185","521525.560122","522274.410384","533817.295025","Mapping"
"Blocked","m160","tile","18","m160tile.wav","None","727.030673064","182","530758.434941","523041.545767","523808.123711","524574.506258","525341.462012","526108.097154","526874.902959","527624.664354","531507.742779","532274.739963","533041.334602","533807.90389","534574.284581","535340.966098","521525.560122","522274.410384","534583.256787","Mapping"
"Blocked","m160","tile","18","m160romp.wav","space","657.907274552","182","530758.434941","523041.545767","523808.123711","524574.506258","525341.462012","526108.097154","526874.902959","527624.664354","531507.742779","532274.739963","533041.334602","533807.90389","534574.284581","535340.966098","536108.087569","522274.410384","535349.915735","Mapping"
"Blocked","m160","tile","18","m160done.wav","None","719.962973613","182","530758.434941","523041.545767","523808.123711","524574.506258","525341.462012","526108.097154","526874.902959","527624.664354","531507.742779","532274.739963","533041.334602","533807.90389","534574.284581","535340.966098","536108.087569","536857.899669","536118.262768","Mapping"
"Blocked","m160","tile","18","m160tile.wav","None","735.736989882","182","530758.434941","537624.485652","523808.123711","524574.506258","525341.462012","526108.097154","526874.902959","527624.664354","531507.742779","532274.739963","533041.334602","533807.90389","534574.284581","535340.966098","536108.087569","536857.899669","536867.298844","Mapping"
"Blocked","m160","tile","18","m160priest.wav","space","501.12399878","182","530758.434941","537624.485652","538390.865416","524574.506258","525341.462012","526108.097154","526874.902959","527624.664354","531507.742779","532274.739963","533041.334602","533807.90389","534574.284581","535340.966098","536108.087569","536857.899669","537634.633953","Mapping"
"Blocked","m160","tile","18","m160ball.wav","None","731.424023863","182","530758.434941","537624.485652","538390.865416","539158.103754","525341.462012","526108.097154","526874.902959","527624.664354","531507.742779","532274.739963","533041.334602","533807.90389","534574.284581","535340.966098","536108.087569","536857.899669","538399.706842","Mapping"
"Blocked","m160","tile","18","m160cave.wav","None","733.69304603","182","530758.434941","537624.485652","538390.865416","539158.103754","539924.55401","526108.097154","526874.902959","527624.664354","531507.742779","532274.739963","533041.334602","533807.90389","534574.284581","535340.966098","536108.087569","536857.899669","539162.190096","Mapping"
