"Condition","Talker","Target","Trial","current_stimulus","response_response","response_time_response","subject_nr","time_Audio1","time_Audio10","time_Audio11","time_Audio12","time_Audio13","time_Audio14","time_Audio15","time_Audio16","time_Audio2","time_Audio3","time_Audio4","time_Audio5","time_Audio6","time_Audio7","time_Audio8","time_Audio9","time_response","title"
"Mixed","Both","done","40","m160dime.wav","NA","NA","112","1174908.89439","NA","NA","NA","NA","NA","NA","NA","NA","NA","NA","NA","NA","NA","NA","NA","NA","Mapping"
"Mixed","Both","done","40","m150jolt.wav","space","717.034793925","112","1174908.89439","NA","NA","NA","NA","NA","NA","NA","1175676.11325","NA","NA","NA","NA","NA","NA","NA","1174922.77163","Mapping"
"Mixed","Both","done","40","m160done.wav","None","733.563811751","112","1174908.89439","NA","NA","NA","NA","NA","NA","NA","1175676.11325","1176442.31245","NA","NA","NA","NA","NA","NA","1175685.33186","Mapping"
"Mixed","Both","done","40","m150jaw.wav","space","580.132592004","112","1174908.89439","NA","NA","NA","NA","NA","NA","NA","1175676.11325","1176442.31245","1177208.95625","NA","NA","NA","NA","NA","1176451.64176","Mapping"
"Mixed","Both","done","40","m150bluff.wav","None","727.623667102","112","1174908.89439","NA","NA","NA","NA","NA","NA","NA","1175676.11325","1176442.31245","1177208.95625","1177975.76639","NA","NA","NA","NA","1177218.55701","Mapping"
"Mixed","Both","done","40","m150jaw.wav","None","725.053510163","112","1174908.89439","NA","NA","NA","NA","NA","NA","NA","1175676.11325","1176442.31245","1177208.95625","1177975.76639","1178742.74749","NA","NA","NA","1177984.83722","Mapping"
"Mixed","Both","done","40","m150done.wav","None","721.054973081","112","1174908.89439","NA","NA","NA","NA","NA","NA","NA","1175676.11325","1176442.31245","1177208.95625","1177975.76639","1178742.74749","1179492.45757","NA","NA","1178752.60424","Mapping"
"Mixed","Both","done","40","m160greet.wav","space","394.407304237","112","1174908.89439","NA","NA","NA","NA","NA","NA","NA","1175676.11325","1176442.31245","1177208.95625","1177975.76639","1178742.74749","1179492.45757","1180258.72386","NA","1179501.33207","Mapping"
"Mixed","Both","done","40","m150ball.wav","None","733.603076776","112","1174908.89439","NA","NA","NA","NA","NA","NA","NA","1175676.11325","1176442.31245","1177208.95625","1177975.76639","1178742.74749","1179492.45757","1180258.72386","1181025.66138","1180267.63578","Mapping"
"Mixed","Both","done","40","m160tile.wav","None","730.273281224","112","1174908.89439","1181792.32867","NA","NA","NA","NA","NA","NA","1175676.11325","1176442.31245","1177208.95625","1177975.76639","1178742.74749","1179492.45757","1180258.72386","1181025.66138","1181034.66883","Mapping"
"Mixed","Both","done","40","m160cling.wav","None","727.531224024","112","1174908.89439","1181792.32867","1182559.61802","NA","NA","NA","NA","NA","1175676.11325","1176442.31245","1177208.95625","1177975.76639","1178742.74749","1179492.45757","1180258.72386","1181025.66138","1181801.19112","Mapping"
"Mixed","Both","done","40","m150done.wav","None","722.810767824","112","1174908.89439","1181792.32867","1182559.61802","1183326.05931","NA","NA","NA","NA","1175676.11325","1176442.31245","1177208.95625","1177975.76639","1178742.74749","1179492.45757","1180258.72386","1181025.66138","1182569.46488","Mapping"
"Mixed","Both","done","40","m160greet.wav","space","383.924168302","112","1174908.89439","1181792.32867","1182559.61802","1183326.05931","1184075.81236","NA","NA","NA","1175676.11325","1176442.31245","1177208.95625","1177975.76639","1178742.74749","1179492.45757","1180258.72386","1181025.66138","1183335.74262","Mapping"
"Mixed","Both","done","40","m150cad.wav","None","734.442172805","112","1174908.89439","1181792.32867","1182559.61802","1183326.05931","1184075.81236","1184842.30034","NA","NA","1175676.11325","1176442.31245","1177208.95625","1177975.76639","1178742.74749","1179492.45757","1180258.72386","1181025.66138","1184084.95894","Mapping"
"Mixed","Both","done","40","m160done.wav","None","731.891802978","112","1174908.89439","1181792.32867","1182559.61802","1183326.05931","1184075.81236","1184842.30034","1185608.95959","NA","1175676.11325","1176442.31245","1177208.95625","1177975.76639","1178742.74749","1179492.45757","1180258.72386","1181025.66138","1184851.27471","Mapping"
"Mixed","Both","done","40","m160greet.wav","space","661.804402946","112","1174908.89439","1181792.32867","1182559.61802","1183326.05931","1184075.81236","1184842.30034","1185608.95959","1186375.69583","1175676.11325","1176442.31245","1177208.95625","1177975.76639","1178742.74749","1179492.45757","1180258.72386","1181025.66138","1185617.78989","Mapping"
"Mixed","Both","cave","22","m150knife.wav","None","725.541385356","112","1189542.81384","1181792.32867","1182559.61802","1183326.05931","1184075.81236","1184842.30034","1185608.95959","1186375.69583","1175676.11325","1176442.31245","1177208.95625","1177975.76639","1178742.74749","1179492.45757","1180258.72386","1181025.66138","1186384.70669","Mapping"
"Mixed","Both","cave","22","m160priest.wav","None","720.744254068","112","1189542.81384","1181792.32867","1182559.61802","1183326.05931","1184075.81236","1184842.30034","1185608.95959","1186375.69583","1190292.20639","1176442.31245","1177208.95625","1177975.76639","1178742.74749","1179492.45757","1180258.72386","1181025.66138","1189552.43222","Mapping"
"Mixed","Both","cave","22","m150cave.wav","None","735.357943689","112","1189542.81384","1181792.32867","1182559.61802","1183326.05931","1184075.81236","1184842.30034","1185608.95959","1186375.69583","1190292.20639","1191059.17359","1177208.95625","1177975.76639","1178742.74749","1179492.45757","1180258.72386","1181025.66138","1190301.70729","Mapping"
"Mixed","Both","cave","22","m150romp.wav","space","499.264322454","112","1189542.81384","1181792.32867","1182559.61802","1183326.05931","1184075.81236","1184842.30034","1185608.95959","1186375.69583","1190292.20639","1191059.17359","1191826.3303","1177975.76639","1178742.74749","1179492.45757","1180258.72386","1181025.66138","1191068.21443","Mapping"
"Mixed","Both","cave","22","m150greet.wav","None","729.559091153","112","1189542.81384","1181792.32867","1182559.61802","1183326.05931","1184075.81236","1184842.30034","1185608.95959","1186375.69583","1190292.20639","1191059.17359","1191826.3303","1192592.19251","1178742.74749","1179492.45757","1180258.72386","1181025.66138","1191835.21161","Mapping"
"Mixed","Both","cave","22","m150jolt.wav","None","727.416520938","112","1189542.81384","1181792.32867","1182559.61802","1183326.05931","1184075.81236","1184842.30034","1185608.95959","1186375.69583","1190292.20639","1191059.17359","1191826.3303","1192592.19251","1193359.30131","1179492.45757","1180258.72386","1181025.66138","1192601.0092","Mapping"
"Mixed","Both","cave","22","m150cave.wav","None","723.592048511","112","1189542.81384","1181792.32867","1182559.61802","1183326.05931","1184075.81236","1184842.30034","1185608.95959","1186375.69583","1190292.20639","1191059.17359","1191826.3303","1192592.19251","1193359.30131","1194126.02858","1180258.72386","1181025.66138","1193368.53538","Mapping"
"Mixed","Both","cave","22","m150ball.wav","space","311.987912515","112","1189542.81384","1181792.32867","1182559.61802","1183326.05931","1184075.81236","1184842.30034","1185608.95959","1186375.69583","1190292.20639","1191059.17359","1191826.3303","1192592.19251","1193359.30131","1194126.02858","1194875.50832","1181025.66138","1194135.47444","Mapping"
"Mixed","Both","cave","22","m160cave.wav","None","735.051553231","112","1189542.81384","1181792.32867","1182559.61802","1183326.05931","1184075.81236","1184842.30034","1185608.95959","1186375.69583","1190292.20639","1191059.17359","1191826.3303","1192592.19251","1193359.30131","1194126.02858","1194875.50832","1195642.43192","1194884.55782","Mapping"
"Mixed","Both","cave","22","m160knife.wav","space","627.819466405","112","1189542.81384","1196409.03398","1182559.61802","1183326.05931","1184075.81236","1184842.30034","1185608.95959","1186375.69583","1190292.20639","1191059.17359","1191826.3303","1192592.19251","1193359.30131","1194126.02858","1194875.50832","1195642.43192","1195651.62147","Mapping"
"Mixed","Both","cave","22","m160gnash.wav","None","728.110305732","112","1189542.81384","1196409.03398","1197175.34542","1183326.05931","1184075.81236","1184842.30034","1185608.95959","1186375.69583","1190292.20639","1191059.17359","1191826.3303","1192592.19251","1193359.30131","1194126.02858","1194875.50832","1195642.43192","1196418.76953","Mapping"
"Mixed","Both","cave","22","m160done.wav","None","726.414181292","112","1189542.81384","1196409.03398","1197175.34542","1197941.72085","1184075.81236","1184842.30034","1185608.95959","1186375.69583","1190292.20639","1191059.17359","1191826.3303","1192592.19251","1193359.30131","1194126.02858","1194875.50832","1195642.43192","1197184.17973","Mapping"
"Mixed","Both","cave","22","m160bluff.wav","None","727.259461069","112","1189542.81384","1196409.03398","1197175.34542","1197941.72085","1198709.54013","1184842.30034","1185608.95959","1186375.69583","1190292.20639","1191059.17359","1191826.3303","1192592.19251","1193359.30131","1194126.02858","1194875.50832","1195642.43192","1197950.41047","Mapping"
"Mixed","Both","cave","22","m160cave.wav","None","722.166141495","112","1189542.81384","1196409.03398","1197175.34542","1197941.72085","1198709.54013","1199476.04201","1185608.95959","1186375.69583","1190292.20639","1191059.17359","1191826.3303","1192592.19251","1193359.30131","1194126.02858","1194875.50832","1195642.43192","1198719.25713","Mapping"
"Mixed","Both","cave","22","m160priest.wav","space","497.604989912","112","1189542.81384","1196409.03398","1197175.34542","1197941.72085","1198709.54013","1199476.04201","1200225.50382","1186375.69583","1190292.20639","1191059.17359","1191826.3303","1192592.19251","1193359.30131","1194126.02858","1194875.50832","1195642.43192","1199485.77108","Mapping"
"Mixed","Both","cave","22","m150priest.wav","None","734.242446953","112","1189542.81384","1196409.03398","1197175.34542","1197941.72085","1198709.54013","1199476.04201","1200225.50382","1200992.26016","1190292.20639","1191059.17359","1191826.3303","1192592.19251","1193359.30131","1194126.02858","1194875.50832","1195642.43192","1200234.56631","Mapping"
"Mixed","Both","done","46","m160tile.wav","None","731.313958066","112","1204125.70519","1196409.03398","1197175.34542","1197941.72085","1198709.54013","1199476.04201","1200225.50382","1200992.26016","1190292.20639","1191059.17359","1191826.3303","1192592.19251","1193359.30131","1194126.02858","1194875.50832","1195642.43192","1201001.301","Mapping"
"Mixed","Both","done","46","m160cad.wav","None","720.4168397","112","1204125.70519","1196409.03398","1197175.34542","1197941.72085","1198709.54013","1199476.04201","1200225.50382","1200992.26016","1204875.21059","1191059.17359","1191826.3303","1192592.19251","1193359.30131","1194126.02858","1194875.50832","1195642.43192","1204135.31645","Mapping"
"Mixed","Both","done","46","m160tile.wav","None","735.297345789","112","1204125.70519","1196409.03398","1197175.34542","1197941.72085","1198709.54013","1199476.04201","1200225.50382","1200992.26016","1204875.21059","1205642.15243","1191826.3303","1192592.19251","1193359.30131","1194126.02858","1194875.50832","1195642.43192","1204884.23813","Mapping"
"Mixed","Both","done","46","m160depth.wav","None","732.248588931","112","1204125.70519","1196409.03398","1197175.34542","1197941.72085","1198709.54013","1199476.04201","1200225.50382","1200992.26016","1204875.21059","1205642.15243","1206408.82591","1192592.19251","1193359.30131","1194126.02858","1194875.50832","1195642.43192","1205651.1908","Mapping"
"Mixed","Both","done","46","m150gnash.wav","None","729.034115095","112","1204125.70519","1196409.03398","1197175.34542","1197941.72085","1198709.54013","1199476.04201","1200225.50382","1200992.26016","1204875.21059","1205642.15243","1206408.82591","1207175.46105","1193359.30131","1194126.02858","1194875.50832","1195642.43192","1206418.12614","Mapping"
"Mixed","Both","done","46","m160done.wav","None","725.931871217","112","1204125.70519","1196409.03398","1197175.34542","1197941.72085","1198709.54013","1199476.04201","1200225.50382","1200992.26016","1204875.21059","1205642.15243","1206408.82591","1207175.46105","1207942.3967","1194126.02858","1194875.50832","1195642.43192","1207185.11034","Mapping"
"Mixed","Both","done","46","m160dime.wav","space","399.307699408","112","1204125.70519","1196409.03398","1197175.34542","1197941.72085","1198709.54013","1199476.04201","1200225.50382","1200992.26016","1204875.21059","1205642.15243","1206408.82591","1207175.46105","1207942.3967","1208709.40625","1194875.50832","1195642.43192","1207951.87101","Mapping"
"Mixed","Both","done","46","m150done.wav","None","719.233324751","112","1204125.70519","1196409.03398","1197175.34542","1197941.72085","1198709.54013","1199476.04201","1200225.50382","1200992.26016","1204875.21059","1205642.15243","1206408.82591","1207175.46105","1207942.3967","1208709.40625","1209458.66463","1195642.43192","1208719.19684","Mapping"
"Mixed","Both","done","46","m150cad.wav","space","539.395003812","112","1204125.70519","1196409.03398","1197175.34542","1197941.72085","1198709.54013","1199476.04201","1200225.50382","1200992.26016","1204875.21059","1205642.15243","1206408.82591","1207175.46105","1207942.3967","1208709.40625","1209458.66463","1210225.17424","1209467.79327","Mapping"
"Mixed","Both","done","46","m150greet.wav","None","731.681256089","112","1204125.70519","1210992.0595","1197175.34542","1197941.72085","1198709.54013","1199476.04201","1200225.50382","1200992.26016","1204875.21059","1205642.15243","1206408.82591","1207175.46105","1207942.3967","1208709.40625","1209458.66463","1210225.17424","1210234.04659","Mapping"
"Mixed","Both","done","46","m160done.wav","None","728.562935023","112","1204125.70519","1210992.0595","1211758.77287","1197941.72085","1198709.54013","1199476.04201","1200225.50382","1200992.26016","1204875.21059","1205642.15243","1206408.82591","1207175.46105","1207942.3967","1208709.40625","1209458.66463","1210225.17424","1211001.10035","Mapping"
"Mixed","Both","done","46","m160gnash.wav","None","725.657325238","112","1204125.70519","1210992.0595","1211758.77287","1212525.82539","1198709.54013","1199476.04201","1200225.50382","1200992.26016","1204875.21059","1205642.15243","1206408.82591","1207175.46105","1207942.3967","1208709.40625","1209458.66463","1210225.17424","1211768.16091","Mapping"
"Mixed","Both","done","46","m150done.wav","None","722.170779249","112","1204125.70519","1210992.0595","1211758.77287","1212525.82539","1213292.51928","1199476.04201","1200225.50382","1200992.26016","1204875.21059","1205642.15243","1206408.82591","1207175.46105","1207942.3967","1208709.40625","1209458.66463","1210225.17424","1212535.50684","Mapping"
"Mixed","Both","done","46","m150park.wav","space","601.190069458","112","1204125.70519","1210992.0595","1211758.77287","1212525.82539","1213292.51928","1214041.97397","1200225.50382","1200992.26016","1204875.21059","1205642.15243","1206408.82591","1207175.46105","1207942.3967","1208709.40625","1209458.66463","1210225.17424","1213301.98276","Mapping"
"Mixed","Both","done","46","m150priest.wav","None","734.39208651","112","1204125.70519","1210992.0595","1211758.77287","1212525.82539","1213292.51928","1214041.97397","1214808.71949","1200992.26016","1204875.21059","1205642.15243","1206408.82591","1207175.46105","1207942.3967","1208709.40625","1209458.66463","1210225.17424","1214051.00709","Mapping"
"Mixed","Both","done","46","m150lash.wav","None","731.209766818","112","1204125.70519","1210992.0595","1211758.77287","1212525.82539","1213292.51928","1214041.97397","1214808.71949","1215575.31907","1204875.21059","1205642.15243","1206408.82591","1207175.46105","1207942.3967","1208709.40625","1209458.66463","1210225.17424","1214818.08651","Mapping"
"Mixed","Both","ball","10","m160depth.wav","None","728.918793378","112","1218708.97527","1210992.0595","1211758.77287","1212525.82539","1213292.51928","1214041.97397","1214808.71949","1215575.31907","1204875.21059","1205642.15243","1206408.82591","1207175.46105","1207942.3967","1208709.40625","1209458.66463","1210225.17424","1215584.41897","Mapping"
"Mixed","Both","ball","10","m160ball.wav","None","719.603095669","112","1218708.97527","1210992.0595","1211758.77287","1212525.82539","1213292.51928","1214041.97397","1214808.71949","1215575.31907","1219458.45779","1205642.15243","1206408.82591","1207175.46105","1207942.3967","1208709.40625","1209458.66463","1210225.17424","1218718.88736","Mapping"
"Mixed","Both","ball","10","m150knife.wav","space","491.348870099","112","1218708.97527","1210992.0595","1211758.77287","1212525.82539","1213292.51928","1214041.97397","1214808.71949","1215575.31907","1219458.45779","1220225.39716","1206408.82591","1207175.46105","1207942.3967","1208709.40625","1209458.66463","1210225.17424","1219467.61395","Mapping"
"Mixed","Both","ball","10","m150ball.wav","None","731.505954871","112","1218708.97527","1210992.0595","1211758.77287","1212525.82539","1213292.51928","1214041.97397","1214808.71949","1215575.31907","1219458.45779","1220225.39716","1220991.95346","1207175.46105","1207942.3967","1208709.40625","1209458.66463","1210225.17424","1220234.48963","Mapping"
"Mixed","Both","ball","10","m150depth.wav","space","547.336117364","112","1218708.97527","1210992.0595","1211758.77287","1212525.82539","1213292.51928","1214041.97397","1214808.71949","1215575.31907","1219458.45779","1220225.39716","1220991.95346","1221758.58551","1207942.3967","1208709.40625","1209458.66463","1210225.17424","1220995.62922","Mapping"
"Mixed","Both","ball","10","m150knife.wav","None","725.636301795","112","1218708.97527","1210992.0595","1211758.77287","1212525.82539","1213292.51928","1214041.97397","1214808.71949","1215575.31907","1219458.45779","1220225.39716","1220991.95346","1221758.58551","1222525.49118","1208709.40625","1209458.66463","1210225.17424","1221767.98654","Mapping"
"Mixed","Both","ball","10","m160cling.wav","None","722.772121197","112","1218708.97527","1210992.0595","1211758.77287","1212525.82539","1213292.51928","1214041.97397","1214808.71949","1215575.31907","1219458.45779","1220225.39716","1220991.95346","1221758.58551","1222525.49118","1223292.21598","1209458.66463","1210225.17424","1222534.88046","Mapping"
"Mixed","Both","ball","10","m160ball.wav","None","719.91721564","112","1218708.97527","1210992.0595","1211758.77287","1212525.82539","1213292.51928","1214041.97397","1214808.71949","1215575.31907","1219458.45779","1220225.39716","1220991.95346","1221758.58551","1222525.49118","1223292.21598","1224041.67717","1210225.17424","1223301.68348","Mapping"
"Mixed","Both","ball","10","m160lash.wav","space","444.16842144","112","1218708.97527","1210992.0595","1211758.77287","1212525.82539","1213292.51928","1214041.97397","1214808.71949","1215575.31907","1219458.45779","1220225.39716","1220991.95346","1221758.58551","1222525.49118","1223292.21598","1224041.67717","1224808.28572","1224050.75851","Mapping"
"Mixed","Both","ball","10","m150jolt.wav","None","731.902314816","112","1218708.97527","1225575.1311","1211758.77287","1212525.82539","1213292.51928","1214041.97397","1214808.71949","1215575.31907","1219458.45779","1220225.39716","1220991.95346","1221758.58551","1222525.49118","1223292.21598","1224041.67717","1224808.28572","1224817.31388","Mapping"
"Mixed","Both","ball","10","m150reek.wav","None","728.952184087","112","1218708.97527","1225575.1311","1226341.7987","1212525.82539","1213292.51928","1214041.97397","1214808.71949","1215575.31907","1219458.45779","1220225.39716","1220991.95346","1221758.58551","1222525.49118","1223292.21598","1224041.67717","1224808.28572","1225584.28541","Mapping"
"Mixed","Both","ball","10","m160knife.wav","None","725.980720716","112","1218708.97527","1225575.1311","1226341.7987","1227108.69664","1213292.51928","1214041.97397","1214808.71949","1215575.31907","1219458.45779","1220225.39716","1220991.95346","1221758.58551","1222525.49118","1223292.21598","1224041.67717","1224808.28572","1226351.19417","Mapping"
"Mixed","Both","ball","10","m160park.wav","None","723.406544421","112","1218708.97527","1225575.1311","1226341.7987","1227108.69664","1227875.04178","1214041.97397","1214808.71949","1215575.31907","1219458.45779","1220225.39716","1220991.95346","1221758.58551","1222525.49118","1223292.21598","1224041.67717","1224808.28572","1227117.71089","Mapping"
"Mixed","Both","ball","10","m150jaw.wav","None","720.880290261","112","1218708.97527","1225575.1311","1226341.7987","1227108.69664","1227875.04178","1228624.52152","1214808.71949","1215575.31907","1219458.45779","1220225.39716","1220991.95346","1221758.58551","1222525.49118","1223292.21598","1224041.67717","1224808.28572","1227884.61934","Mapping"
"Mixed","Both","ball","10","m150ball.wav","None","736.090993509","112","1218708.97527","1225575.1311","1226341.7987","1227108.69664","1227875.04178","1228624.52152","1229391.79572","1215575.31907","1219458.45779","1220225.39716","1220991.95346","1221758.58551","1222525.49118","1223292.21598","1224041.67717","1224808.28572","1228633.46002","Mapping"
"Mixed","Both","ball","10","m160tile.wav","space","486.444764771","112","1218708.97527","1225575.1311","1226341.7987","1227108.69664","1227875.04178","1228624.52152","1229391.79572","1230158.18476","1219458.45779","1220225.39716","1220991.95346","1221758.58551","1222525.49118","1223292.21598","1224041.67717","1224808.28572","1229400.38764","Mapping"
"Mixed","Both","cave","24","m160ball.wav","None","733.424374368","112","1233291.9606","1225575.1311","1226341.7987","1227108.69664","1227875.04178","1228624.52152","1229391.79572","1230158.18476","1219458.45779","1220225.39716","1220991.95346","1221758.58551","1222525.49118","1223292.21598","1224041.67717","1224808.28572","1230167.276","Mapping"
"Mixed","Both","cave","24","m160park.wav","None","721.12670145","112","1233291.9606","1225575.1311","1226341.7987","1227108.69664","1227875.04178","1228624.52152","1229391.79572","1230158.18476","1234041.38994","1220225.39716","1220991.95346","1221758.58551","1222525.49118","1223292.21598","1224041.67717","1224808.28572","1233301.50354","Mapping"
"Mixed","Both","cave","24","m160cave.wav","None","736.002260819","112","1233291.9606","1225575.1311","1226341.7987","1227108.69664","1227875.04178","1228624.52152","1229391.79572","1230158.18476","1234041.38994","1234808.36487","1220991.95346","1221758.58551","1222525.49118","1223292.21598","1224041.67717","1224808.28572","1234050.61969","Mapping"
"Mixed","Both","cave","24","m160tile.wav","space","557.152057299","112","1233291.9606","1225575.1311","1226341.7987","1227108.69664","1227875.04178","1228624.52152","1229391.79572","1230158.18476","1234041.38994","1234808.36487","1235574.71804","1221758.58551","1222525.49118","1223292.21598","1224041.67717","1224808.28572","1234817.56926","Mapping"
"Mixed","Both","cave","24","m150cave.wav","None","730.338516878","112","1233291.9606","1225575.1311","1226341.7987","1227108.69664","1227875.04178","1228624.52152","1229391.79572","1230158.18476","1234041.38994","1234808.36487","1235574.71804","1236341.58754","1222525.49118","1223292.21598","1224041.67717","1224808.28572","1235583.7122","Mapping"
"Mixed","Both","cave","24","m160cad.wav","space","592.08739223","112","1233291.9606","1225575.1311","1226341.7987","1227108.69664","1227875.04178","1228624.52152","1229391.79572","1230158.18476","1234041.38994","1234808.36487","1235574.71804","1236341.58754","1237108.51948","1223292.21598","1224041.67717","1224808.28572","1236350.6157","Mapping"
"Mixed","Both","cave","24","m160gnash.wav","None","723.805068759","112","1233291.9606","1225575.1311","1226341.7987","1227108.69664","1227875.04178","1228624.52152","1229391.79572","1230158.18476","1234041.38994","1234808.36487","1235574.71804","1236341.58754","1237108.51948","1237874.96665","1224041.67717","1224808.28572","1237117.63886","Mapping"
"Mixed","Both","cave","24","m150cad.wav","None","721.098257462","112","1233291.9606","1225575.1311","1226341.7987","1227108.69664","1227875.04178","1228624.52152","1229391.79572","1230158.18476","1234041.38994","1234808.36487","1235574.71804","1236341.58754","1237108.51948","1237874.96665","1238624.38424","1224808.28572","1237884.4966","Mapping"
"Mixed","Both","cave","24","m150cave.wav","None","736.370485974","112","1233291.9606","1225575.1311","1226341.7987","1227108.69664","1227875.04178","1228624.52152","1229391.79572","1230158.18476","1234041.38994","1234808.36487","1235574.71804","1236341.58754","1237108.51948","1237874.96665","1238624.38424","1239391.33196","1238633.33666","Mapping"
"Mixed","Both","cave","24","m150bluff.wav","space","686.360793421","112","1233291.9606","1240158.00111","1226341.7987","1227108.69664","1227875.04178","1228624.52152","1229391.79572","1230158.18476","1234041.38994","1234808.36487","1235574.71804","1236341.58754","1237108.51948","1237874.96665","1238624.38424","1239391.33196","1239400.28252","Mapping"
"Mixed","Both","cave","24","m150park.wav","None","730.504852021","112","1233291.9606","1240158.00111","1240924.58616","1227108.69664","1227875.04178","1228624.52152","1229391.79572","1230158.18476","1234041.38994","1234808.36487","1235574.71804","1236341.58754","1237108.51948","1237874.96665","1238624.38424","1239391.33196","1240166.70835","Mapping"
"Mixed","Both","cave","24","m160knife.wav","None","727.624594467","112","1233291.9606","1240158.00111","1240924.58616","1241691.95806","1227875.04178","1228624.52152","1229391.79572","1230158.18476","1234041.38994","1234808.36487","1235574.71804","1236341.58754","1237108.51948","1237874.96665","1238624.38424","1239391.33196","1240933.61526","Mapping"
"Mixed","Both","cave","24","m150dime.wav","None","723.727466306","112","1233291.9606","1240158.00111","1240924.58616","1241691.95806","1242458.10873","1228624.52152","1229391.79572","1230158.18476","1234041.38994","1234808.36487","1235574.71804","1236341.58754","1237108.51948","1237874.96665","1238624.38424","1239391.33196","1241701.56933","Mapping"
"Mixed","Both","cave","24","m160cave.wav","None","722.074935446","112","1233291.9606","1240158.00111","1240924.58616","1241691.95806","1242458.10873","1243207.96535","1229391.79572","1230158.18476","1234041.38994","1234808.36487","1235574.71804","1236341.58754","1237108.51948","1237874.96665","1238624.38424","1239391.33196","1242467.3493","Mapping"
"Mixed","Both","cave","24","m150ball.wav","space","613.762597553","112","1233291.9606","1240158.00111","1240924.58616","1241691.95806","1242458.10873","1243207.96535","1243974.51516","1230158.18476","1234041.38994","1234808.36487","1235574.71804","1236341.58754","1237108.51948","1237874.96665","1238624.38424","1239391.33196","1243216.82193","Mapping"
"Mixed","Both","cave","24","m150cad.wav","None","733.44663484","112","1233291.9606","1240158.00111","1240924.58616","1241691.95806","1242458.10873","1243207.96535","1243974.51516","1244741.46782","1234041.38994","1234808.36487","1235574.71804","1236341.58754","1237108.51948","1237874.96665","1238624.38424","1239391.33196","1243983.4985","Mapping"
"Mixed","Both","tile","35","m150romp.wav","None","730.529895052","112","1247874.96541","1240158.00111","1240924.58616","1241691.95806","1242458.10873","1243207.96535","1243974.51516","1244741.46782","1234041.38994","1234808.36487","1235574.71804","1236341.58754","1237108.51948","1237874.96665","1238624.38424","1239391.33196","1244750.53928","Mapping"
"Mixed","Both","tile","35","m160tile.wav","None","720.144767314","112","1247874.96541","1240158.00111","1240924.58616","1241691.95806","1242458.10873","1243207.96535","1243974.51516","1244741.46782","1248624.49431","1234808.36487","1235574.71804","1236341.58754","1237108.51948","1237874.96665","1238624.38424","1239391.33196","1247884.86514","Mapping"
"Mixed","Both","tile","35","m150jaw.wav","space","500.54491777","112","1247874.96541","1240158.00111","1240924.58616","1241691.95806","1242458.10873","1243207.96535","1243974.51516","1244741.46782","1248624.49431","1249391.27569","1235574.71804","1236341.58754","1237108.51948","1237874.96665","1238624.38424","1239391.33196","1248633.94635","Mapping"
"Mixed","Both","tile","35","m150tile.wav","None","732.776347548","112","1247874.96541","1240158.00111","1240924.58616","1241691.95806","1242458.10873","1243207.96535","1243974.51516","1244741.46782","1248624.49431","1249391.27569","1250158.02739","1236341.58754","1237108.51948","1237874.96665","1238624.38424","1239391.33196","1249400.15947","Mapping"
"Mixed","Both","tile","35","m150bluff.wav","space","439.196297899","112","1247874.96541","1240158.00111","1240924.58616","1241691.95806","1242458.10873","1243207.96535","1243974.51516","1244741.46782","1248624.49431","1249391.27569","1250158.02739","1250924.77167","1237108.51948","1237874.96665","1238624.38424","1239391.33196","1250167.27352","Mapping"
"Mixed","Both","tile","35","m160dime.wav","None","726.750252768","112","1247874.96541","1240158.00111","1240924.58616","1241691.95806","1242458.10873","1243207.96535","1243974.51516","1244741.46782","1248624.49431","1249391.27569","1250158.02739","1250924.77167","1251691.40866","1237874.96665","1238624.38424","1239391.33196","1250933.87125","Mapping"
"Mixed","Both","tile","35","m160bluff.wav","None","724.376111757","112","1247874.96541","1240158.00111","1240924.58616","1241691.95806","1242458.10873","1243207.96535","1243974.51516","1244741.46782","1248624.49431","1249391.27569","1250158.02739","1250924.77167","1251691.40866","1252458.30691","1238624.38424","1239391.33196","1251700.34346","Mapping"
"Mixed","Both","tile","35","m150tile.wav","None","721.004577819","112","1247874.96541","1240158.00111","1240924.58616","1241691.95806","1242458.10873","1243207.96535","1243974.51516","1244741.46782","1248624.49431","1249391.27569","1250158.02739","1250924.77167","1251691.40866","1252458.30691","1253208.25165","1239391.33196","1252467.91942","Mapping"
"Mixed","Both","tile","35","m150dime.wav","space","460.972912377","112","1247874.96541","1240158.00111","1240924.58616","1241691.95806","1242458.10873","1243207.96535","1243974.51516","1244741.46782","1248624.49431","1249391.27569","1250158.02739","1250924.77167","1251691.40866","1252458.30691","1253208.25165","1253974.6073","1253217.40812","Mapping"
"Mixed","Both","tile","35","m150dime.wav","None","732.597027207","112","1247874.96541","1254741.28727","1240924.58616","1241691.95806","1242458.10873","1243207.96535","1243974.51516","1244741.46782","1248624.49431","1249391.27569","1250158.02739","1250924.77167","1251691.40866","1252458.30691","1253208.25165","1253974.6073","1253984.25783","Mapping"
"Mixed","Both","tile","35","m160jaw.wav","None","730.929655954","112","1247874.96541","1254741.28727","1255507.85965","1241691.95806","1242458.10873","1243207.96535","1243974.51516","1244741.46782","1248624.49431","1249391.27569","1250158.02739","1250924.77167","1251691.40866","1252458.30691","1253208.25165","1253974.6073","1254750.38067","Mapping"
"Mixed","Both","tile","35","m150bluff.wav","None","728.238612413","112","1247874.96541","1254741.28727","1255507.85965","1256274.44254","1242458.10873","1243207.96535","1243974.51516","1244741.46782","1248624.49431","1249391.27569","1250158.02739","1250924.77167","1251691.40866","1252458.30691","1253208.25165","1253974.6073","1255517.31725","Mapping"
"Mixed","Both","tile","35","m160tile.wav","None","726.354820188","112","1247874.96541","1254741.28727","1255507.85965","1256274.44254","1257041.63079","1243207.96535","1243974.51516","1244741.46782","1248624.49431","1249391.27569","1250158.02739","1250924.77167","1251691.40866","1252458.30691","1253208.25165","1253974.6073","1256283.45463","Mapping"
"Mixed","Both","tile","35","m160park.wav","space","514.87045805","112","1247874.96541","1254741.28727","1255507.85965","1256274.44254","1257041.63079","1257808.07981","1243974.51516","1244741.46782","1248624.49431","1249391.27569","1250158.02739","1250924.77167","1251691.40866","1252458.30691","1253208.25165","1253974.6073","1257051.46713","Mapping"
"Mixed","Both","tile","35","m160reek.wav","None","720.359024359","112","1247874.96541","1254741.28727","1255507.85965","1256274.44254","1257041.63079","1257808.07981","1258557.69466","1244741.46782","1248624.49431","1249391.27569","1250158.02739","1250924.77167","1251691.40866","1252458.30691","1253208.25165","1253974.6073","1257817.26256","Mapping"
"Mixed","Both","tile","35","m160jaw.wav","None","735.083397944","112","1247874.96541","1254741.28727","1255507.85965","1256274.44254","1257041.63079","1257808.07981","1258557.69466","1259324.23581","1248624.49431","1249391.27569","1250158.02739","1250924.77167","1251691.40866","1252458.30691","1253208.25165","1253974.6073","1258566.80197","Mapping"
"Mixed","Both","ball","6","m160bluff.wav","None","733.04625554","112","1262458.11893","1254741.28727","1255507.85965","1256274.44254","1257041.63079","1257808.07981","1258557.69466","1259324.23581","1248624.49431","1249391.27569","1250158.02739","1250924.77167","1251691.40866","1252458.30691","1253208.25165","1253974.6073","1259333.13505","Mapping"
"Mixed","Both","ball","6","m150tile.wav","None","720.037793275","112","1262458.11893","1254741.28727","1255507.85965","1256274.44254","1257041.63079","1257808.07981","1258557.69466","1259324.23581","1263207.57023","1249391.27569","1250158.02739","1250924.77167","1251691.40866","1252458.30691","1253208.25165","1253974.6073","1262467.69372","Mapping"
"Mixed","Both","ball","6","m150tile.wav","None","735.341866734","112","1262458.11893","1254741.28727","1255507.85965","1256274.44254","1257041.63079","1257808.07981","1258557.69466","1259324.23581","1263207.57023","1263974.53433","1250158.02739","1250924.77167","1251691.40866","1252458.30691","1253208.25165","1253974.6073","1263216.63117","Mapping"
"Mixed","Both","ball","6","m160romp.wav","space","54.5390800107","112","1262458.11893","1254741.28727","1255507.85965","1256274.44254","1257041.63079","1257808.07981","1258557.69466","1259324.23581","1263207.57023","1263974.53433","1264741.12217","1250924.77167","1251691.40866","1252458.30691","1253208.25165","1253974.6073","1263983.64814","Mapping"
"Mixed","Both","ball","6","m160ball.wav","None","729.173243046","112","1262458.11893","1254741.28727","1255507.85965","1256274.44254","1257041.63079","1257808.07981","1258557.69466","1259324.23581","1263207.57023","1263974.53433","1264741.12217","1265507.54614","1251691.40866","1252458.30691","1253208.25165","1253974.6073","1264750.53402","Mapping"
"Mixed","Both","ball","6","m160cling.wav","space","577.835744247","112","1262458.11893","1254741.28727","1255507.85965","1256274.44254","1257041.63079","1257808.07981","1258557.69466","1259324.23581","1263207.57023","1263974.53433","1264741.12217","1265507.54614","1266274.14635","1252458.30691","1253208.25165","1253974.6073","1265516.32264","Mapping"
"Mixed","Both","ball","6","m160ball.wav","None","724.941589404","112","1262458.11893","1254741.28727","1255507.85965","1256274.44254","1257041.63079","1257808.07981","1258557.69466","1259324.23581","1263207.57023","1263974.53433","1264741.12217","1265507.54614","1266274.14635","1267041.33893","1253208.25165","1253974.6073","1266283.14267","Mapping"
"Mixed","Both","ball","6","m160greet.wav","None","721.459371736","112","1262458.11893","1254741.28727","1255507.85965","1256274.44254","1257041.63079","1257808.07981","1258557.69466","1259324.23581","1263207.57023","1263974.53433","1264741.12217","1265507.54614","1266274.14635","1267041.33893","1267791.25739","1253974.6073","1267050.84415","Mapping"
"Mixed","Both","ball","6","m150dime.wav","space","0.0522502232343","112","1262458.11893","1254741.28727","1255507.85965","1256274.44254","1257041.63079","1257808.07981","1258557.69466","1259324.23581","1263207.57023","1263974.53433","1264741.12217","1265507.54614","1266274.14635","1267041.33893","1267791.25739","1268557.67394","1267800.88689","Mapping"
"Mixed","Both","ball","6","m160knife.wav","None","732.896306785","112","1262458.11893","1269324.25591","1255507.85965","1256274.44254","1257041.63079","1257808.07981","1258557.69466","1259324.23581","1263207.57023","1263974.53433","1264741.12217","1265507.54614","1266274.14635","1267041.33893","1267791.25739","1268557.67394","1268567.08548","Mapping"
"Mixed","Both","ball","6","m150cad.wav","None","730.946969707","112","1262458.11893","1269324.25591","1270091.05522","1256274.44254","1257041.63079","1257808.07981","1258557.69466","1259324.23581","1263207.57023","1263974.53433","1264741.12217","1265507.54614","1266274.14635","1267041.33893","1267791.25739","1268557.67394","1269333.2411","Mapping"
"Mixed","Both","ball","6","m160park.wav","None","728.33321942","112","1262458.11893","1269324.25591","1270091.05522","1270857.57844","1257041.63079","1257808.07981","1258557.69466","1259324.23581","1263207.57023","1263974.53433","1264741.12217","1265507.54614","1266274.14635","1267041.33893","1267791.25739","1268557.67394","1270100.09451","Mapping"
"Mixed","Both","ball","6","m150ball.wav","None","725.311978953","112","1262458.11893","1269324.25591","1270091.05522","1270857.57844","1271624.77627","1257808.07981","1258557.69466","1259324.23581","1263207.57023","1263974.53433","1264741.12217","1265507.54614","1266274.14635","1267041.33893","1267791.25739","1268557.67394","1270867.30317","Mapping"
"Mixed","Both","ball","6","m150reek.wav","space","483.673336217","112","1262458.11893","1269324.25591","1270091.05522","1270857.57844","1271624.77627","1272391.32299","1258557.69466","1259324.23581","1263207.57023","1263974.53433","1264741.12217","1265507.54614","1266274.14635","1267041.33893","1267791.25739","1268557.67394","1271634.37023","Mapping"
"Mixed","Both","ball","6","m150ball.wav","None","719.302888494","112","1262458.11893","1269324.25591","1270091.05522","1270857.57844","1271624.77627","1272391.32299","1273140.89054","1259324.23581","1263207.57023","1263974.53433","1264741.12217","1265507.54614","1266274.14635","1267041.33893","1267791.25739","1268557.67394","1272401.15841","Mapping"
"Mixed","Both","ball","6","m150jolt.wav","space","663.863496389","112","1262458.11893","1269324.25591","1270091.05522","1270857.57844","1271624.77627","1272391.32299","1273140.89054","1273907.39521","1263207.57023","1263974.53433","1264741.12217","1265507.54614","1266274.14635","1267041.33893","1267791.25739","1268557.67394","1273150.20963","Mapping"
"Mixed","Both","ball","9","m150bluff.wav","None","731.813891325","112","1277041.21773","1269324.25591","1270091.05522","1270857.57844","1271624.77627","1272391.32299","1273140.89054","1273907.39521","1263207.57023","1263974.53433","1264741.12217","1265507.54614","1266274.14635","1267041.33893","1267791.25739","1268557.67394","1273916.27899","Mapping"
"Mixed","Both","ball","9","m150ball.wav","None","720.468162326","112","1277041.21773","1269324.25591","1270091.05522","1270857.57844","1271624.77627","1272391.32299","1273140.89054","1273907.39521","1277790.54474","1263974.53433","1264741.12217","1265507.54614","1266274.14635","1267041.33893","1267791.25739","1268557.67394","1277050.91","Mapping"
"Mixed","Both","ball","9","m160reek.wav","space","485.982860206","112","1277041.21773","1269324.25591","1270091.05522","1270857.57844","1271624.77627","1272391.32299","1273140.89054","1273907.39521","1277790.54474","1278557.31994","1264741.12217","1265507.54614","1266274.14635","1267041.33893","1267791.25739","1268557.67394","1277799.96339","Mapping"
"Mixed","Both","ball","9","m160depth.wav","None","732.790878741","112","1277041.21773","1269324.25591","1270091.05522","1270857.57844","1271624.77627","1272391.32299","1273140.89054","1273907.39521","1277790.54474","1278557.31994","1279323.858","1265507.54614","1266274.14635","1267041.33893","1267791.25739","1268557.67394","1278566.40437","Mapping"
"Mixed","Both","ball","9","m160greet.wav","None","730.8523627","112","1277041.21773","1269324.25591","1270091.05522","1270857.57844","1271624.77627","1272391.32299","1273140.89054","1273907.39521","1277790.54474","1278557.31994","1279323.858","1280090.8827","1266274.14635","1267041.33893","1267791.25739","1268557.67394","1279332.69912","Mapping"
"Mixed","Both","ball","9","m160jaw.wav","None","728.154208045","112","1277041.21773","1269324.25591","1270091.05522","1270857.57844","1271624.77627","1272391.32299","1273140.89054","1273907.39521","1277790.54474","1278557.31994","1279323.858","1280090.8827","1280857.57102","1267041.33893","1267791.25739","1268557.67394","1280099.92818","Mapping"
"Mixed","Both","ball","9","m160ball.wav","None","725.140387891","112","1277041.21773","1269324.25591","1270091.05522","1270857.57844","1271624.77627","1272391.32299","1273140.89054","1273907.39521","1277790.54474","1278557.31994","1279323.858","1280090.8827","1280857.57102","1281624.97662","1267791.25739","1268557.67394","1280867.27071","Mapping"
"Mixed","Both","ball","9","m160priest.wav","space","403.588511515","112","1277041.21773","1269324.25591","1270091.05522","1270857.57844","1271624.77627","1272391.32299","1273140.89054","1273907.39521","1277790.54474","1278557.31994","1279323.858","1280090.8827","1280857.57102","1281624.97662","1282391.2559","1268557.67394","1281634.29788","Mapping"
"Mixed","Both","ball","9","m160jolt.wav","None","719.477880746","112","1277041.21773","1269324.25591","1270091.05522","1270857.57844","1271624.77627","1272391.32299","1273140.89054","1273907.39521","1277790.54474","1278557.31994","1279323.858","1280090.8827","1280857.57102","1281624.97662","1282391.2559","1283140.40637","1282401.02948","Mapping"
"Mixed","Both","ball","9","m150ball.wav","None","735.51283963","112","1277041.21773","1283907.39799","1270091.05522","1270857.57844","1271624.77627","1272391.32299","1273140.89054","1273907.39521","1277790.54474","1278557.31994","1279323.858","1280090.8827","1280857.57102","1281624.97662","1282391.2559","1283140.40637","1283149.37703","Mapping"
"Mixed","Both","ball","9","m150park.wav","space","512.702844571","112","1277041.21773","1283907.39799","1284674.09651","1270857.57844","1271624.77627","1272391.32299","1273140.89054","1273907.39521","1277790.54474","1278557.31994","1279323.858","1280090.8827","1280857.57102","1281624.97662","1282391.2559","1283140.40637","1283917.12612","Mapping"
"Mixed","Both","ball","9","m150gnash.wav","None","729.144180659","112","1277041.21773","1283907.39799","1284674.09651","1285440.76288","1271624.77627","1272391.32299","1273140.89054","1273907.39521","1277790.54474","1278557.31994","1279323.858","1280090.8827","1280857.57102","1281624.97662","1282391.2559","1283140.40637","1284683.49383","Mapping"
"Mixed","Both","ball","9","m160ball.wav","None","727.179075824","112","1277041.21773","1283907.39799","1284674.09651","1285440.76288","1286207.18376","1272391.32299","1273140.89054","1273907.39521","1277790.54474","1278557.31994","1279323.858","1280090.8827","1280857.57102","1281624.97662","1282391.2559","1283140.40637","1285449.77311","Mapping"
"Mixed","Both","ball","9","m150cad.wav","space","517.867892049","112","1277041.21773","1283907.39799","1284674.09651","1285440.76288","1286207.18376","1286974.33739","1273140.89054","1273907.39521","1277790.54474","1278557.31994","1279323.858","1280090.8827","1280857.57102","1281624.97662","1282391.2559","1283140.40637","1286215.94573","Mapping"
"Mixed","Both","ball","9","m150gnash.wav","None","720.913062803","112","1277041.21773","1283907.39799","1284674.09651","1285440.76288","1286207.18376","1286974.33739","1287723.63842","1273907.39521","1277790.54474","1278557.31994","1279323.858","1280090.8827","1280857.57102","1281624.97662","1282391.2559","1283140.40637","1286983.87785","Mapping"
"Mixed","Both","ball","9","m150greet.wav","None","736.598346615","112","1277041.21773","1283907.39799","1284674.09651","1285440.76288","1286207.18376","1286974.33739","1287723.63842","1288490.70363","1277790.54474","1278557.31994","1279323.858","1280090.8827","1280857.57102","1281624.97662","1282391.2559","1283140.40637","1287732.51077","Mapping"
"Mixed","Both","tile","26","m150reek.wav","None","734.072401421","112","1291624.15267","1283907.39799","1284674.09651","1285440.76288","1286207.18376","1286974.33739","1287723.63842","1288490.70363","1277790.54474","1278557.31994","1279323.858","1280090.8827","1280857.57102","1281624.97662","1282391.2559","1283140.40637","1288499.68294","Mapping"
"Mixed","Both","tile","26","m150reek.wav","None","719.36255903","112","1291624.15267","1283907.39799","1284674.09651","1285440.76288","1286207.18376","1286974.33739","1287723.63842","1288490.70363","1292373.58789","1278557.31994","1279323.858","1280090.8827","1280857.57102","1281624.97662","1282391.2559","1283140.40637","1291635.00156","Mapping"
"Mixed","Both","tile","26","m160park.wav","None","736.219918588","112","1291624.15267","1283907.39799","1284674.09651","1285440.76288","1286207.18376","1286974.33739","1287723.63842","1288490.70363","1292373.58789","1293139.96549","1279323.858","1280090.8827","1280857.57102","1281624.97662","1282391.2559","1283140.40637","1292382.59936","Mapping"
"Mixed","Both","tile","26","m150tile.wav","None","737.194741843","112","1291624.15267","1283907.39799","1284674.09651","1285440.76288","1286207.18376","1286974.33739","1287723.63842","1288490.70363","1292373.58789","1293139.96549","1293906.93392","1280090.8827","1280857.57102","1281624.97662","1282391.2559","1283140.40637","1293148.62141","Mapping"
"Mixed","Both","tile","26","m160lash.wav","space","481.971337693","112","1291624.15267","1283907.39799","1284674.09651","1285440.76288","1286207.18376","1286974.33739","1287723.63842","1288490.70363","1292373.58789","1293139.96549","1293906.93392","1294673.80187","1280857.57102","1281624.97662","1282391.2559","1283140.40637","1293915.71135","Mapping"
"Mixed","Both","tile","26","m150reek.wav","None","731.144222198","112","1291624.15267","1283907.39799","1284674.09651","1285440.76288","1286207.18376","1286974.33739","1287723.63842","1288490.70363","1292373.58789","1293139.96549","1293906.93392","1294673.80187","1295440.5749","1281624.97662","1282391.2559","1283140.40637","1294682.77593","Mapping"
"Mixed","Both","tile","26","m160tile.wav","None","728.555514943","112","1291624.15267","1283907.39799","1284674.09651","1285440.76288","1286207.18376","1286974.33739","1287723.63842","1288490.70363","1292373.58789","1293139.96549","1293906.93392","1294673.80187","1295440.5749","1296207.14079","1282391.2559","1283140.40637","1295449.89091","Mapping"
"Mixed","Both","tile","26","m150cave.wav","space","605.065246345","112","1291624.15267","1283907.39799","1284674.09651","1285440.76288","1286207.18376","1286974.33739","1287723.63842","1288490.70363","1292373.58789","1293139.96549","1293906.93392","1294673.80187","1295440.5749","1296207.14079","1296973.99173","1283140.40637","1296216.55759","Mapping"
"Mixed","Both","tile","26","m150park.wav","None","723.27823774","112","1291624.15267","1283907.39799","1284674.09651","1285440.76288","1286207.18376","1286974.33739","1287723.63842","1288490.70363","1292373.58789","1293139.96549","1293906.93392","1294673.80187","1295440.5749","1296207.14079","1296973.99173","1297740.95769","1296983.23879","Mapping"
"Mixed","Both","tile","26","m160tile.wav","None","720.444974257","112","1291624.15267","1298490.23152","1284674.09651","1285440.76288","1286207.18376","1286974.33739","1287723.63842","1288490.70363","1292373.58789","1293139.96549","1293906.93392","1294673.80187","1295440.5749","1296207.14079","1296973.99173","1297740.95769","1297750.47218","Mapping"
"Mixed","Both","tile","26","m160reek.wav","None","736.402640119","112","1291624.15267","1298490.23152","1299257.13131","1285440.76288","1286207.18376","1286974.33739","1287723.63842","1288490.70363","1292373.58789","1293139.96549","1293906.93392","1294673.80187","1295440.5749","1296207.14079","1296973.99173","1297740.95769","1298499.20001","Mapping"
"Mixed","Both","tile","26","m160lash.wav","space","107.362248702","112","1291624.15267","1298490.23152","1299257.13131","1300023.48696","1286207.18376","1286974.33739","1287723.63842","1288490.70363","1292373.58789","1293139.96549","1293906.93392","1294673.80187","1295440.5749","1296207.14079","1296973.99173","1297740.95769","1299266.22255","Mapping"
"Mixed","Both","tile","26","m160park.wav","None","731.415058021","112","1291624.15267","1298490.23152","1299257.13131","1300023.48696","1300790.47734","1286974.33739","1287723.63842","1288490.70363","1292373.58789","1293139.96549","1293906.93392","1294673.80187","1295440.5749","1296207.14079","1296973.99173","1297740.95769","1300032.25326","Mapping"
"Mixed","Both","tile","26","m150tile.wav","None","728.104122216","112","1291624.15267","1298490.23152","1299257.13131","1300023.48696","1300790.47734","1301557.10383","1287723.63842","1288490.70363","1292373.58789","1293139.96549","1293906.93392","1294673.80187","1295440.5749","1296207.14079","1296973.99173","1297740.95769","1300800.05336","Mapping"
"Mixed","Both","tile","26","m160cad.wav","space","439.040783793","112","1291624.15267","1298490.23152","1299257.13131","1300023.48696","1300790.47734","1301557.10383","1302324.18387","1288490.70363","1292373.58789","1293139.96549","1293906.93392","1294673.80187","1295440.5749","1296207.14079","1296973.99173","1297740.95769","1301566.48878","Mapping"
"Mixed","Both","tile","26","m150knife.wav","None","722.918050829","112","1291624.15267","1298490.23152","1299257.13131","1300023.48696","1300790.47734","1301557.10383","1302324.18387","1303090.61279","1292373.58789","1293139.96549","1293906.93392","1294673.80187","1295440.5749","1296207.14079","1296973.99173","1297740.95769","1302333.25377","Mapping"
"Mixed","Both","tile","33","m160romp.wav","None","720.539890695","112","1306207.51334","1298490.23152","1299257.13131","1300023.48696","1300790.47734","1301557.10383","1302324.18387","1303090.61279","1292373.58789","1293139.96549","1293906.93392","1294673.80187","1295440.5749","1296207.14079","1296973.99173","1297740.95769","1303100.0704","Mapping"
"Mixed","Both","tile","33","m150park.wav","None","719.479426742","112","1306207.51334","1298490.23152","1299257.13131","1300023.48696","1300790.47734","1301557.10383","1302324.18387","1303090.61279","1306956.71513","1293139.96549","1293906.93392","1294673.80187","1295440.5749","1296207.14079","1296973.99173","1297740.95769","1306217.60074","Mapping"
"Mixed","Both","tile","33","m150tile.wav","None","735.749356914","112","1306207.51334","1298490.23152","1299257.13131","1300023.48696","1300790.47734","1301557.10383","1302324.18387","1303090.61279","1306956.71513","1307723.59823","1293906.93392","1294673.80187","1295440.5749","1296207.14079","1296973.99173","1297740.95769","1306965.84254","Mapping"
"Mixed","Both","tile","33","m160greet.wav","space","688.686703332","112","1306207.51334","1298490.23152","1299257.13131","1300023.48696","1300790.47734","1301557.10383","1302324.18387","1303090.61279","1306956.71513","1307723.59823","1308490.34653","1294673.80187","1295440.5749","1296207.14079","1296973.99173","1297740.95769","1307732.70771","Mapping"
"Mixed","Both","tile","33","m150reek.wav","None","730.417356128","112","1306207.51334","1298490.23152","1299257.13131","1300023.48696","1300790.47734","1301557.10383","1302324.18387","1303090.61279","1306956.71513","1307723.59823","1308490.34653","1309257.03423","1295440.5749","1296207.14079","1296973.99173","1297740.95769","1308499.3917","Mapping"
"Mixed","Both","tile","33","m160reek.wav","None","727.890174137","112","1306207.51334","1298490.23152","1299257.13131","1300023.48696","1300790.47734","1301557.10383","1302324.18387","1303090.61279","1306956.71513","1307723.59823","1308490.34653","1309257.03423","1310023.50489","1296207.14079","1296973.99173","1297740.95769","1309266.41145","Mapping"
"Mixed","Both","tile","33","m160tile.wav","None","725.878074998","112","1306207.51334","1298490.23152","1299257.13131","1300023.48696","1300790.47734","1301557.10383","1302324.18387","1303090.61279","1306956.71513","1307723.59823","1308490.34653","1309257.03423","1310023.50489","1310790.63317","1296973.99173","1297740.95769","1310032.73773","Mapping"
"Mixed","Both","tile","33","m160park.wav","space","405.194975436","112","1306207.51334","1298490.23152","1299257.13131","1300023.48696","1300790.47734","1301557.10383","1302324.18387","1303090.61279","1306956.71513","1307723.59823","1308490.34653","1309257.03423","1310023.50489","1310790.63317","1311557.17432","1297740.95769","1310800.17209","Mapping"
"Mixed","Both","tile","33","m160cling.wav","None","720.278330147","112","1306207.51334","1298490.23152","1299257.13131","1300023.48696","1300790.47734","1301557.10383","1302324.18387","1303090.61279","1306956.71513","1307723.59823","1308490.34653","1309257.03423","1310023.50489","1310790.63317","1311557.17432","1312306.72764","1311566.42292","Mapping"
"Mixed","Both","tile","33","m150gnash.wav","None","735.387315275","112","1306207.51334","1313073.53592","1299257.13131","1300023.48696","1300790.47734","1301557.10383","1302324.18387","1303090.61279","1306956.71513","1307723.59823","1308490.34653","1309257.03423","1310023.50489","1310790.63317","1311557.17432","1312306.72764","1312315.84578","Mapping"
"Mixed","Both","tile","33","m160tile.wav","None","733.106235275","112","1306207.51334","1313073.53592","1313840.21898","1300023.48696","1300790.47734","1301557.10383","1302324.18387","1303090.61279","1306956.71513","1307723.59823","1308490.34653","1309257.03423","1310023.50489","1310790.63317","1311557.17432","1312306.72764","1313082.68683","Mapping"
"Mixed","Both","tile","33","m160bluff.wav","space","332.021408482","112","1306207.51334","1313073.53592","1313840.21898","1314606.8804","1300790.47734","1301557.10383","1302324.18387","1303090.61279","1306956.71513","1307723.59823","1308490.34653","1309257.03423","1310023.50489","1310790.63317","1311557.17432","1312306.72764","1313849.28981","Mapping"
"Mixed","Both","tile","33","m150gnash.wav","None","727.923565079","112","1306207.51334","1313073.53592","1313840.21898","1314606.8804","1315373.27346","1301557.10383","1302324.18387","1303090.61279","1306956.71513","1307723.59823","1308490.34653","1309257.03423","1310023.50489","1310790.63317","1311557.17432","1312306.72764","1314615.99112","Mapping"
"Mixed","Both","tile","33","m150tile.wav","None","726.97780421","112","1306207.51334","1313073.53592","1313840.21898","1314606.8804","1315373.27346","1316140.47995","1302324.18387","1303090.61279","1306956.71513","1307723.59823","1308490.34653","1309257.03423","1310023.50489","1310790.63317","1311557.17432","1312306.72764","1315381.79335","Mapping"
"Mixed","Both","tile","33","m150bluff.wav","space","414.721838431","112","1306207.51334","1313073.53592","1313840.21898","1314606.8804","1315373.27346","1316140.47995","1316907.59184","1303090.61279","1306956.71513","1307723.59823","1308490.34653","1309257.03423","1310023.50489","1310790.63317","1311557.17432","1312306.72764","1316150.55962","Mapping"
"Mixed","Both","tile","33","m150knife.wav","None","719.880424207","112","1306207.51334","1313073.53592","1313840.21898","1314606.8804","1315373.27346","1316140.47995","1316907.59184","1317656.56577","1306956.71513","1307723.59823","1308490.34653","1309257.03423","1310023.50489","1310790.63317","1311557.17432","1312306.72764","1316917.23681","Mapping"
"Mixed","Both","done","37","m150cad.wav","None","736.175088445","112","1320790.45972","1313073.53592","1313840.21898","1314606.8804","1315373.27346","1316140.47995","1316907.59184","1317656.56577","1306956.71513","1307723.59823","1308490.34653","1309257.03423","1310023.50489","1310790.63317","1311557.17432","1312306.72764","1317665.65206","Mapping"
"Mixed","Both","done","37","m150jaw.wav","None","720.895439852","112","1320790.45972","1313073.53592","1313840.21898","1314606.8804","1315373.27346","1316140.47995","1316907.59184","1317656.56577","1321539.83434","1307723.59823","1308490.34653","1309257.03423","1310023.50489","1310790.63317","1311557.17432","1312306.72764","1320799.7646","Mapping"
"Mixed","Both","done","37","m160done.wav","None","735.975671792","112","1320790.45972","1313073.53592","1313840.21898","1314606.8804","1315373.27346","1316140.47995","1316907.59184","1317656.56577","1321539.83434","1322306.66488","1308490.34653","1309257.03423","1310023.50489","1310790.63317","1311557.17432","1312306.72764","1321549.16549","Mapping"
"Mixed","Both","done","37","m150reek.wav","space","369.205978233","112","1320790.45972","1313073.53592","1313840.21898","1314606.8804","1315373.27346","1316140.47995","1316907.59184","1317656.56577","1321539.83434","1322306.66488","1323073.38195","1309257.03423","1310023.50489","1310790.63317","1311557.17432","1312306.72764","1322315.97903","Mapping"
"Mixed","Both","done","37","m160lash.wav","None","730.293377535","112","1320790.45972","1313073.53592","1313840.21898","1314606.8804","1315373.27346","1316140.47995","1316907.59184","1317656.56577","1321539.83434","1322306.66488","1323073.38195","1323840.06501","1310023.50489","1310790.63317","1311557.17432","1312306.72764","1323082.79411","Mapping"
"Mixed","Both","done","37","m150done.wav","None","728.618277237","112","1320790.45972","1313073.53592","1313840.21898","1314606.8804","1315373.27346","1316140.47995","1316907.59184","1317656.56577","1321539.83434","1322306.66488","1323073.38195","1323840.06501","1324606.60215","1310790.63317","1311557.17432","1312306.72764","1323849.05082","Mapping"
"Mixed","Both","done","37","m150romp.wav","space","509.055528324","112","1320790.45972","1313073.53592","1313840.21898","1314606.8804","1315373.27346","1316140.47995","1316907.59184","1317656.56577","1321539.83434","1322306.66488","1323073.38195","1323840.06501","1324606.60215","1325373.61293","1311557.17432","1312306.72764","1324616.0344","Mapping"
"Mixed","Both","done","37","m150done.wav","None","722.378543578","112","1320790.45972","1313073.53592","1313840.21898","1314606.8804","1315373.27346","1316140.47995","1316907.59184","1317656.56577","1321539.83434","1322306.66488","1323073.38195","1323840.06501","1324606.60215","1325373.61293","1326140.249","1312306.72764","1325383.31726","Mapping"
"Mixed","Both","done","37","m160jolt.wav","None","721.342813456","112","1320790.45972","1313073.53592","1313840.21898","1314606.8804","1315373.27346","1316140.47995","1316907.59184","1317656.56577","1321539.83434","1322306.66488","1323073.38195","1323840.06501","1324606.60215","1325373.61293","1326140.249","1326889.61775","1326149.19771","Mapping"
"Mixed","Both","done","37","m160reek.wav","space","58.2686362322","112","1320790.45972","1327656.60535","1313840.21898","1314606.8804","1315373.27346","1316140.47995","1316907.59184","1317656.56577","1321539.83434","1322306.66488","1323073.38195","1323840.06501","1324606.60215","1325373.61293","1326140.249","1326889.61775","1326898.82183","Mapping"
"Mixed","Both","done","37","m150greet.wav","None","732.846220722","112","1320790.45972","1327656.60535","1328423.204","1314606.8804","1315373.27346","1316140.47995","1316907.59184","1317656.56577","1321539.83434","1322306.66488","1323073.38195","1323840.06501","1324606.60215","1325373.61293","1326140.249","1326889.61775","1327665.67092","Mapping"
"Mixed","Both","done","37","m160done.wav","None","731.00911337","112","1320790.45972","1327656.60535","1328423.204","1329189.99961","1315373.27346","1316140.47995","1316907.59184","1317656.56577","1321539.83434","1322306.66488","1323073.38195","1323840.06501","1324606.60215","1325373.61293","1326140.249","1326889.61775","1328432.30699","Mapping"
"Mixed","Both","done","37","m150romp.wav","space","374.066490214","112","1320790.45972","1327656.60535","1328423.204","1329189.99961","1329956.37844","1316140.47995","1316907.59184","1317656.56577","1321539.83434","1322306.66488","1323073.38195","1323840.06501","1324606.60215","1325373.61293","1326140.249","1326889.61775","1329198.99346","Mapping"
"Mixed","Both","done","37","m160cad.wav","None","726.340598194","112","1320790.45972","1327656.60535","1328423.204","1329189.99961","1329956.37844","1330723.01884","1316907.59184","1317656.56577","1321539.83434","1322306.66488","1323073.38195","1323840.06501","1324606.60215","1325373.61293","1326140.249","1326889.61775","1329965.16515","Mapping"
"Mixed","Both","done","37","m160reek.wav","None","724.224307574","112","1320790.45972","1327656.60535","1328423.204","1329189.99961","1329956.37844","1330723.01884","1331490.15608","1317656.56577","1321539.83434","1322306.66488","1323073.38195","1323840.06501","1324606.60215","1325373.61293","1326140.249","1326889.61775","1330731.77401","Mapping"
"Mixed","Both","done","37","m160lash.wav","None","721.041987883","112","1320790.45972","1327656.60535","1328423.204","1329189.99961","1329956.37844","1330723.01884","1331490.15608","1332256.85151","1321539.83434","1322306.66488","1323073.38195","1323840.06501","1324606.60215","1325373.61293","1326140.249","1326889.61775","1331499.96151","Mapping"
"Mixed","Both","tile","31","m150jolt.wav","None","718.204396078","112","1335373.51152","1327656.60535","1328423.204","1329189.99961","1329956.37844","1330723.01884","1331490.15608","1332256.85151","1321539.83434","1322306.66488","1323073.38195","1323840.06501","1324606.60215","1325373.61293","1326140.249","1326889.61775","1332267.37978","Mapping"
"Mixed","Both","tile","31","m150dime.wav","None","720.507427584","112","1335373.51152","1327656.60535","1328423.204","1329189.99961","1329956.37844","1330723.01884","1331490.15608","1332256.85151","1336122.80298","1322306.66488","1323073.38195","1323840.06501","1324606.60215","1325373.61293","1326140.249","1326889.61775","1335382.92894","Mapping"
"Mixed","Both","tile","31","m160done.wav","None","736.334312707","112","1335373.51152","1327656.60535","1328423.204","1329189.99961","1329956.37844","1330723.01884","1331490.15608","1332256.85151","1336122.80298","1336890.00019","1323073.38195","1323840.06501","1324606.60215","1325373.61293","1326140.249","1326889.61775","1336131.81105","Mapping"
"Mixed","Both","tile","31","m160cad.wav","None","733.880714048","112","1335373.51152","1327656.60535","1328423.204","1329189.99961","1329956.37844","1330723.01884","1331490.15608","1332256.85151","1336122.80298","1336890.00019","1337656.24145","1323840.06501","1324606.60215","1325373.61293","1326140.249","1326889.61775","1336899.02032","Mapping"
"Mixed","Both","tile","31","m160lash.wav","None","732.119354652","112","1335373.51152","1327656.60535","1328423.204","1329189.99961","1329956.37844","1330723.01884","1331490.15608","1332256.85151","1336122.80298","1336890.00019","1337656.24145","1338422.8129","1324606.60215","1325373.61293","1326140.249","1326889.61775","1337665.44213","Mapping"
"Mixed","Both","tile","31","m160tile.wav","None","730.801658472","112","1335373.51152","1327656.60535","1328423.204","1329189.99961","1329956.37844","1330723.01884","1331490.15608","1332256.85151","1336122.80298","1336890.00019","1337656.24145","1338422.8129","1339189.52224","1325373.61293","1326140.249","1326889.61775","1338431.61259","Mapping"
"Mixed","Both","tile","31","m150bluff.wav","space","390.358990291","112","1335373.51152","1327656.60535","1328423.204","1329189.99961","1329956.37844","1330723.01884","1331490.15608","1332256.85151","1336122.80298","1336890.00019","1337656.24145","1338422.8129","1339189.52224","1339956.51108","1326140.249","1326889.61775","1339198.51424","Mapping"
"Mixed","Both","tile","31","m150tile.wav","None","724.626542069","112","1335373.51152","1327656.60535","1328423.204","1329189.99961","1329956.37844","1330723.01884","1331490.15608","1332256.85151","1336122.80298","1336890.00019","1337656.24145","1338422.8129","1339189.52224","1339956.51108","1340723.17374","1326889.61775","1339966.21108","Mapping"
"Mixed","Both","tile","31","m150greet.wav","space","576.287095901","112","1335373.51152","1327656.60535","1328423.204","1329189.99961","1329956.37844","1330723.01884","1331490.15608","1332256.85151","1336122.80298","1336890.00019","1337656.24145","1338422.8129","1339189.52224","1339956.51108","1340723.17374","1341490.30727","1340732.51293","Mapping"
"Mixed","Both","tile","31","m160bluff.wav","None","719.684717478","112","1335373.51152","1342239.42465","1328423.204","1329189.99961","1329956.37844","1330723.01884","1331490.15608","1332256.85151","1336122.80298","1336890.00019","1337656.24145","1338422.8129","1339189.52224","1339956.51108","1340723.17374","1341490.30727","1341499.83258","Mapping"
"Mixed","Both","tile","31","m160tile.wav","None","735.79820618","112","1335373.51152","1342239.42465","1343006.36248","1329189.99961","1329956.37844","1330723.01884","1331490.15608","1332256.85151","1336122.80298","1336890.00019","1337656.24145","1338422.8129","1339189.52224","1339956.51108","1340723.17374","1341490.30727","1342248.53753","Mapping"
"Mixed","Both","tile","31","m160cad.wav","space","636.869275244","112","1335373.51152","1342239.42465","1343006.36248","1343772.99267","1329956.37844","1330723.01884","1331490.15608","1332256.85151","1336122.80298","1336890.00019","1337656.24145","1338422.8129","1339189.52224","1339956.51108","1340723.17374","1341490.30727","1343015.932","Mapping"
"Mixed","Both","tile","31","m150tile.wav","None","730.465896195","112","1335373.51152","1342239.42465","1343006.36248","1343772.99267","1344539.45746","1330723.01884","1331490.15608","1332256.85151","1336122.80298","1336890.00019","1337656.24145","1338422.8129","1339189.52224","1339956.51108","1340723.17374","1341490.30727","1343782.08514","Mapping"
"Mixed","Both","tile","31","m150dime.wav","None","728.856031317","112","1335373.51152","1342239.42465","1343006.36248","1343772.99267","1344539.45746","1345306.11795","1331490.15608","1332256.85151","1336122.80298","1336890.00019","1337656.24145","1338422.8129","1339189.52224","1339956.51108","1340723.17374","1341490.30727","1344548.44729","Mapping"
"Mixed","Both","tile","31","m160gnash.wav","space","241.878560977","112","1335373.51152","1342239.42465","1343006.36248","1343772.99267","1344539.45746","1345306.11795","1346073.53097","1332256.85151","1336122.80298","1336890.00019","1337656.24145","1338422.8129","1339189.52224","1339956.51108","1340723.17374","1341490.30727","1345314.88734","Mapping"
"Mixed","Both","tile","31","m150cad.wav","None","722.764391918","112","1335373.51152","1342239.42465","1343006.36248","1343772.99267","1344539.45746","1345306.11795","1346073.53097","1346839.83746","1336122.80298","1336890.00019","1337656.24145","1338422.8129","1339189.52224","1339956.51108","1340723.17374","1341490.30727","1346083.12492","Mapping"
"Mixed","Both","tile","34","m160park.wav","None","721.903962782","112","1349956.73554","1342239.42465","1343006.36248","1343772.99267","1344539.45746","1345306.11795","1346073.53097","1346839.83746","1336122.80298","1336890.00019","1337656.24145","1338422.8129","1339189.52224","1339956.51108","1340723.17374","1341490.30727","1346848.85295","Mapping"
"Mixed","Both","tile","34","m160tile.wav","None","719.599385746","112","1349956.73554","1342239.42465","1343006.36248","1343772.99267","1344539.45746","1345306.11795","1346073.53097","1346839.83746","1350705.63156","1336890.00019","1337656.24145","1338422.8129","1339189.52224","1339956.51108","1340723.17374","1341490.30727","1349966.57158","Mapping"
"Mixed","Both","tile","34","m150dime.wav","space","561.985052889","112","1349956.73554","1342239.42465","1343006.36248","1343772.99267","1344539.45746","1345306.11795","1346073.53097","1346839.83746","1350705.63156","1351472.651","1337656.24145","1338422.8129","1339189.52224","1339956.51108","1340723.17374","1341490.30727","1350714.6656","Mapping"
"Mixed","Both","tile","34","m160knife.wav","None","733.317709761","112","1349956.73554","1342239.42465","1343006.36248","1343772.99267","1344539.45746","1345306.11795","1346073.53097","1346839.83746","1350705.63156","1351472.651","1352239.29047","1338422.8129","1339189.52224","1339956.51108","1340723.17374","1341490.30727","1351481.40988","Mapping"
"Mixed","Both","tile","34","m150depth.wav","None","731.3618802","112","1349956.73554","1342239.42465","1343006.36248","1343772.99267","1344539.45746","1345306.11795","1346073.53097","1346839.83746","1350705.63156","1351472.651","1352239.29047","1353005.9825","1339189.52224","1339956.51108","1340723.17374","1341490.30727","1352248.21166","Mapping"
"Mixed","Both","tile","34","m150cave.wav","None","729.977402603","112","1349956.73554","1342239.42465","1343006.36248","1343772.99267","1344539.45746","1345306.11795","1346073.53097","1346839.83746","1350705.63156","1351472.651","1352239.29047","1353005.9825","1353772.53447","1339956.51108","1340723.17374","1341490.30727","1353014.69469","Mapping"
"Mixed","Both","tile","34","m150park.wav","None","727.67684469","112","1349956.73554","1342239.42465","1343006.36248","1343772.99267","1344539.45746","1345306.11795","1346073.53097","1346839.83746","1350705.63156","1351472.651","1352239.29047","1353005.9825","1353772.53447","1354539.25742","1340723.17374","1341490.30727","1353781.59789","Mapping"
"Mixed","Both","tile","34","m150tile.wav","None","726.026787423","112","1349956.73554","1342239.42465","1343006.36248","1343772.99267","1344539.45746","1345306.11795","1346073.53097","1346839.83746","1350705.63156","1351472.651","1352239.29047","1353005.9825","1353772.53447","1354539.25742","1355306.39342","1341490.30727","1354548.23705","Mapping"
"Mixed","Both","tile","34","m160jaw.wav","space","417.070936412","112","1349956.73554","1342239.42465","1343006.36248","1343772.99267","1344539.45746","1345306.11795","1346073.53097","1346839.83746","1350705.63156","1351472.651","1352239.29047","1353005.9825","1353772.53447","1354539.25742","1355306.39342","1356072.93303","1355315.50445","Mapping"
"Mixed","Both","tile","34","m150dime.wav","None","720.680873608","112","1349956.73554","1356822.53706","1343006.36248","1343772.99267","1344539.45746","1345306.11795","1346073.53097","1346839.83746","1350705.63156","1351472.651","1352239.29047","1353005.9825","1353772.53447","1354539.25742","1355306.39342","1356072.93303","1356082.1028","Mapping"
"Mixed","Both","tile","34","m150tile.wav","None","735.795423854","112","1349956.73554","1356822.53706","1357589.1453","1343772.99267","1344539.45746","1345306.11795","1346073.53097","1346839.83746","1350705.63156","1351472.651","1352239.29047","1353005.9825","1353772.53447","1354539.25742","1355306.39342","1356072.93303","1356831.95231","Mapping"
"Mixed","Both","tile","34","m160cling.wav","space","564.375270857","112","1349956.73554","1356822.53706","1357589.1453","1358356.02902","1344539.45746","1345306.11795","1346073.53097","1346839.83746","1350705.63156","1351472.651","1352239.29047","1353005.9825","1353772.53447","1354539.25742","1355306.39342","1356072.93303","1357600.16207","Mapping"
"Mixed","Both","tile","34","m150park.wav","None","730.729621137","112","1349956.73554","1356822.53706","1357589.1453","1358356.02902","1359122.43692","1345306.11795","1346073.53097","1346839.83746","1350705.63156","1351472.651","1352239.29047","1353005.9825","1353772.53447","1354539.25742","1355306.39342","1356072.93303","1358365.4792","Mapping"
"Mixed","Both","tile","34","m160greet.wav","None","730.084994808","112","1349956.73554","1356822.53706","1357589.1453","1358356.02902","1359122.43692","1359889.42173","1346073.53097","1346839.83746","1350705.63156","1351472.651","1352239.29047","1353005.9825","1353772.53447","1354539.25742","1355306.39342","1356072.93303","1359131.22145","Mapping"
"Mixed","Both","tile","34","m160tile.wav","None","727.60882671","112","1349956.73554","1356822.53706","1357589.1453","1358356.02902","1359122.43692","1359889.42173","1360656.09799","1346839.83746","1350705.63156","1351472.651","1352239.29047","1353005.9825","1353772.53447","1354539.25742","1355306.39342","1356072.93303","1359898.49658","Mapping"
"Mixed","Both","tile","34","m160cling.wav","space","371.13058148","112","1349956.73554","1356822.53706","1357589.1453","1358356.02902","1359122.43692","1359889.42173","1360656.09799","1361422.91555","1350705.63156","1351472.651","1352239.29047","1353005.9825","1353772.53447","1354539.25742","1355306.39342","1356072.93303","1360665.33547","Mapping"
"Mixed","Both","cave","17","m160cling.wav","None","722.646596842","112","1364539.69088","1356822.53706","1357589.1453","1358356.02902","1359122.43692","1359889.42173","1360656.09799","1361422.91555","1350705.63156","1351472.651","1352239.29047","1353005.9825","1353772.53447","1354539.25742","1355306.39342","1356072.93303","1361432.45787","Mapping"
"Mixed","Both","cave","17","m160depth.wav","None","722.599293338","112","1364539.69088","1356822.53706","1357589.1453","1358356.02902","1359122.43692","1359889.42173","1360656.09799","1361422.91555","1365306.42032","1351472.651","1352239.29047","1353005.9825","1353772.53447","1354539.25742","1355306.39342","1356072.93303","1364549.78786","Mapping"
"Mixed","Both","cave","17","m160cave.wav","None","721.254080767","112","1364539.69088","1356822.53706","1357589.1453","1358356.02902","1359122.43692","1359889.42173","1360656.09799","1361422.91555","1365306.42032","1366072.52801","1352239.29047","1353005.9825","1353772.53447","1354539.25742","1355306.39342","1356072.93303","1365315.81548","Mapping"
"Mixed","Both","cave","17","m150cling.wav","space","458.694614936","112","1364539.69088","1356822.53706","1357589.1453","1358356.02902","1359122.43692","1359889.42173","1360656.09799","1361422.91555","1365306.42032","1366072.52801","1366822.28755","1353005.9825","1353772.53447","1354539.25742","1355306.39342","1356072.93303","1366081.72561","Mapping"
"Mixed","Both","cave","17","m150cave.wav","None","734.248630237","112","1364539.69088","1356822.53706","1357589.1453","1358356.02902","1359122.43692","1359889.42173","1360656.09799","1361422.91555","1365306.42032","1366072.52801","1366822.28755","1367589.27577","1353772.53447","1354539.25742","1355306.39342","1356072.93303","1366831.1565","Mapping"
"Mixed","Both","cave","17","m160gnash.wav","space","494.110096013","112","1364539.69088","1356822.53706","1357589.1453","1358356.02902","1359122.43692","1359889.42173","1360656.09799","1361422.91555","1365306.42032","1366072.52801","1366822.28755","1367589.27577","1368355.67161","1354539.25742","1355306.39342","1356072.93303","1367598.27333","Mapping"
"Mixed","Both","cave","17","m150priest.wav","None","729.14387146","112","1364539.69088","1356822.53706","1357589.1453","1358356.02902","1359122.43692","1359889.42173","1360656.09799","1361422.91555","1365306.42032","1366072.52801","1366822.28755","1367589.27577","1368355.67161","1369122.39085","1355306.39342","1356072.93303","1368364.72173","Mapping"
"Mixed","Both","cave","17","m150greet.wav","None","727.707452839","112","1364539.69088","1356822.53706","1357589.1453","1358356.02902","1359122.43692","1359889.42173","1360656.09799","1361422.91555","1365306.42032","1366072.52801","1366822.28755","1367589.27577","1368355.67161","1369122.39085","1369889.26714","1356072.93303","1369131.12901","Mapping"
"Mixed","Both","cave","17","m150jolt.wav","None","725.046399049","112","1364539.69088","1356822.53706","1357589.1453","1358356.02902","1359122.43692","1359889.42173","1360656.09799","1361422.91555","1365306.42032","1366072.52801","1366822.28755","1367589.27577","1368355.67161","1369122.39085","1369889.26714","1370656.1051","1369898.62829","Mapping"
"Mixed","Both","cave","17","m160park.wav","None","723.080366617","112","1364539.69088","1371422.58659","1357589.1453","1358356.02902","1359122.43692","1359889.42173","1360656.09799","1361422.91555","1365306.42032","1366072.52801","1366822.28755","1367589.27577","1368355.67161","1369122.39085","1369889.26714","1370656.1051","1370665.53025","Mapping"
"Mixed","Both","cave","17","m160priest.wav","None","721.695579821","112","1364539.69088","1371422.58659","1372189.55811","1358356.02902","1359122.43692","1359889.42173","1360656.09799","1361422.91555","1365306.42032","1366072.52801","1366822.28755","1367589.27577","1368355.67161","1369122.39085","1369889.26714","1370656.1051","1371431.88188","Mapping"
"Mixed","Both","cave","17","m160cave.wav","None","717.590687564","112","1364539.69088","1371422.58659","1372189.55811","1372938.95777","1359122.43692","1359889.42173","1360656.09799","1361422.91555","1365306.42032","1366072.52801","1366822.28755","1367589.27577","1368355.67161","1369122.39085","1369889.26714","1370656.1051","1372200.69113","Mapping"
"Mixed","Both","cave","17","m160cling.wav","space","511.714727152","112","1364539.69088","1371422.58659","1372189.55811","1372938.95777","1373705.75863","1359889.42173","1360656.09799","1361422.91555","1365306.42032","1366072.52801","1366822.28755","1367589.27577","1368355.67161","1369122.39085","1369889.26714","1370656.1051","1372948.54307","Mapping"
"Mixed","Both","cave","17","m150cave.wav","None","729.898872552","112","1364539.69088","1371422.58659","1372189.55811","1372938.95777","1373705.75863","1374472.59288","1360656.09799","1361422.91555","1365306.42032","1366072.52801","1366822.28755","1367589.27577","1368355.67161","1369122.39085","1369889.26714","1370656.1051","1373716.87155","Mapping"
"Mixed","Both","cave","17","m150romp.wav","space","650.07035248","112","1364539.69088","1371422.58659","1372189.55811","1372938.95777","1373705.75863","1374472.59288","1375238.90215","1361422.91555","1365306.42032","1366072.52801","1366822.28755","1367589.27577","1368355.67161","1369122.39085","1369889.26714","1370656.1051","1374482.14015","Mapping"
"Mixed","Both","cave","17","m150jolt.wav","None","727.623357903","112","1364539.69088","1371422.58659","1372189.55811","1372938.95777","1373705.75863","1374472.59288","1375238.90215","1376005.55275","1365306.42032","1366072.52801","1366822.28755","1367589.27577","1368355.67161","1369122.39085","1369889.26714","1370656.1051","1375247.80417","Mapping"
"Mixed","Both","done","39","m160lash.wav","None","724.454950774","112","1379122.53431","1371422.58659","1372189.55811","1372938.95777","1373705.75863","1374472.59288","1375238.90215","1376005.55275","1365306.42032","1366072.52801","1366822.28755","1367589.27577","1368355.67161","1369122.39085","1369889.26714","1370656.1051","1376015.8476","Mapping"
"Mixed","Both","done","39","m150ball.wav","None","718.82243338","112","1379122.53431","1371422.58659","1372189.55811","1372938.95777","1373705.75863","1374472.59288","1375238.90215","1376005.55275","1379872.42153","1366072.52801","1366822.28755","1367589.27577","1368355.67161","1369122.39085","1369889.26714","1370656.1051","1379133.84572","Mapping"
"Mixed","Both","done","39","m150done.wav","None","729.76500052","112","1379122.53431","1371422.58659","1372189.55811","1372938.95777","1373705.75863","1374472.59288","1375238.90215","1376005.55275","1379872.42153","1380638.75801","1366822.28755","1367589.27577","1368355.67161","1369122.39085","1369889.26714","1370656.1051","1379887.76673","Mapping"
"Mixed","Both","done","39","m150lash.wav","space","372.360781766","112","1379122.53431","1371422.58659","1372189.55811","1372938.95777","1373705.75863","1374472.59288","1375238.90215","1376005.55275","1379872.42153","1380638.75801","1381405.44231","1367589.27577","1368355.67161","1369122.39085","1369889.26714","1370656.1051","1380647.76794","Mapping"
"Mixed","Both","done","39","m150park.wav","None","731.966004474","112","1379122.53431","1371422.58659","1372189.55811","1372938.95777","1373705.75863","1374472.59288","1375238.90215","1376005.55275","1379872.42153","1380638.75801","1381405.44231","1382172.00171","1368355.67161","1369122.39085","1369889.26714","1370656.1051","1381414.26426","Mapping"
"Mixed","Both","done","39","m150greet.wav","None","730.43219652","112","1379122.53431","1371422.58659","1372189.55811","1372938.95777","1373705.75863","1374472.59288","1375238.90215","1376005.55275","1379872.42153","1380638.75801","1381405.44231","1382172.00171","1382938.99518","1369122.39085","1369889.26714","1370656.1051","1382180.68391","Mapping"
"Mixed","Both","done","39","m160done.wav","None","727.815972641","112","1379122.53431","1371422.58659","1372189.55811","1372938.95777","1373705.75863","1374472.59288","1375238.90215","1376005.55275","1379872.42153","1380638.75801","1381405.44231","1382172.00171","1382938.99518","1383705.62599","1369889.26714","1370656.1051","1382948.39868","Mapping"
"Mixed","Both","done","39","m160jolt.wav","space","353.272119071","112","1379122.53431","1371422.58659","1372189.55811","1372938.95777","1373705.75863","1374472.59288","1375238.90215","1376005.55275","1379872.42153","1380638.75801","1381405.44231","1382172.00171","1382938.99518","1383705.62599","1384473.01737","1370656.1051","1383714.78649","Mapping"
"Mixed","Both","done","39","m160park.wav","None","721.945701167","112","1379122.53431","1371422.58659","1372189.55811","1372938.95777","1373705.75863","1374472.59288","1375238.90215","1376005.55275","1379872.42153","1380638.75801","1381405.44231","1382172.00171","1382938.99518","1383705.62599","1384473.01737","1385239.34922","1384482.52198","Mapping"
"Mixed","Both","done","39","m160done.wav","None","720.802687807","112","1379122.53431","1386006.10648","1372189.55811","1372938.95777","1373705.75863","1374472.59288","1375238.90215","1376005.55275","1379872.42153","1380638.75801","1381405.44231","1382172.00171","1382938.99518","1383705.62599","1384473.01737","1385239.34922","1385248.80311","Mapping"
"Mixed","Both","done","39","m150cave.wav","space","516.404266236","112","1379122.53431","1386006.10648","1386755.51418","1372938.95777","1373705.75863","1374472.59288","1375238.90215","1376005.55275","1379872.42153","1380638.75801","1381405.44231","1382172.00171","1382938.99518","1383705.62599","1384473.01737","1385239.34922","1386015.61325","Mapping"
"Mixed","Both","done","39","m150done.wav","None","732.790569542","112","1379122.53431","1386006.10648","1386755.51418","1387522.09707","1373705.75863","1374472.59288","1375238.90215","1376005.55275","1379872.42153","1380638.75801","1381405.44231","1382172.00171","1382938.99518","1383705.62599","1384473.01737","1385239.34922","1386765.208","Mapping"
"Mixed","Both","done","39","m150jaw.wav","None","731.782665011","112","1379122.53431","1386006.10648","1386755.51418","1387522.09707","1388288.9205","1374472.59288","1375238.90215","1376005.55275","1379872.42153","1380638.75801","1381405.44231","1382172.00171","1382938.99518","1383705.62599","1384473.01737","1385239.34922","1387531.37721","Mapping"
"Mixed","Both","done","39","m160jolt.wav","space","2.03003105707","112","1379122.53431","1386006.10648","1386755.51418","1387522.09707","1388288.9205","1389055.32562","1375238.90215","1376005.55275","1379872.42153","1380638.75801","1381405.44231","1382172.00171","1382938.99518","1383705.62599","1384473.01737","1385239.34922","1388297.96103","Mapping"
"Mixed","Both","done","39","m160cling.wav","None","730.072627775","112","1379122.53431","1386006.10648","1386755.51418","1387522.09707","1388288.9205","1389055.32562","1389821.88192","1376005.55275","1379872.42153","1380638.75801","1381405.44231","1382172.00171","1382938.99518","1383705.62599","1384473.01737","1385239.34922","1389064.08635","Mapping"
"Mixed","Both","done","39","m160dime.wav","None","728.382378118","112","1379122.53431","1386006.10648","1386755.51418","1387522.09707","1388288.9205","1389055.32562","1389821.88192","1390589.34101","1379872.42153","1380638.75801","1381405.44231","1382172.00171","1382938.99518","1383705.62599","1384473.01737","1385239.34922","1389830.83156","Mapping"
"Mixed","Both","ball","12","m160bluff.wav","None","725.604456849","112","1393722.35814","1386006.10648","1386755.51418","1387522.09707","1388288.9205","1389055.32562","1389821.88192","1390589.34101","1379872.42153","1380638.75801","1381405.44231","1382172.00171","1382938.99518","1383705.62599","1384473.01737","1385239.34922","1390598.55344","Mapping"
"Mixed","Both","ball","12","m160dime.wav","None","720.564933727","112","1393722.35814","1386006.10648","1386755.51418","1387522.09707","1388288.9205","1389055.32562","1389821.88192","1390589.34101","1394472.34461","1380638.75801","1381405.44231","1382172.00171","1382938.99518","1383705.62599","1384473.01737","1385239.34922","1393731.8176","Mapping"
"Mixed","Both","ball","12","m160tile.wav","None","735.77130842","112","1393722.35814","1386006.10648","1386755.51418","1387522.09707","1388288.9205","1389055.32562","1389821.88192","1390589.34101","1394472.34461","1395238.81867","1381405.44231","1382172.00171","1382938.99518","1383705.62599","1384473.01737","1385239.34922","1394481.54499","Mapping"
"Mixed","Both","ball","12","m150ball.wav","None","739.731507841","112","1393722.35814","1386006.10648","1386755.51418","1387522.09707","1388288.9205","1389055.32562","1389821.88192","1390589.34101","1394472.34461","1395238.81867","1396005.15083","1382172.00171","1382938.99518","1383705.62599","1384473.01737","1385239.34922","1395242.75383","Mapping"
"Mixed","Both","ball","12","m150bluff.wav","space","397.84747432","112","1393722.35814","1386006.10648","1386755.51418","1387522.09707","1388288.9205","1389055.32562","1389821.88192","1390589.34101","1394472.34461","1395238.81867","1396005.15083","1396771.72846","1382938.99518","1383705.62599","1384473.01737","1385239.34922","1396013.99349","Mapping"
"Mixed","Both","ball","12","m160ball.wav","None","730.615226785","112","1393722.35814","1386006.10648","1386755.51418","1387522.09707","1388288.9205","1389055.32562","1389821.88192","1390589.34101","1394472.34461","1395238.81867","1396005.15083","1396771.72846","1397538.76027","1383705.62599","1384473.01737","1385239.34922","1396780.49538","Mapping"
"Mixed","Both","ball","12","m150done.wav","space","639.709958574","112","1393722.35814","1386006.10648","1386755.51418","1387522.09707","1388288.9205","1389055.32562","1389821.88192","1390589.34101","1394472.34461","1395238.81867","1396005.15083","1396771.72846","1397538.76027","1398305.15457","1384473.01737","1385239.34922","1397548.11771","Mapping"
"Mixed","Both","ball","12","m160cad.wav","None","726.063578855","112","1393722.35814","1386006.10648","1386755.51418","1387522.09707","1388288.9205","1389055.32562","1389821.88192","1390589.34101","1394472.34461","1395238.81867","1396005.15083","1396771.72846","1397538.76027","1398305.15457","1399072.60809","1385239.34922","1398313.9558","Mapping"
"Mixed","Both","ball","12","m160dime.wav","None","723.125196993","112","1393722.35814","1386006.10648","1386755.51418","1387522.09707","1388288.9205","1389055.32562","1389821.88192","1390589.34101","1394472.34461","1395238.81867","1396005.15083","1396771.72846","1397538.76027","1398305.15457","1399072.60809","1399839.04474","1399081.87123","Mapping"
"Mixed","Both","ball","12","m150ball.wav","None","721.751540201","112","1393722.35814","1400605.3401","1386755.51418","1387522.09707","1388288.9205","1389055.32562","1389821.88192","1390589.34101","1394472.34461","1395238.81867","1396005.15083","1396771.72846","1397538.76027","1398305.15457","1399072.60809","1399839.04474","1399848.34374","Mapping"
"Mixed","Both","ball","12","m150depth.wav","space","381.41646469","112","1393722.35814","1400605.3401","1401354.84488","1387522.09707","1388288.9205","1389055.32562","1389821.88192","1390589.34101","1394472.34461","1395238.81867","1396005.15083","1396771.72846","1397538.76027","1398305.15457","1399072.60809","1399839.04474","1400614.33766","Mapping"
"Mixed","Both","ball","12","m150greet.wav","None","735.075977864","112","1393722.35814","1400605.3401","1401354.84488","1402121.70603","1388288.9205","1389055.32562","1389821.88192","1390589.34101","1394472.34461","1395238.81867","1396005.15083","1396771.72846","1397538.76027","1398305.15457","1399072.60809","1399839.04474","1401363.6152","Mapping"
"Mixed","Both","ball","12","m150bluff.wav","None","733.471059473","112","1393722.35814","1400605.3401","1401354.84488","1402121.70603","1402888.57954","1389055.32562","1389821.88192","1390589.34101","1394472.34461","1395238.81867","1396005.15083","1396771.72846","1397538.76027","1398305.15457","1399072.60809","1399839.04474","1402130.4513","Mapping"
"Mixed","Both","ball","12","m160ball.wav","None","731.113923248","112","1393722.35814","1400605.3401","1401354.84488","1402121.70603","1402888.57954","1403655.0298","1389821.88192","1390589.34101","1394472.34461","1395238.81867","1396005.15083","1396771.72846","1397538.76027","1398305.15457","1399072.60809","1399839.04474","1402897.84083","Mapping"
"Mixed","Both","ball","12","m160greet.wav","space","363.987443969","112","1393722.35814","1400605.3401","1401354.84488","1402121.70603","1402888.57954","1403655.0298","1404421.80221","1390589.34101","1394472.34461","1395238.81867","1396005.15083","1396771.72846","1397538.76027","1398305.15457","1399072.60809","1399839.04474","1403663.71942","Mapping"
"Mixed","Both","ball","12","m150cad.wav","None","726.939157583","112","1393722.35814","1400605.3401","1401354.84488","1402121.70603","1402888.57954","1403655.0298","1404421.80221","1405188.5904","1394472.34461","1395238.81867","1396005.15083","1396771.72846","1397538.76027","1398305.15457","1399072.60809","1399839.04474","1404430.7939","Mapping"
"Mixed","Both","ball","4","m160done.wav","None","725.514178397","112","1408305.58772","1400605.3401","1401354.84488","1402121.70603","1402888.57954","1403655.0298","1404421.80221","1405188.5904","1394472.34461","1395238.81867","1396005.15083","1396771.72846","1397538.76027","1398305.15457","1399072.60809","1399839.04474","1405197.2995","Mapping"
"Mixed","Both","ball","4","m160cad.wav","None","719.416355016","112","1408305.58772","1400605.3401","1401354.84488","1402121.70603","1402888.57954","1403655.0298","1404421.80221","1405188.5904","1409055.00531","1395238.81867","1396005.15083","1396771.72846","1397538.76027","1398305.15457","1399072.60809","1399839.04474","1408315.75241","Mapping"
"Mixed","Both","ball","4","m160lash.wav","None","735.761723947","112","1408305.58772","1400605.3401","1401354.84488","1402121.70603","1402888.57954","1403655.0298","1404421.80221","1405188.5904","1409055.00531","1409821.65808","1396005.15083","1396771.72846","1397538.76027","1398305.15457","1399072.60809","1399839.04474","1409064.49013","Mapping"
"Mixed","Both","ball","4","m160done.wav","None","734.586556675","112","1408305.58772","1400605.3401","1401354.84488","1402121.70603","1402888.57954","1403655.0298","1404421.80221","1405188.5904","1409055.00531","1409821.65808","1410588.56869","1396771.72846","1397538.76027","1398305.15457","1399072.60809","1399839.04474","1409830.69274","Mapping"
"Mixed","Both","ball","4","m150cave.wav","None","738.214395009","112","1408305.58772","1400605.3401","1401354.84488","1402121.70603","1402888.57954","1403655.0298","1404421.80221","1405188.5904","1409055.00531","1409821.65808","1410588.56869","1411355.06934","1397538.76027","1398305.15457","1399072.60809","1399839.04474","1410592.66276","Mapping"
"Mixed","Both","ball","4","m160ball.wav","None","731.624058913","112","1408305.58772","1400605.3401","1401354.84488","1402121.70603","1402888.57954","1403655.0298","1404421.80221","1405188.5904","1409055.00531","1409821.65808","1410588.56869","1411355.06934","1412121.67233","1398305.15457","1399072.60809","1399839.04474","1411364.28611","Mapping"
"Mixed","Both","ball","4","m160priest.wav","space","440.923030488","112","1408305.58772","1400605.3401","1401354.84488","1402121.70603","1402888.57954","1403655.0298","1404421.80221","1405188.5904","1409055.00531","1409821.65808","1410588.56869","1411355.06934","1412121.67233","1412888.50349","1399072.60809","1399839.04474","1412130.63619","Mapping"
"Mixed","Both","ball","4","m150ball.wav","None","726.707586786","112","1408305.58772","1400605.3401","1401354.84488","1402121.70603","1402888.57954","1403655.0298","1404421.80221","1405188.5904","1409055.00531","1409821.65808","1410588.56869","1411355.06934","1412121.67233","1412888.50349","1413655.08792","1399839.04474","1412897.8937","Mapping"
"Mixed","Both","ball","4","m150knife.wav","None","725.556225749","112","1408305.58772","1400605.3401","1401354.84488","1402121.70603","1402888.57954","1403655.0298","1404421.80221","1405188.5904","1409055.00531","1409821.65808","1410588.56869","1411355.06934","1412121.67233","1412888.50349","1413655.08792","1414422.15745","1413664.22647","Mapping"
"Mixed","Both","ball","4","m150ball.wav","None","723.366970429","112","1408305.58772","1415188.80125","1401354.84488","1402121.70603","1402888.57954","1403655.0298","1404421.80221","1405188.5904","1409055.00531","1409821.65808","1410588.56869","1411355.06934","1412121.67233","1412888.50349","1413655.08792","1414422.15745","1414431.44007","Mapping"
"Mixed","Both","ball","4","m150dime.wav","space","445.088521112","112","1408305.58772","1415188.80125","1415938.21266","1402121.70603","1402888.57954","1403655.0298","1404421.80221","1405188.5904","1409055.00531","1409821.65808","1410588.56869","1411355.06934","1412121.67233","1412888.50349","1413655.08792","1414422.15745","1415198.41437","Mapping"
"Mixed","Both","ball","4","m150cad.wav","None","735.827577999","112","1408305.58772","1415188.80125","1415938.21266","1416704.84657","1402888.57954","1403655.0298","1404421.80221","1405188.5904","1409055.00531","1409821.65808","1410588.56869","1411355.06934","1412121.67233","1412888.50349","1413655.08792","1414422.15745","1415947.73891","Mapping"
"Mixed","Both","ball","4","m150cave.wav","None","734.892638167","112","1408305.58772","1415188.80125","1415938.21266","1416704.84657","1417471.46069","1403655.0298","1404421.80221","1405188.5904","1409055.00531","1409821.65808","1410588.56869","1411355.06934","1412121.67233","1412888.50349","1413655.08792","1414422.15745","1416713.97707","Mapping"
"Mixed","Both","ball","4","m150jolt.wav","None","733.557009837","112","1408305.58772","1415188.80125","1415938.21266","1416704.84657","1417471.46069","1418238.12334","1404421.80221","1405188.5904","1409055.00531","1409821.65808","1410588.56869","1411355.06934","1412121.67233","1412888.50349","1413655.08792","1414422.15745","1417480.45237","Mapping"
"Mixed","Both","ball","4","m160ball.wav","None","732.072978513","112","1408305.58772","1415188.80125","1415938.21266","1416704.84657","1417471.46069","1418238.12334","1419005.00149","1405188.5904","1409055.00531","1409821.65808","1410588.56869","1411355.06934","1412121.67233","1412888.50349","1413655.08792","1414422.15745","1418247.08689","Mapping"
"Mixed","Both","ball","4","m160cad.wav","space","556.820932776","112","1408305.58772","1415188.80125","1415938.21266","1416704.84657","1417471.46069","1418238.12334","1419005.00149","1419771.49627","1409055.00531","1409821.65808","1410588.56869","1411355.06934","1412121.67233","1412888.50349","1413655.08792","1414422.15745","1419014.61338","Mapping"
"Mixed","Both","tile","25","m160priest.wav","None","727.6972502","112","1422905.40166","1415188.80125","1415938.21266","1416704.84657","1417471.46069","1418238.12334","1419005.00149","1419771.49627","1409055.00531","1409821.65808","1410588.56869","1411355.06934","1412121.67233","1412888.50349","1413655.08792","1414422.15745","1419780.41777","Mapping"
"Mixed","Both","tile","25","m160cad.wav","None","719.921544194","112","1422905.40166","1415188.80125","1415938.21266","1416704.84657","1417471.46069","1418238.12334","1419005.00149","1419771.49627","1423671.91313","1409821.65808","1410588.56869","1411355.06934","1412121.67233","1412888.50349","1413655.08792","1414422.15745","1422915.02158","Mapping"
"Mixed","Both","tile","25","m150tile.wav","None","720.533088781","112","1422905.40166","1415188.80125","1415938.21266","1416704.84657","1417471.46069","1418238.12334","1419005.00149","1419771.49627","1423671.91313","1424421.9231","1410588.56869","1411355.06934","1412121.67233","1412888.50349","1413655.08792","1414422.15745","1423681.29963","Mapping"
"Mixed","Both","tile","25","m150lash.wav","space","636.332241353","112","1422905.40166","1415188.80125","1415938.21266","1416704.84657","1417471.46069","1418238.12334","1419005.00149","1419771.49627","1423671.91313","1424421.9231","1425187.45851","1411355.06934","1412121.67233","1412888.50349","1413655.08792","1414422.15745","1424430.99857","Mapping"
"Mixed","Both","tile","25","m160tile.wav","None","741.75380962","112","1422905.40166","1415188.80125","1415938.21266","1416704.84657","1417471.46069","1418238.12334","1419005.00149","1419771.49627","1423671.91313","1424421.9231","1425187.45851","1425954.80104","1412121.67233","1412888.50349","1413655.08792","1414422.15745","1425190.13966","Mapping"
"Mixed","Both","tile","25","m150knife.wav","space","598.708027042","112","1422905.40166","1415188.80125","1415938.21266","1416704.84657","1417471.46069","1418238.12334","1419005.00149","1419771.49627","1423671.91313","1424421.9231","1425187.45851","1425954.80104","1426721.45535","1412888.50349","1413655.08792","1414422.15745","1425964.54649","Mapping"
"Mixed","Both","tile","25","m160bluff.wav","None","730.374999112","112","1422905.40166","1415188.80125","1415938.21266","1416704.84657","1417471.46069","1418238.12334","1419005.00149","1419771.49627","1423671.91313","1424421.9231","1425187.45851","1425954.80104","1426721.45535","1427488.18572","1413655.08792","1414422.15745","1426730.4659","Mapping"
"Mixed","Both","tile","25","m150gnash.wav","None","734.647463774","112","1422905.40166","1415188.80125","1415938.21266","1416704.84657","1417471.46069","1418238.12334","1419005.00149","1419771.49627","1423671.91313","1424421.9231","1425187.45851","1425954.80104","1426721.45535","1427488.18572","1428254.56827","1414422.15745","1427491.76193","Mapping"
"Mixed","Both","tile","25","m160jolt.wav","None","728.393817553","112","1422905.40166","1415188.80125","1415938.21266","1416704.84657","1417471.46069","1418238.12334","1419005.00149","1419771.49627","1423671.91313","1424421.9231","1425187.45851","1425954.80104","1426721.45535","1427488.18572","1428254.56827","1429021.46373","1428263.34167","Mapping"
"Mixed","Both","tile","25","m150tile.wav","None","726.069144206","112","1422905.40166","1429788.1335","1415938.21266","1416704.84657","1417471.46069","1418238.12334","1419005.00149","1419771.49627","1423671.91313","1424421.9231","1425187.45851","1425954.80104","1426721.45535","1427488.18572","1428254.56827","1429021.46373","1429030.76923","Mapping"
"Mixed","Both","tile","25","m160greet.wav","space","365.49188057","112","1422905.40166","1429788.1335","1430555.2392","1416704.84657","1417471.46069","1418238.12334","1419005.00149","1419771.49627","1423671.91313","1424421.9231","1425187.45851","1425954.80104","1426721.45535","1427488.18572","1428254.56827","1429021.46373","1429797.73518","Mapping"
"Mixed","Both","tile","25","m160tile.wav","None","720.942743123","112","1422905.40166","1429788.1335","1430555.2392","1431321.52838","1417471.46069","1418238.12334","1419005.00149","1419771.49627","1423671.91313","1424421.9231","1425187.45851","1425954.80104","1426721.45535","1427488.18572","1428254.56827","1429021.46373","1430564.92931","Mapping"
"Mixed","Both","tile","25","m150dime.wav","None","720.193925779","112","1422905.40166","1429788.1335","1430555.2392","1431321.52838","1432071.32564","1418238.12334","1419005.00149","1419771.49627","1423671.91313","1424421.9231","1425187.45851","1425954.80104","1426721.45535","1427488.18572","1428254.56827","1429021.46373","1431331.17396","Mapping"
"Mixed","Both","tile","25","m150cling.wav","space","0.034318305552","112","1422905.40166","1429788.1335","1430555.2392","1431321.52838","1432071.32564","1432837.83989","1419005.00149","1419771.49627","1423671.91313","1424421.9231","1425187.45851","1425954.80104","1426721.45535","1427488.18572","1428254.56827","1429021.46373","1432080.33618","Mapping"
