"Condition","Talker","Target","Trial","current_stimulus","response_response","response_time_response","subject_nr","time_Audio1","time_Audio10","time_Audio11","time_Audio12","time_Audio13","time_Audio14","time_Audio15","time_Audio16","time_Audio2","time_Audio3","time_Audio4","time_Audio5","time_Audio6","time_Audio7","time_Audio8","time_Audio9","time_response","title"
"Blocked","m150","cave","10","m150bluff.wav","NA","NA","157","266328.105198","NA","NA","NA","NA","NA","NA","NA","NA","NA","NA","NA","NA","NA","NA","NA","NA","Mapping"
"Blocked","m150","cave","10","m150cave.wav","None","714.554033242","157","266328.105198","NA","NA","NA","NA","NA","NA","NA","267077.592201","NA","NA","NA","NA","NA","NA","NA","266342.567129","Mapping"
"Blocked","m150","cave","10","m150knife.wav","space","699.216521694","157","266328.105198","NA","NA","NA","NA","NA","NA","NA","267077.592201","267843.95362","NA","NA","NA","NA","NA","NA","267087.418065","Mapping"
"Blocked","m150","cave","10","m150depth.wav","None","730.874409433","157","266328.105198","NA","NA","NA","NA","NA","NA","NA","267077.592201","267843.95362","268610.559905","NA","NA","NA","NA","NA","267853.519469","Mapping"
"Blocked","m150","cave","10","m150ball.wav","None","728.196033742","157","266328.105198","NA","NA","NA","NA","NA","NA","NA","267077.592201","267843.95362","268610.559905","269377.483403","NA","NA","NA","NA","268619.986316","Mapping"
"Blocked","m150","cave","10","m150lash.wav","None","724.749051034","157","266328.105198","NA","NA","NA","NA","NA","NA","NA","267077.592201","267843.95362","268610.559905","269377.483403","270144.485431","NA","NA","NA","269387.132419","Mapping"
"Blocked","m150","cave","10","m150romp.wav","None","721.137587796","157","266328.105198","NA","NA","NA","NA","NA","NA","NA","267077.592201","267843.95362","268610.559905","269377.483403","270144.485431","270894.630974","NA","NA","270154.399718","Mapping"
"Blocked","m150","cave","10","m150cave.wav","None","735.201920033","157","266328.105198","NA","NA","NA","NA","NA","NA","NA","267077.592201","267843.95362","268610.559905","269377.483403","270144.485431","270894.630974","271660.422585","NA","270904.008536","Mapping"
"Blocked","m150","cave","10","m150done.wav","space","492.489077733","157","266328.105198","NA","NA","NA","NA","NA","NA","NA","267077.592201","267843.95362","268610.559905","269377.483403","270144.485431","270894.630974","271660.422585","272427.21994","271670.080568","Mapping"
"Blocked","m150","cave","10","m150cave.wav","None","729.573713732","157","266328.105198","273193.832099","NA","NA","NA","NA","NA","NA","267077.592201","267843.95362","268610.559905","269377.483403","270144.485431","270894.630974","271660.422585","272427.21994","272436.786716","Mapping"
"Blocked","m150","cave","10","m150priest.wav","space","623.070018948","157","266328.105198","273193.832099","273960.699327","NA","NA","NA","NA","NA","267077.592201","267843.95362","268610.559905","269377.483403","270144.485431","270894.630974","271660.422585","272427.21994","273203.467512","Mapping"
"Blocked","m150","cave","10","m150cave.wav","None","723.312627873","157","266328.105198","273193.832099","273960.699327","274726.894101","NA","NA","NA","NA","267077.592201","267843.95362","268610.559905","269377.483403","270144.485431","270894.630974","271660.422585","272427.21994","273970.275069","Mapping"
"Blocked","m150","cave","10","m150jaw.wav","space","450.607109815","157","266328.105198","273193.832099","273960.699327","274726.894101","275477.094369","NA","NA","NA","267077.592201","267843.95362","268610.559905","269377.483403","270144.485431","270894.630974","271660.422585","272427.21994","274735.941465","Mapping"
"Blocked","m150","cave","10","m150tile.wav","None","734.052410582","157","266328.105198","273193.832099","273960.699327","274726.894101","275477.094369","276243.837","NA","NA","267077.592201","267843.95362","268610.559905","269377.483403","270144.485431","270894.630974","271660.422585","272427.21994","275486.779559","Mapping"
"Blocked","m150","cave","10","m150greet.wav","None","731.139371754","157","266328.105198","273193.832099","273960.699327","274726.894101","275477.094369","276243.837","277010.416387","NA","267077.592201","267843.95362","268610.559905","269377.483403","270144.485431","270894.630974","271660.422585","272427.21994","276253.40594","Mapping"
"Blocked","m150","cave","10","m150dime.wav","None","728.679582127","157","266328.105198","273193.832099","273960.699327","274726.894101","275477.094369","276243.837","277010.416387","277776.832839","267077.592201","267843.95362","268610.559905","269377.483403","270144.485431","270894.630974","271660.422585","272427.21994","277019.481991","Mapping"
"Blocked","m150","ball","2","m150knife.wav","None","726.100142114","157","280927.409309","273193.832099","273960.699327","274726.894101","275477.094369","276243.837","277010.416387","277776.832839","267077.592201","267843.95362","268610.559905","269377.483403","270144.485431","270894.630974","271660.422585","272427.21994","277785.736745","Mapping"
"Blocked","m150","ball","2","m150ball.wav","None","721.260948223","157","280927.409309","273193.832099","273960.699327","274726.894101","275477.094369","276243.837","277010.416387","277776.832839","281694.043111","267843.95362","268610.559905","269377.483403","270144.485431","270894.630974","271660.422585","272427.21994","280937.141184","Mapping"
"Blocked","m150","ball","2","m150jaw.wav","space","377.914391574","157","280927.409309","273193.832099","273960.699327","274726.894101","275477.094369","276243.837","277010.416387","277776.832839","281694.043111","282443.770651","268610.559905","269377.483403","270144.485431","270894.630974","271660.422585","272427.21994","281704.497526","Mapping"
"Blocked","m150","ball","2","m150reek.wav","None","732.870437787","157","280927.409309","273193.832099","273960.699327","274726.894101","275477.094369","276243.837","277010.416387","277776.832839","281694.043111","282443.770651","283210.859557","269377.483403","270144.485431","270894.630974","271660.422585","272427.21994","282453.320731","Mapping"
"Blocked","m150","ball","2","m150ball.wav","None","729.886907269","157","280927.409309","273193.832099","273960.699327","274726.894101","275477.094369","276243.837","277010.416387","277776.832839","281694.043111","282443.770651","283210.859557","283977.155122","270144.485431","270894.630974","271660.422585","272427.21994","283220.375319","Mapping"
"Blocked","m150","ball","2","m150reek.wav","space","352.191720158","157","280927.409309","273193.832099","273960.699327","274726.894101","275477.094369","276243.837","277010.416387","277776.832839","281694.043111","282443.770651","283210.859557","283977.155122","284743.700808","270894.630974","271660.422585","272427.21994","283986.199084","Mapping"
"Blocked","m150","ball","2","m150cad.wav","None","725.165199488","157","280927.409309","273193.832099","273960.699327","274726.894101","275477.094369","276243.837","277010.416387","277776.832839","281694.043111","282443.770651","283210.859557","283977.155122","284743.700808","285510.662025","271660.422585","272427.21994","284752.970777","Mapping"
"Blocked","m150","ball","2","m150ball.wav","None","721.706777345","157","280927.409309","273193.832099","273960.699327","274726.894101","275477.094369","276243.837","277010.416387","277776.832839","281694.043111","282443.770651","283210.859557","283977.155122","284743.700808","285510.662025","286260.381836","272427.21994","285520.247352","Mapping"
"Blocked","m150","ball","2","m150done.wav","space","412.484699744","157","280927.409309","273193.832099","273960.699327","274726.894101","275477.094369","276243.837","277010.416387","277776.832839","281694.043111","282443.770651","283210.859557","283977.155122","284743.700808","285510.662025","286260.381836","287026.889804","286269.87472","Mapping"
"Blocked","m150","ball","2","m150ball.wav","None","733.196307323","157","280927.409309","287793.657169","273960.699327","274726.894101","275477.094369","276243.837","277010.416387","277776.832839","281694.043111","282443.770651","283210.859557","283977.155122","284743.700808","285510.662025","286260.381836","287026.889804","287036.250051","Mapping"
"Blocked","m150","ball","2","m150priest.wav","space","423.188308952","157","280927.409309","287793.657169","288560.155861","274726.894101","275477.094369","276243.837","277010.416387","277776.832839","281694.043111","282443.770651","283210.859557","283977.155122","284743.700808","285510.662025","286260.381836","287026.889804","287803.147269","Mapping"
"Blocked","m150","ball","2","m150bluff.wav","None","727.116706781","157","280927.409309","287793.657169","288560.155861","289327.293616","275477.094369","276243.837","277010.416387","277776.832839","281694.043111","282443.770651","283210.859557","283977.155122","284743.700808","285510.662025","286260.381836","287026.889804","288569.699449","Mapping"
"Blocked","m150","ball","2","m150greet.wav","None","723.714554333","157","280927.409309","287793.657169","288560.155861","289327.293616","290093.988634","276243.837","277010.416387","277776.832839","281694.043111","282443.770651","283210.859557","283977.155122","284743.700808","285510.662025","286260.381836","287026.889804","289337.016216","Mapping"
"Blocked","m150","ball","2","m150depth.wav","None","720.787602593","157","280927.409309","287793.657169","288560.155861","289327.293616","290093.988634","290843.539018","277010.416387","277776.832839","281694.043111","282443.770651","283210.859557","283977.155122","284743.700808","285510.662025","286260.381836","287026.889804","290103.834594","Mapping"
"Blocked","m150","ball","2","m150knife.wav","None","735.827997793","157","280927.409309","287793.657169","288560.155861","289327.293616","290093.988634","290843.539018","291610.104801","277776.832839","281694.043111","282443.770651","283210.859557","283977.155122","284743.700808","285510.662025","286260.381836","287026.889804","290852.857218","Mapping"
"Blocked","m150","ball","2","m150depth.wav","None","732.941238675","157","280927.409309","287793.657169","288560.155861","289327.293616","290093.988634","290843.539018","291610.104801","292376.759317","281694.043111","282443.770651","283210.859557","283977.155122","284743.700808","285510.662025","286260.381836","287026.889804","291619.652408","Mapping"
"Blocked","m150","ball","1","m150dime.wav","None","730.142594199","157","295510.494144","287793.657169","288560.155861","289327.293616","290093.988634","290843.539018","291610.104801","292376.759317","281694.043111","282443.770651","283210.859557","283977.155122","284743.700808","285510.662025","286260.381836","287026.889804","292386.310325","Mapping"
"Blocked","m150","ball","1","m150bluff.wav","None","720.611682511","157","295510.494144","287793.657169","288560.155861","289327.293616","290093.988634","290843.539018","291610.104801","292376.759317","296276.368923","282443.770651","283210.859557","283977.155122","284743.700808","285510.662025","286260.381836","287026.889804","295520.003104","Mapping"
"Blocked","m150","ball","1","m150cling.wav","None","721.264658379","157","295510.494144","287793.657169","288560.155861","289327.293616","290093.988634","290843.539018","291610.104801","292376.759317","296276.368923","297026.469636","283210.859557","283977.155122","284743.700808","285510.662025","286260.381836","287026.889804","296285.016833","Mapping"
"Blocked","m150","ball","1","m150reek.wav","None","734.801848652","157","295510.494144","287793.657169","288560.155861","289327.293616","290093.988634","290843.539018","291610.104801","292376.759317","296276.368923","297026.469636","297793.515567","283977.155122","284743.700808","285510.662025","286260.381836","287026.889804","297035.335514","Mapping"
"Blocked","m150","ball","1","m150ball.wav","None","731.33075051","157","295510.494144","287793.657169","288560.155861","289327.293616","290093.988634","290843.539018","291610.104801","292376.759317","296276.368923","297026.469636","297793.515567","298560.028172","284743.700808","285510.662025","286260.381836","287026.889804","297802.782753","Mapping"
"Blocked","m150","ball","1","m150jolt.wav","space","328.637905535","157","295510.494144","287793.657169","288560.155861","289327.293616","290093.988634","290843.539018","291610.104801","292376.759317","296276.368923","297026.469636","297793.515567","298560.028172","299326.743286","285510.662025","286260.381836","287026.889804","298569.541461","Mapping"
"Blocked","m150","ball","1","m150park.wav","None","725.064099533","157","295510.494144","287793.657169","288560.155861","289327.293616","290093.988634","290843.539018","291610.104801","292376.759317","296276.368923","297026.469636","297793.515567","298560.028172","299326.743286","300093.773758","286260.381836","287026.889804","299336.587082","Mapping"
"Blocked","m150","ball","1","m150park.wav","None","721.956590074","157","295510.494144","287793.657169","288560.155861","289327.293616","290093.988634","290843.539018","291610.104801","292376.759317","296276.368923","297026.469636","297793.515567","298560.028172","299326.743286","300093.773758","300860.293474","287026.889804","300103.557574","Mapping"
"Blocked","m150","ball","1","m150ball.wav","None","719.603774836","157","295510.494144","287793.657169","288560.155861","289327.293616","290093.988634","290843.539018","291610.104801","292376.759317","296276.368923","297026.469636","297793.515567","298560.028172","299326.743286","300093.773758","300860.293474","301609.930117","300869.933215","Mapping"
"Blocked","m150","ball","1","m150bluff.wav","space","519.07218073","157","295510.494144","302376.711086","288560.155861","289327.293616","290093.988634","290843.539018","291610.104801","292376.759317","296276.368923","297026.469636","297793.515567","298560.028172","299326.743286","300093.773758","300860.293474","301609.930117","301619.046736","Mapping"
"Blocked","m150","ball","1","m150ball.wav","None","730.65427749","157","295510.494144","302376.711086","303143.761345","289327.293616","290093.988634","290843.539018","291610.104801","292376.759317","296276.368923","297026.469636","297793.515567","298560.028172","299326.743286","300093.773758","300860.293474","301609.930117","302386.560138","Mapping"
"Blocked","m150","ball","1","m150bluff.wav","space","553.104835097","157","295510.494144","302376.711086","303143.761345","303909.737533","290093.988634","290843.539018","291610.104801","292376.759317","296276.368923","297026.469636","297793.515567","298560.028172","299326.743286","300093.773758","300860.293474","301609.930117","303153.004725","Mapping"
"Blocked","m150","ball","1","m150jaw.wav","None","725.93349719","157","295510.494144","302376.711086","303143.761345","303909.737533","304677.009779","290843.539018","291610.104801","292376.759317","296276.368923","297026.469636","297793.515567","298560.028172","299326.743286","300093.773758","300860.293474","301609.930117","303918.713477","Mapping"
"Blocked","m150","ball","1","m150ball.wav","None","721.84899752","157","295510.494144","302376.711086","303143.761345","303909.737533","304677.009779","305443.730149","291610.104801","292376.759317","296276.368923","297026.469636","297793.515567","298560.028172","299326.743286","300093.773758","300860.293474","301609.930117","304686.869961","Mapping"
"Blocked","m150","ball","1","m150park.wav","space","356.106174178","157","295510.494144","302376.711086","303143.761345","303909.737533","304677.009779","305443.730149","306193.353498","292376.759317","296276.368923","297026.469636","297793.515567","298560.028172","299326.743286","300093.773758","300860.293474","301609.930117","305453.949901","Mapping"
"Blocked","m150","ball","1","m150tile.wav","None","733.812182327","157","295510.494144","302376.711086","303143.761345","303909.737533","304677.009779","305443.730149","306193.353498","306959.744597","296276.368923","297026.469636","297793.515567","298560.028172","299326.743286","300093.773758","300860.293474","301609.930117","306202.610481","Mapping"
"Blocked","m150","tile","17","m150cave.wav","None","731.616118224","157","310093.736966","302376.711086","303143.761345","303909.737533","304677.009779","305443.730149","306193.353498","306959.744597","296276.368923","297026.469636","297793.515567","298560.028172","299326.743286","300093.773758","300860.293474","301609.930117","306968.778975","Mapping"
"Blocked","m150","tile","17","m150depth.wav","None","719.904601225","157","310093.736966","302376.711086","303143.761345","303909.737533","304677.009779","305443.730149","306193.353498","306959.744597","310843.217786","297026.469636","297793.515567","298560.028172","299326.743286","300093.773758","300860.293474","301609.930117","310103.471624","Mapping"
"Blocked","m150","tile","17","m150jolt.wav","None","734.943141346","157","310093.736966","302376.711086","303143.761345","303909.737533","304677.009779","305443.730149","306193.353498","306959.744597","310843.217786","311609.904765","297793.515567","298560.028172","299326.743286","300093.773758","300860.293474","301609.930117","310852.498885","Mapping"
"Blocked","m150","tile","17","m150tile.wav","None","732.090391451","157","310093.736966","302376.711086","303143.761345","303909.737533","304677.009779","305443.730149","306193.353498","306959.744597","310843.217786","311609.904765","312376.233103","298560.028172","299326.743286","300093.773758","300860.293474","301609.930117","311619.354673","Mapping"
"Blocked","m150","tile","17","m150knife.wav","space","712.675800314","157","310093.736966","302376.711086","303143.761345","303909.737533","304677.009779","305443.730149","306193.353498","306959.744597","310843.217786","311609.904765","312376.233103","313142.955946","299326.743286","300093.773758","300860.293474","301609.930117","312385.268099","Mapping"
"Blocked","m150","tile","17","m150priest.wav","None","727.417224087","157","310093.736966","302376.711086","303143.761345","303909.737533","304677.009779","305443.730149","306193.353498","306959.744597","310843.217786","311609.904765","312376.233103","313142.955946","313910.155227","300093.773758","300860.293474","301609.930117","313151.68115","Mapping"
"Blocked","m150","tile","17","m150tile.wav","None","723.584391992","157","310093.736966","302376.711086","303143.761345","303909.737533","304677.009779","305443.730149","306193.353498","306959.744597","310843.217786","311609.904765","312376.233103","313142.955946","313910.155227","314677.015653","300860.293474","301609.930117","313919.496615","Mapping"
"Blocked","m150","tile","17","m150done.wav","space","523.048778647","157","310093.736966","302376.711086","303143.761345","303909.737533","304677.009779","305443.730149","306193.353498","306959.744597","310843.217786","311609.904765","312376.233103","313142.955946","313910.155227","314677.015653","315426.306021","301609.930117","314686.852957","Mapping"
"Blocked","m150","tile","17","m150reek.wav","None","734.735067119","157","310093.736966","302376.711086","303143.761345","303909.737533","304677.009779","305443.730149","306193.353498","306959.744597","310843.217786","311609.904765","312376.233103","313142.955946","313910.155227","314677.015653","315426.306021","316193.202312","315436.124774","Mapping"
"Blocked","m150","tile","17","m150tile.wav","None","732.530346257","157","310093.736966","316959.732231","303143.761345","303909.737533","304677.009779","305443.730149","306193.353498","306959.744597","310843.217786","311609.904765","312376.233103","313142.955946","313910.155227","314677.015653","315426.306021","316193.202312","316202.465478","Mapping"
"Blocked","m150","tile","17","m150greet.wav","space","425.082928268","157","310093.736966","316959.732231","317726.412408","303909.737533","304677.009779","305443.730149","306193.353498","306959.744597","310843.217786","311609.904765","312376.233103","313142.955946","313910.155227","314677.015653","315426.306021","316193.202312","316968.800618","Mapping"
"Blocked","m150","tile","17","m150cad.wav","None","726.974486606","157","310093.736966","316959.732231","317726.412408","318493.539342","304677.009779","305443.730149","306193.353498","306959.744597","310843.217786","311609.904765","312376.233103","313142.955946","313910.155227","314677.015653","315426.306021","316193.202312","317735.794916","Mapping"
"Blocked","m150","tile","17","m150reek.wav","None","723.225749913","157","310093.736966","316959.732231","317726.412408","318493.539342","319259.980528","305443.730149","306193.353498","306959.744597","310843.217786","311609.904765","312376.233103","313142.955946","313910.155227","314677.015653","315426.306021","316193.202312","318503.698805","Mapping"
"Blocked","m150","tile","17","m150dime.wav","None","721.519417828","157","310093.736966","316959.732231","317726.412408","318493.539342","319259.980528","320009.68519","306193.353498","306959.744597","310843.217786","311609.904765","312376.233103","313142.955946","313910.155227","314677.015653","315426.306021","316193.202312","319269.618414","Mapping"
"Blocked","m150","tile","17","m150tile.wav","None","736.390694743","157","310093.736966","316959.732231","317726.412408","318493.539342","319259.980528","320009.68519","320776.295494","306959.744597","310843.217786","311609.904765","312376.233103","313142.955946","313910.155227","314677.015653","315426.306021","316193.202312","320018.771509","Mapping"
"Blocked","m150","tile","17","m150lash.wav","space","464.114001137","157","310093.736966","316959.732231","317726.412408","318493.539342","319259.980528","320009.68519","320776.295494","321543.128094","310843.217786","311609.904765","312376.233103","313142.955946","313910.155227","314677.015653","315426.306021","316193.202312","320785.725924","Mapping"
"Blocked","m150","tile","13","m150cling.wav","None","730.615939829","157","324676.797067","316959.732231","317726.412408","318493.539342","319259.980528","320009.68519","320776.295494","321543.128094","310843.217786","311609.904765","312376.233103","313142.955946","313910.155227","314677.015653","315426.306021","316193.202312","321552.250587","Mapping"
"Blocked","m150","tile","13","m150jaw.wav","None","720.616629231","157","324676.797067","316959.732231","317726.412408","318493.539342","319259.980528","320009.68519","320776.295494","321543.128094","325426.380841","311609.904765","312376.233103","313142.955946","313910.155227","314677.015653","315426.306021","316193.202312","324686.712901","Mapping"
"Blocked","m150","tile","13","m150tile.wav","None","735.56489055","157","324676.797067","316959.732231","317726.412408","318493.539342","319259.980528","320009.68519","320776.295494","321543.128094","325426.380841","326193.066584","312376.233103","313142.955946","313910.155227","314677.015653","315426.306021","316193.202312","325435.829204","Mapping"
"Blocked","m150","tile","13","m150ball.wav","space","615.450112731","157","324676.797067","316959.732231","317726.412408","318493.539342","319259.980528","320009.68519","320776.295494","321543.128094","325426.380841","326193.066584","326959.586919","313142.955946","313910.155227","314677.015653","315426.306021","316193.202312","326202.28894","Mapping"
"Blocked","m150","tile","13","m150cling.wav","None","730.700344429","157","324676.797067","316959.732231","317726.412408","318493.539342","319259.980528","320009.68519","320776.295494","321543.128094","325426.380841","326193.066584","326959.586919","327726.33666","313910.155227","314677.015653","315426.306021","316193.202312","326968.64634","Mapping"
"Blocked","m150","tile","13","m150tile.wav","None","727.834300022","157","324676.797067","316959.732231","317726.412408","318493.539342","319259.980528","320009.68519","320776.295494","321543.128094","325426.380841","326193.066584","326959.586919","327726.33666","328493.036934","314677.015653","315426.306021","316193.202312","327735.734318","Mapping"
"Blocked","m150","tile","13","m150ball.wav","space","435.083784745","157","324676.797067","316959.732231","317726.412408","318493.539342","319259.980528","320009.68519","320776.295494","321543.128094","325426.380841","326193.066584","326959.586919","327726.33666","328493.036934","329259.946519","315426.306021","316193.202312","328502.636792","Mapping"
"Blocked","m150","tile","13","m150done.wav","None","722.095100209","157","324676.797067","316959.732231","317726.412408","318493.539342","319259.980528","320009.68519","320776.295494","321543.128094","325426.380841","326193.066584","326959.586919","327726.33666","328493.036934","329259.946519","330026.596088","316193.202312","329269.525353","Mapping"
"Blocked","m150","tile","13","m150tile.wav","None","719.595427043","157","324676.797067","316959.732231","317726.412408","318493.539342","319259.980528","320009.68519","320776.295494","321543.128094","325426.380841","326193.066584","326959.586919","327726.33666","328493.036934","329259.946519","330026.596088","330776.269832","330036.152352","Mapping"
"Blocked","m150","tile","13","m150jolt.wav","space","408.032901003","157","324676.797067","331542.574054","317726.412408","318493.539342","319259.980528","320009.68519","320776.295494","321543.128094","325426.380841","326193.066584","326959.586919","327726.33666","328493.036934","329259.946519","330026.596088","330776.269832","330785.673055","Mapping"
"Blocked","m150","tile","13","m150gnash.wav","None","732.165520662","157","324676.797067","331542.574054","332309.544546","318493.539342","319259.980528","320009.68519","320776.295494","321543.128094","325426.380841","326193.066584","326959.586919","327726.33666","328493.036934","329259.946519","330026.596088","330776.269832","331551.561438","Mapping"
"Blocked","m150","tile","13","m150done.wav","None","728.734924342","157","324676.797067","331542.574054","332309.544546","333076.220396","319259.980528","320009.68519","320776.295494","321543.128094","325426.380841","326193.066584","326959.586919","327726.33666","328493.036934","329259.946519","330026.596088","330776.269832","332319.229736","Mapping"
"Blocked","m150","tile","13","m150depth.wav","None","726.197841112","157","324676.797067","331542.574054","332309.544546","333076.220396","333843.282403","320009.68519","320776.295494","321543.128094","325426.380841","326193.066584","326959.586919","327726.33666","328493.036934","329259.946519","330026.596088","330776.269832","333085.772949","Mapping"
"Blocked","m150","tile","13","m150tile.wav","None","722.97964734","157","324676.797067","331542.574054","332309.544546","333076.220396","333843.282403","334609.385662","320776.295494","321543.128094","325426.380841","326193.066584","326959.586919","327726.33666","328493.036934","329259.946519","330026.596088","330776.269832","333853.061273","Mapping"
"Blocked","m150","tile","13","m150reek.wav","space","559.305322706","157","324676.797067","331542.574054","332309.544546","333076.220396","333843.282403","334609.385662","335359.140718","321543.128094","325426.380841","326193.066584","326959.586919","327726.33666","328493.036934","329259.946519","330026.596088","330776.269832","334618.323577","Mapping"
"Blocked","m150","tile","13","m150reek.wav","None","735.510785016","157","324676.797067","331542.574054","332309.544546","333076.220396","333843.282403","334609.385662","335359.140718","336126.102245","325426.380841","326193.066584","326959.586919","327726.33666","328493.036934","329259.946519","330026.596088","330776.269832","335368.730373","Mapping"
"Blocked","m150","ball","6","m150done.wav","None","732.942166273","157","339259.778328","331542.574054","332309.544546","333076.220396","333843.282403","334609.385662","335359.140718","336126.102245","325426.380841","326193.066584","326959.586919","327726.33666","328493.036934","329259.946519","330026.596088","330776.269832","336135.648306","Mapping"
"Blocked","m150","ball","6","m150cave.wav","None","719.810303068","157","339259.778328","331542.574054","332309.544546","333076.220396","333843.282403","334609.385662","335359.140718","336126.102245","340009.312326","326193.066584","326959.586919","327726.33666","328493.036934","329259.946519","330026.596088","330776.269832","339269.273376","Mapping"
"Blocked","m150","ball","6","m150cave.wav","None","734.483708511","157","339259.778328","331542.574054","332309.544546","333076.220396","333843.282403","334609.385662","335359.140718","336126.102245","340009.312326","340775.935615","326959.586919","327726.33666","328493.036934","329259.946519","330026.596088","330776.269832","340018.784803","Mapping"
"Blocked","m150","ball","6","m150bluff.wav","None","732.353807776","157","339259.778328","331542.574054","332309.544546","333076.220396","333843.282403","334609.385662","335359.140718","336126.102245","340009.312326","340775.935615","341542.870861","327726.33666","328493.036934","329259.946519","330026.596088","330776.269832","340785.052233","Mapping"
"Blocked","m150","ball","6","m150ball.wav","None","729.386972496","157","339259.778328","331542.574054","332309.544546","333076.220396","333843.282403","334609.385662","335359.140718","336126.102245","340009.312326","340775.935615","341542.870861","342309.379138","328493.036934","329259.946519","330026.596088","330776.269832","341552.350759","Mapping"
"Blocked","m150","ball","6","m150park.wav","space","570.362318074","157","339259.778328","331542.574054","332309.544546","333076.220396","333843.282403","334609.385662","335359.140718","336126.102245","340009.312326","340775.935615","341542.870861","342309.379138","343075.873811","329259.946519","330026.596088","330776.269832","342319.155534","Mapping"
"Blocked","m150","ball","6","m150romp.wav","None","724.468011758","157","339259.778328","331542.574054","332309.544546","333076.220396","333843.282403","334609.385662","335359.140718","336126.102245","340009.312326","340775.935615","341542.870861","342309.379138","343075.873811","343843.400199","330026.596088","330776.269832","343085.093694","Mapping"
"Blocked","m150","ball","6","m150done.wav","None","720.354758785","157","339259.778328","331542.574054","332309.544546","333076.220396","333843.282403","334609.385662","335359.140718","336126.102245","340009.312326","340775.935615","341542.870861","342309.379138","343075.873811","343843.400199","344593.023856","330776.269832","343853.361171","Mapping"
"Blocked","m150","ball","6","m150ball.wav","None","735.889523407","157","339259.778328","331542.574054","332309.544546","333076.220396","333843.282403","334609.385662","335359.140718","336126.102245","340009.312326","340775.935615","341542.870861","342309.379138","343075.873811","343843.400199","344593.023856","345359.01272","344602.398017","Mapping"
"Blocked","m150","ball","6","m150lash.wav","space","414.683237206","157","339259.778328","346126.001763","332309.544546","333076.220396","333843.282403","334609.385662","335359.140718","336126.102245","340009.312326","340775.935615","341542.870861","342309.379138","343075.873811","343843.400199","344593.023856","345359.01272","345362.80536","Mapping"
"Blocked","m150","ball","6","m150ball.wav","None","730.315731722","157","339259.778328","346126.001763","346892.739447","333076.220396","333843.282403","334609.385662","335359.140718","336126.102245","340009.312326","340775.935615","341542.870861","342309.379138","343075.873811","343843.400199","344593.023856","345359.01272","346135.63563","Mapping"
"Blocked","m150","ball","6","m150lash.wav","space","547.445402131","157","339259.778328","346126.001763","346892.739447","347659.327181","333843.282403","334609.385662","335359.140718","336126.102245","340009.312326","340775.935615","341542.870861","342309.379138","343075.873811","343843.400199","344593.023856","345359.01272","346902.003541","Mapping"
"Blocked","m150","ball","6","m150cling.wav","None","725.411920459","157","339259.778328","346126.001763","346892.739447","347659.327181","348425.794647","334609.385662","335359.140718","336126.102245","340009.312326","340775.935615","341542.870861","342309.379138","343075.873811","343843.400199","344593.023856","345359.01272","347668.352284","Mapping"
"Blocked","m150","ball","6","m150jolt.wav","None","723.003763007","157","339259.778328","346126.001763","346892.739447","347659.327181","348425.794647","349193.203857","335359.140718","336126.102245","340009.312326","340775.935615","341542.870861","342309.379138","343075.873811","343843.400199","344593.023856","345359.01272","348435.098625","Mapping"
"Blocked","m150","ball","6","m150ball.wav","None","719.462172943","157","339259.778328","346126.001763","346892.739447","347659.327181","348425.794647","349193.203857","349942.475057","336126.102245","340009.312326","340775.935615","341542.870861","342309.379138","343075.873811","343843.400199","344593.023856","345359.01272","349202.94779","Mapping"
"Blocked","m150","ball","6","m150priest.wav","space","601.241396042","157","339259.778328","346126.001763","346892.739447","347659.327181","348425.794647","349193.203857","349942.475057","350709.262518","340009.312326","340775.935615","341542.870861","342309.379138","343075.873811","343843.400199","344593.023856","345359.01272","349952.182198","Mapping"
"Blocked","m150","cave","11","m150greet.wav","None","731.562940287","157","353843.1037","346126.001763","346892.739447","347659.327181","348425.794647","349193.203857","349942.475057","350709.262518","340009.312326","340775.935615","341542.870861","342309.379138","343075.873811","343843.400199","344593.023856","345359.01272","350718.759729","Mapping"
"Blocked","m150","cave","11","m150bluff.wav","None","719.879867393","157","353843.1037","346126.001763","346892.739447","347659.327181","348425.794647","349193.203857","349942.475057","350709.262518","354592.231443","340775.935615","341542.870861","342309.379138","343075.873811","343843.400199","344593.023856","345359.01272","353852.881333","Mapping"
"Blocked","m150","cave","11","m150cave.wav","None","734.82194508","157","353843.1037","346126.001763","346892.739447","347659.327181","348425.794647","349193.203857","349942.475057","350709.262518","354592.231443","355359.239654","341542.870861","342309.379138","343075.873811","343843.400199","344593.023856","345359.01272","354602.176339","Mapping"
"Blocked","m150","cave","11","m150romp.wav","space","424.681620207","157","353843.1037","346126.001763","346892.739447","347659.327181","348425.794647","349193.203857","349942.475057","350709.262518","354592.231443","355359.239654","356125.831099","342309.379138","343075.873811","343843.400199","344593.023856","345359.01272","355368.651534","Mapping"
"Blocked","m150","cave","11","m150cling.wav","None","729.227438685","157","353843.1037","346126.001763","346892.739447","347659.327181","348425.794647","349193.203857","349942.475057","350709.262518","354592.231443","355359.239654","356125.831099","356892.601864","343075.873811","343843.400199","344593.023856","345359.01272","356135.515052","Mapping"
"Blocked","m150","cave","11","m150cave.wav","None","726.682935492","157","353843.1037","346126.001763","346892.739447","347659.327181","348425.794647","349193.203857","349942.475057","350709.262518","354592.231443","355359.239654","356125.831099","356892.601864","357659.146315","343843.400199","344593.023856","345359.01272","356902.163075","Mapping"
"Blocked","m150","cave","11","m150jaw.wav","space","444.751969655","157","353843.1037","346126.001763","346892.739447","347659.327181","348425.794647","349193.203857","349942.475057","350709.262518","354592.231443","355359.239654","356125.831099","356892.601864","357659.146315","358426.168748","344593.023856","345359.01272","357668.555102","Mapping"
"Blocked","m150","cave","11","m150cave.wav","None","720.587566961","157","353843.1037","346126.001763","346892.739447","347659.327181","348425.794647","349193.203857","349942.475057","350709.262518","354592.231443","355359.239654","356125.831099","356892.601864","357659.146315","358426.168748","359175.490343","345359.01272","358436.188773","Mapping"
"Blocked","m150","cave","11","m150done.wav","space","560.486986418","157","353843.1037","346126.001763","346892.739447","347659.327181","348425.794647","349193.203857","349942.475057","350709.262518","354592.231443","355359.239654","356125.831099","356892.601864","357659.146315","358426.168748","359175.490343","359942.152897","359184.745471","Mapping"
"Blocked","m150","cave","11","m150cave.wav","None","734.875123017","157","353843.1037","360709.055062","346892.739447","347659.327181","348425.794647","349193.203857","349942.475057","350709.262518","354592.231443","355359.239654","356125.831099","356892.601864","357659.146315","358426.168748","359175.490343","359942.152897","359950.794933","Mapping"
"Blocked","m150","cave","11","m150greet.wav","space","482.722266112","157","353843.1037","360709.055062","361475.525619","347659.327181","348425.794647","349193.203857","349942.475057","350709.262518","354592.231443","355359.239654","356125.831099","356892.601864","357659.146315","358426.168748","359175.490343","359942.152897","360718.560003","Mapping"
"Blocked","m150","cave","11","m150lash.wav","None","728.778208722","157","353843.1037","360709.055062","361475.525619","362242.57155","348425.794647","349193.203857","349942.475057","350709.262518","354592.231443","355359.239654","356125.831099","356892.601864","357659.146315","358426.168748","359175.490343","359942.152897","361484.71984","Mapping"
"Blocked","m150","cave","11","m150reek.wav","None","725.593405776","157","353843.1037","360709.055062","361475.525619","362242.57155","363008.995113","349193.203857","349942.475057","350709.262518","354592.231443","355359.239654","356125.831099","356892.601864","357659.146315","358426.168748","359175.490343","359942.152897","362252.434824","Mapping"
"Blocked","m150","cave","11","m150ball.wav","None","724.171204609","157","353843.1037","360709.055062","361475.525619","362242.57155","363008.995113","363775.939016","349942.475057","350709.262518","354592.231443","355359.239654","356125.831099","356892.601864","357659.146315","358426.168748","359175.490343","359942.152897","363018.099673","Mapping"
"Blocked","m150","cave","11","m150reek.wav","None","720.530369668","157","353843.1037","360709.055062","361475.525619","362242.57155","363008.995113","363775.939016","364542.387931","350709.262518","354592.231443","355359.239654","356125.831099","356892.601864","357659.146315","358426.168748","359175.490343","359942.152897","363786.044064","Mapping"
"Blocked","m150","cave","11","m150priest.wav","None","719.900891185","157","353843.1037","360709.055062","361475.525619","362242.57155","363008.995113","363775.939016","364542.387931","365292.379506","354592.231443","355359.239654","356125.831099","356892.601864","357659.146315","358426.168748","359175.490343","359942.152897","364551.691909","Mapping"
"Blocked","m150","done","19","m150park.wav","None","734.056120738","157","368425.973659","360709.055062","361475.525619","362242.57155","363008.995113","363775.939016","364542.387931","365292.379506","354592.231443","355359.239654","356125.831099","356892.601864","357659.146315","358426.168748","359175.490343","359942.152897","365301.971944","Mapping"
"Blocked","m150","done","19","m150park.wav","None","720.754830167","157","368425.973659","360709.055062","361475.525619","362242.57155","363008.995113","363775.939016","364542.387931","365292.379506","369175.2665","355359.239654","356125.831099","356892.601864","357659.146315","358426.168748","359175.490343","359942.152897","368435.746654","Mapping"
"Blocked","m150","done","19","m150cling.wav","None","736.572179943","157","368425.973659","360709.055062","361475.525619","362242.57155","363008.995113","363775.939016","364542.387931","365292.379506","369175.2665","369942.348914","356125.831099","356892.601864","357659.146315","358426.168748","359175.490343","359942.152897","369184.410635","Mapping"
"Blocked","m150","done","19","m150done.wav","None","733.392014634","157","368425.973659","360709.055062","361475.525619","362242.57155","363008.995113","363775.939016","364542.387931","365292.379506","369175.2665","369942.348914","370708.674778","356892.601864","357659.146315","358426.168748","359175.490343","359942.152897","369951.892192","Mapping"
"Blocked","m150","done","19","m150greet.wav","space","587.163460092","157","368425.973659","360709.055062","361475.525619","362242.57155","363008.995113","363775.939016","364542.387931","365292.379506","369175.2665","369942.348914","370708.674778","371475.530875","357659.146315","358426.168748","359175.490343","359942.152897","370717.92836","Mapping"
"Blocked","m150","done","19","m150done.wav","None","728.315684129","157","368425.973659","360709.055062","361475.525619","362242.57155","363008.995113","363775.939016","364542.387931","365292.379506","369175.2665","369942.348914","370708.674778","371475.530875","372242.352345","358426.168748","359175.490343","359942.152897","371484.982329","Mapping"
"Blocked","m150","done","19","m150jolt.wav","space","381.286863238","157","368425.973659","360709.055062","361475.525619","362242.57155","363008.995113","363775.939016","364542.387931","365292.379506","369175.2665","369942.348914","370708.674778","371475.530875","372242.352345","373009.319127","359175.490343","359942.152897","372251.764225","Mapping"
"Blocked","m150","done","19","m150priest.wav","None","722.333782469","157","368425.973659","360709.055062","361475.525619","362242.57155","363008.995113","363775.939016","364542.387931","365292.379506","369175.2665","369942.348914","370708.674778","371475.530875","372242.352345","373009.319127","373775.962822","359942.152897","373019.076355","Mapping"
"Blocked","m150","done","19","m150reek.wav","None","719.686324243","157","368425.973659","360709.055062","361475.525619","362242.57155","363008.995113","363775.939016","364542.387931","365292.379506","369175.2665","369942.348914","370708.674778","371475.530875","372242.352345","373009.319127","373775.962822","374525.279161","373785.968316","Mapping"
"Blocked","m150","done","19","m150depth.wav","None","735.771109699","157","368425.973659","375292.337459","361475.525619","362242.57155","363008.995113","363775.939016","364542.387931","365292.379506","369175.2665","369942.348914","370708.674778","371475.530875","372242.352345","373009.319127","373775.962822","374525.279161","374534.843464","Mapping"
"Blocked","m150","done","19","m150gnash.wav","None","733.009257005","157","368425.973659","375292.337459","376058.883146","362242.57155","363008.995113","363775.939016","364542.387931","365292.379506","369175.2665","369942.348914","370708.674778","371475.530875","372242.352345","373009.319127","373775.962822","374525.279161","375301.943809","Mapping"
"Blocked","m150","done","19","m150done.wav","None","736.300725024","157","368425.973659","375292.337459","376058.883146","376825.213647","363008.995113","363775.939016","364542.387931","365292.379506","369175.2665","369942.348914","370708.674778","371475.530875","372242.352345","373009.319127","373775.962822","374525.279161","376063.05205","Mapping"
"Blocked","m150","done","19","m150cave.wav","space","366.647157818","157","368425.973659","375292.337459","376058.883146","376825.213647","377592.348002","363775.939016","364542.387931","365292.379506","369175.2665","369942.348914","370708.674778","371475.530875","372242.352345","373009.319127","373775.962822","374525.279161","376834.350671","Mapping"
"Blocked","m150","done","19","m150priest.wav","None","725.070901448","157","368425.973659","375292.337459","376058.883146","376825.213647","377592.348002","378359.193587","364542.387931","365292.379506","369175.2665","369942.348914","370708.674778","371475.530875","372242.352345","373009.319127","373775.962822","374525.279161","377602.194271","Mapping"
"Blocked","m150","done","19","m150done.wav","None","722.77651995","157","368425.973659","375292.337459","376058.883146","376825.213647","377592.348002","378359.193587","379125.801109","365292.379506","369175.2665","369942.348914","370708.674778","371475.530875","372242.352345","373009.319127","373775.962822","374525.279161","378368.874758","Mapping"
"Blocked","m150","done","19","m150jaw.wav","space","529.279874638","157","368425.973659","375292.337459","376058.883146","376825.213647","377592.348002","378359.193587","379125.801109","379875.364169","369175.2665","369942.348914","370708.674778","371475.530875","372242.352345","373009.319127","373775.962822","374525.279161","379135.681697","Mapping"
"Blocked","m150","tile","16","m150dime.wav","None","734.543379163","157","383009.162376","375292.337459","376058.883146","376825.213647","377592.348002","378359.193587","379125.801109","379875.364169","369175.2665","369942.348914","370708.674778","371475.530875","372242.352345","373009.319127","373775.962822","374525.279161","379884.904356","Mapping"
"Blocked","m150","tile","16","m150tile.wav","None","720.81913834","157","383009.162376","375292.337459","376058.883146","376825.213647","377592.348002","378359.193587","379125.801109","379875.364169","383758.57023","369942.348914","370708.674778","371475.530875","372242.352345","373009.319127","373775.962822","374525.279161","383018.69638","Mapping"
"Blocked","m150","tile","16","m150priest.wav","space","600.498450571","157","383009.162376","375292.337459","376058.883146","376825.213647","377592.348002","378359.193587","379125.801109","379875.364169","383758.57023","384525.349344","370708.674778","371475.530875","372242.352345","373009.319127","373775.962822","374525.279161","383768.420828","Mapping"
"Blocked","m150","tile","16","m150bluff.wav","None","733.41056495","157","383009.162376","375292.337459","376058.883146","376825.213647","377592.348002","378359.193587","379125.801109","379875.364169","383758.57023","384525.349344","385292.221209","371475.530875","372242.352345","373009.319127","373775.962822","374525.279161","384534.886748","Mapping"
"Blocked","m150","tile","16","m150knife.wav","None","731.136279996","157","383009.162376","375292.337459","376058.883146","376825.213647","377592.348002","378359.193587","379125.801109","379875.364169","383758.57023","384525.349344","385292.221209","386058.749273","372242.352345","373009.319127","373775.962822","374525.279161","385301.746556","Mapping"
"Blocked","m150","tile","16","m150romp.wav","None","729.616070632","157","383009.162376","375292.337459","376058.883146","376825.213647","377592.348002","378359.193587","379125.801109","379875.364169","383758.57023","384525.349344","385292.221209","386058.749273","386825.356176","373009.319127","373775.962822","374525.279161","386067.787361","Mapping"
"Blocked","m150","tile","16","m150done.wav","None","727.204821422","157","383009.162376","375292.337459","376058.883146","376825.213647","377592.348002","378359.193587","379125.801109","379875.364169","383758.57023","384525.349344","385292.221209","386058.749273","386825.356176","387592.152294","373775.962822","374525.279161","386834.758781","Mapping"
"Blocked","m150","tile","16","m150knife.wav","None","724.776567542","157","383009.162376","375292.337459","376058.883146","376825.213647","377592.348002","378359.193587","379125.801109","379875.364169","383758.57023","384525.349344","385292.221209","386058.749273","386825.356176","387592.152294","388359.060333","374525.279161","387601.786779","Mapping"
"Blocked","m150","tile","16","m150tile.wav","None","722.410457674","157","383009.162376","375292.337459","376058.883146","376825.213647","377592.348002","378359.193587","379125.801109","379875.364169","383758.57023","384525.349344","385292.221209","386058.749273","386825.356176","387592.152294","388359.060333","389125.671874","388368.709968","Mapping"
"Blocked","m150","tile","16","m150knife.wav","space","441.309006303","157","383009.162376","389875.201852","376058.883146","376825.213647","377592.348002","378359.193587","379125.801109","379875.364169","383758.57023","384525.349344","385292.221209","386058.749273","386825.356176","387592.152294","388359.060333","389125.671874","389135.506704","Mapping"
"Blocked","m150","tile","16","m150tile.wav","None","734.659319511","157","383009.162376","389875.201852","390642.143591","376825.213647","377592.348002","378359.193587","379125.801109","379875.364169","383758.57023","384525.349344","385292.221209","386058.749273","386825.356176","387592.152294","388359.060333","389125.671874","389884.720088","Mapping"
"Blocked","m150","tile","16","m150depth.wav","space","476.776537951","157","383009.162376","389875.201852","390642.143591","391408.632081","377592.348002","378359.193587","379125.801109","379875.364169","383758.57023","384525.349344","385292.221209","386058.749273","386825.356176","387592.152294","388359.060333","389125.671874","390652.017377","Mapping"
"Blocked","m150","tile","16","m150knife.wav","None","732.431719662","157","383009.162376","389875.201852","390642.143591","391408.632081","392175.271756","378359.193587","379125.801109","379875.364169","383758.57023","384525.349344","385292.221209","386058.749273","386825.356176","387592.152294","388359.060333","389125.671874","391417.638015","Mapping"
"Blocked","m150","tile","16","m150tile.wav","None","730.133319041","157","383009.162376","389875.201852","390642.143591","391408.632081","392175.271756","392942.083024","379125.801109","379875.364169","383758.57023","384525.349344","385292.221209","386058.749273","386825.356176","387592.152294","388359.060333","389125.671874","392184.66725","Mapping"
"Blocked","m150","tile","16","m150romp.wav","None","727.79627156","157","383009.162376","389875.201852","390642.143591","391408.632081","392175.271756","392942.083024","393708.603977","379875.364169","383758.57023","384525.349344","385292.221209","386058.749273","386825.356176","387592.152294","388359.060333","389125.671874","392951.576216","Mapping"
"Blocked","m150","tile","16","m150reek.wav","space","18.9854573691","157","383009.162376","389875.201852","390642.143591","391408.632081","392175.271756","392942.083024","393708.603977","394475.661038","383758.57023","384525.349344","385292.221209","386058.749273","386825.356176","387592.152294","388359.060333","389125.671874","393717.786758","Mapping"
"Blocked","m150","tile","18","m150cad.wav","None","721.773558995","157","397591.795507","389875.201852","390642.143591","391408.632081","392175.271756","392942.083024","393708.603977","394475.661038","383758.57023","384525.349344","385292.221209","386058.749273","386825.356176","387592.152294","388359.060333","389125.671874","394486.009406","Mapping"
"Blocked","m150","tile","18","m150tile.wav","None","721.991526778","157","397591.795507","389875.201852","390642.143591","391408.632081","392175.271756","392942.083024","393708.603977","394475.661038","398341.870559","384525.349344","385292.221209","386058.749273","386825.356176","387592.152294","388359.060333","389125.671874","397600.832668","Mapping"
"Blocked","m150","tile","18","m150park.wav","space","498.061632738","157","397591.795507","389875.201852","390642.143591","391408.632081","392175.271756","392942.083024","393708.603977","394475.661038","398341.870559","399108.257331","385292.221209","386058.749273","386825.356176","387592.152294","388359.060333","389125.671874","398358.619451","Mapping"
"Blocked","m150","tile","18","m150reek.wav","None","733.772917069","157","397591.795507","389875.201852","390642.143591","391408.632081","392175.271756","392942.083024","393708.603977","394475.661038","398341.870559","399108.257331","399875.143109","386058.749273","386825.356176","387592.152294","388359.060333","389125.671874","399117.32881","Mapping"
"Blocked","m150","tile","18","m150gnash.wav","None","730.557815172","157","397591.795507","389875.201852","390642.143591","391408.632081","392175.271756","392942.083024","393708.603977","394475.661038","398341.870559","399108.257331","399875.143109","400642.074645","386825.356176","387592.152294","388359.060333","389125.671874","399885.128507","Mapping"
"Blocked","m150","tile","18","m150tile.wav","None","728.496241849","157","397591.795507","389875.201852","390642.143591","391408.632081","392175.271756","392942.083024","393708.603977","394475.661038","398341.870559","399108.257331","399875.143109","400642.074645","401408.565608","387592.152294","388359.060333","389125.671874","400651.69429","Mapping"
"Blocked","m150","tile","18","m150jaw.wav","space","454.185800627","157","397591.795507","389875.201852","390642.143591","391408.632081","392175.271756","392942.083024","393708.603977","394475.661038","398341.870559","399108.257331","399875.143109","400642.074645","401408.565608","402175.473647","388359.060333","389125.671874","401418.440631","Mapping"
"Blocked","m150","tile","18","m150gnash.wav","None","722.57555672","157","397591.795507","389875.201852","390642.143591","391408.632081","392175.271756","392942.083024","393708.603977","394475.661038","398341.870559","399108.257331","399875.143109","400642.074645","401408.565608","402175.473647","402942.323561","389125.671874","402185.97011","Mapping"
"Blocked","m150","tile","18","m150jaw.wav","None","719.524626271","157","397591.795507","389875.201852","390642.143591","391408.632081","392175.271756","392942.083024","393708.603977","394475.661038","398341.870559","399108.257331","399875.143109","400642.074645","401408.565608","402175.473647","402942.323561","403708.669831","402953.524013","Mapping"
"Blocked","m150","tile","18","m150gnash.wav","None","718.867940363","157","397591.795507","404458.420559","390642.143591","391408.632081","392175.271756","392942.083024","393708.603977","394475.661038","398341.870559","399108.257331","399875.143109","400642.074645","401408.565608","402175.473647","402942.323561","403708.669831","403718.961002","Mapping"
"Blocked","m150","tile","18","m150tile.wav","None","734.182263725","157","397591.795507","404458.420559","405225.080331","391408.632081","392175.271756","392942.083024","393708.603977","394475.661038","398341.870559","399108.257331","399875.143109","400642.074645","401408.565608","402175.473647","402942.323561","403708.669831","404468.163874","Mapping"
"Blocked","m150","tile","18","m150lash.wav","space","677.949049976","157","397591.795507","404458.420559","405225.080331","405991.856044","392175.271756","392942.083024","393708.603977","394475.661038","398341.870559","399108.257331","399875.143109","400642.074645","401408.565608","402175.473647","402942.323561","403708.669831","405234.641233","Mapping"
"Blocked","m150","tile","18","m150jaw.wav","None","729.146125843","157","397591.795507","404458.420559","405225.080331","405991.856044","406758.110179","392942.083024","393708.603977","394475.661038","398341.870559","399108.257331","399875.143109","400642.074645","401408.565608","402175.473647","402942.323561","403708.669831","406001.47878","Mapping"
"Blocked","m150","tile","18","m150tile.wav","None","728.034644853","157","397591.795507","404458.420559","405225.080331","405991.856044","406758.110179","407525.096439","393708.603977","394475.661038","398341.870559","399108.257331","399875.143109","400642.074645","401408.565608","402175.473647","402942.323561","403708.669831","406767.189387","Mapping"
"Blocked","m150","tile","18","m150priest.wav","space","489.116915152","157","397591.795507","404458.420559","405225.080331","405991.856044","406758.110179","407525.096439","408292.242542","394475.661038","398341.870559","399108.257331","399875.143109","400642.074645","401408.565608","402175.473647","402942.323561","403708.669831","407535.438315","Mapping"
"Blocked","m150","tile","18","m150cave.wav","None","721.51632607","157","397591.795507","404458.420559","405225.080331","405991.856044","406758.110179","407525.096439","408292.242542","409058.867378","398341.870559","399108.257331","399875.143109","400642.074645","401408.565608","402175.473647","402942.323561","403708.669831","408302.142608","Mapping"
"Blocked","m150","cave","8","m150done.wav","None","719.669319689","157","412175.404701","404458.420559","405225.080331","405991.856044","406758.110179","407525.096439","408292.242542","409058.867378","398341.870559","399108.257331","399875.143109","400642.074645","401408.565608","402175.473647","402942.323561","403708.669831","409068.75013","Mapping"
"Blocked","m150","cave","8","m150lash.wav","None","720.712164068","157","412175.404701","404458.420559","405225.080331","405991.856044","406758.110179","407525.096439","408292.242542","409058.867378","412942.182269","399108.257331","399875.143109","400642.074645","401408.565608","402175.473647","402942.323561","403708.669831","412185.278796","Mapping"
"Blocked","m150","cave","8","m150cave.wav","None","718.466632301","157","412175.404701","404458.420559","405225.080331","405991.856044","406758.110179","407525.096439","408292.242542","409058.867378","412942.182269","413691.817057","399875.143109","400642.074645","401408.565608","402175.473647","402942.323561","403708.669831","412952.163029","Mapping"
"Blocked","m150","cave","8","m150priest.wav","space","482.986300834","157","412175.404701","404458.420559","405225.080331","405991.856044","406758.110179","407525.096439","408292.242542","409058.867378","412942.182269","413691.817057","414458.315131","400642.074645","401408.565608","402175.473647","402942.323561","403708.669831","413701.488334","Mapping"
"Blocked","m150","cave","8","m150lash.wav","None","730.647475575","157","412175.404701","404458.420559","405225.080331","405991.856044","406758.110179","407525.096439","408292.242542","409058.867378","412942.182269","413691.817057","414458.315131","415224.639758","401408.565608","402175.473647","402942.323561","403708.669831","414468.10544","Mapping"
"Blocked","m150","cave","8","m150cave.wav","None","729.788589757","157","412175.404701","404458.420559","405225.080331","405991.856044","406758.110179","407525.096439","408292.242542","409058.867378","412942.182269","413691.817057","414458.315131","415224.639758","415991.706713","402175.473647","402942.323561","403708.669831","415233.777709","Mapping"
"Blocked","m150","cave","8","m150park.wav","space","430.719791446","157","412175.404701","404458.420559","405225.080331","405991.856044","406758.110179","407525.096439","408292.242542","409058.867378","412942.182269","413691.817057","414458.315131","415224.639758","415991.706713","416758.190564","402942.323561","403708.669831","416001.711279","Mapping"
"Blocked","m150","cave","8","m150greet.wav","None","724.051863304","157","412175.404701","404458.420559","405225.080331","405991.856044","406758.110179","407525.096439","408292.242542","409058.867378","412942.182269","413691.817057","414458.315131","415224.639758","415991.706713","416758.190564","417524.726358","403708.669831","416767.65253","Mapping"
"Blocked","m150","cave","8","m150dime.wav","None","727.744639502","157","412175.404701","404458.420559","405225.080331","405991.856044","406758.110179","407525.096439","408292.242542","409058.867378","412942.182269","413691.817057","414458.315131","415224.639758","415991.706713","416758.190564","417524.726358","418291.402825","417528.649778","Mapping"
"Blocked","m150","cave","8","m150cave.wav","None","720.126897446","157","412175.404701","419041.507249","405225.080331","405991.856044","406758.110179","407525.096439","408292.242542","409058.867378","412942.182269","413691.817057","414458.315131","415224.639758","415991.706713","416758.190564","417524.726358","418291.402825","418300.910549","Mapping"
"Blocked","m150","cave","8","m150bluff.wav","space","445.015695179","157","412175.404701","419041.507249","419808.203813","405991.856044","406758.110179","407525.096439","408292.242542","409058.867378","412942.182269","413691.817057","414458.315131","415224.639758","415991.706713","416758.190564","417524.726358","418291.402825","419051.382581","Mapping"
"Blocked","m150","cave","8","m150lash.wav","None","731.712271459","157","412175.404701","419041.507249","419808.203813","420574.825556","406758.110179","407525.096439","408292.242542","409058.867378","412942.182269","413691.817057","414458.315131","415224.639758","415991.706713","416758.190564","417524.726358","418291.402825","419817.598997","Mapping"
"Blocked","m150","cave","8","m150cave.wav","None","728.921047063","157","412175.404701","419041.507249","419808.203813","420574.825556","421341.625384","407525.096439","408292.242542","409058.867378","412942.182269","413691.817057","414458.315131","415224.639758","415991.706713","416758.190564","417524.726358","418291.402825","420585.000478","Mapping"
"Blocked","m150","cave","8","m150ball.wav","space","417.076554266","157","412175.404701","419041.507249","419808.203813","420574.825556","421341.625384","422107.799444","408292.242542","409058.867378","412942.182269","413691.817057","414458.315131","415224.639758","415991.706713","416758.190564","417524.726358","418291.402825","421351.281511","Mapping"
"Blocked","m150","cave","8","m150park.wav","None","725.395534188","157","412175.404701","419041.507249","419808.203813","420574.825556","421341.625384","422107.799444","422875.110337","409058.867378","412942.182269","413691.817057","414458.315131","415224.639758","415991.706713","416758.190564","417524.726358","418291.402825","422116.968003","Mapping"
"Blocked","m150","cave","8","m150reek.wav","None","721.860436839","157","412175.404701","419041.507249","419808.203813","420574.825556","421341.625384","422107.799444","422875.110337","423641.894706","412942.182269","413691.817057","414458.315131","415224.639758","415991.706713","416758.190564","417524.726358","418291.402825","422885.21353","Mapping"
"Blocked","m150","tile","15","m150gnash.wav","None","719.298619893","157","426758.333094","419041.507249","419808.203813","420574.825556","421341.625384","422107.799444","422875.110337","423641.894706","412942.182269","413691.817057","414458.315131","415224.639758","415991.706713","416758.190564","417524.726358","418291.402825","423652.489177","Mapping"
"Blocked","m150","tile","15","m150tile.wav","None","720.907562179","157","426758.333094","419041.507249","419808.203813","420574.825556","421341.625384","422107.799444","422875.110337","423641.894706","427524.974625","413691.817057","414458.315131","415224.639758","415991.706713","416758.190564","417524.726358","418291.402825","426768.280463","Mapping"
"Blocked","m150","tile","15","m150lash.wav","space","481.144550373","157","426758.333094","419041.507249","419808.203813","420574.825556","421341.625384","422107.799444","422875.110337","423641.894706","427524.974625","428275.000518","414458.315131","415224.639758","415991.706713","416758.190564","417524.726358","418291.402825","427535.102242","Mapping"
"Blocked","m150","tile","15","m150priest.wav","None","733.252886217","157","426758.333094","419041.507249","419808.203813","420574.825556","421341.625384","422107.799444","422875.110337","423641.894706","427524.974625","428275.000518","429041.511577","415224.639758","415991.706713","416758.190564","417524.726358","418291.402825","428284.425383","Mapping"
"Blocked","m150","tile","15","m150tile.wav","None","731.021885527","157","426758.333094","419041.507249","419808.203813","420574.825556","421341.625384","422107.799444","422875.110337","423641.894706","427524.974625","428275.000518","429041.511577","429807.697076","415991.706713","416758.190564","417524.726358","418291.402825","429051.452145","Mapping"
"Blocked","m150","tile","15","m150cad.wav","space","591.145623242","157","426758.333094","419041.507249","419808.203813","420574.825556","421341.625384","422107.799444","422875.110337","423641.894706","427524.974625","428275.000518","429041.511577","429807.697076","430574.710234","416758.190564","417524.726358","418291.402825","429817.057633","Mapping"
"Blocked","m150","tile","15","m150greet.wav","None","726.644288632","157","426758.333094","419041.507249","419808.203813","420574.825556","421341.625384","422107.799444","422875.110337","423641.894706","427524.974625","428275.000518","429041.511577","429807.697076","430574.710234","431341.583955","417524.726358","418291.402825","430584.389859","Mapping"
"Blocked","m150","tile","15","m150tile.wav","None","724.370931042","157","426758.333094","419041.507249","419808.203813","420574.825556","421341.625384","422107.799444","422875.110337","423641.894706","427524.974625","428275.000518","429041.511577","429807.697076","430574.710234","431341.583955","432108.402643","418291.402825","431351.396524","Mapping"
"Blocked","m150","tile","15","m150bluff.wav","space","617.728107842","157","426758.333094","419041.507249","419808.203813","420574.825556","421341.625384","422107.799444","422875.110337","423641.894706","427524.974625","428275.000518","429041.511577","429807.697076","430574.710234","431341.583955","432108.402643","432875.037372","432118.461933","Mapping"
"Blocked","m150","tile","15","m150knife.wav","None","719.167530071","157","426758.333094","433624.243953","419808.203813","420574.825556","421341.625384","422107.799444","422875.110337","423641.894706","427524.974625","428275.000518","429041.511577","429807.697076","430574.710234","431341.583955","432108.402643","432875.037372","432884.88395","Mapping"
"Blocked","m150","tile","15","m150depth.wav","None","735.229436541","157","426758.333094","433624.243953","434390.964014","420574.825556","421341.625384","422107.799444","422875.110337","423641.894706","427524.974625","428275.000518","429041.511577","429807.697076","430574.710234","431341.583955","432108.402643","432875.037372","433633.722615","Mapping"
"Blocked","m150","tile","15","m150tile.wav","None","733.020078042","157","426758.333094","433624.243953","434390.964014","435157.706027","421341.625384","422107.799444","422875.110337","423641.894706","427524.974625","428275.000518","429041.511577","429807.697076","430574.710234","431341.583955","432108.402643","432875.037372","434400.652914","Mapping"
"Blocked","m150","tile","15","m150depth.wav","space","521.195897949","157","426758.333094","433624.243953","434390.964014","435157.706027","435924.652094","422107.799444","422875.110337","423641.894706","427524.974625","428275.000518","429041.511577","429807.697076","430574.710234","431341.583955","432108.402643","432875.037372","435166.959918","Mapping"
"Blocked","m150","tile","15","m150romp.wav","None","727.50193777","157","426758.333094","433624.243953","434390.964014","435157.706027","435924.652094","436691.390087","422875.110337","423641.894706","427524.974625","428275.000518","429041.511577","429807.697076","430574.710234","431341.583955","432108.402643","432875.037372","435934.718186","Mapping"
"Blocked","m150","tile","15","m150priest.wav","None","726.398495142","157","426758.333094","433624.243953","434390.964014","435157.706027","435924.652094","436691.390087","437457.999155","423641.894706","427524.974625","428275.000518","429041.511577","429807.697076","430574.710234","431341.583955","432108.402643","432875.037372","436700.970467","Mapping"
"Blocked","m150","tile","15","m150cling.wav","None","724.508204381","157","426758.333094","433624.243953","434390.964014","435157.706027","435924.652094","436691.390087","437457.999155","438224.821243","427524.974625","428275.000518","429041.511577","429807.697076","430574.710234","431341.583955","432108.402643","432875.037372","437467.711552","Mapping"
"Blocked","m150","done","21","m150reek.wav","None","722.616058541","157","441341.701441","433624.243953","434390.964014","435157.706027","435924.652094","436691.390087","437457.999155","438224.821243","427524.974625","428275.000518","429041.511577","429807.697076","430574.710234","431341.583955","432108.402643","432875.037372","438234.520964","Mapping"
"Blocked","m150","done","21","m150cad.wav","None","719.547195826","157","441341.701441","433624.243953","434390.964014","435157.706027","435924.652094","436691.390087","437457.999155","438224.821243","442090.510425","428275.000518","429041.511577","429807.697076","430574.710234","431341.583955","432108.402643","432875.037372","441351.996322","Mapping"
"Blocked","m150","done","21","m150romp.wav","None","736.352357082","157","441341.701441","433624.243953","434390.964014","435157.706027","435924.652094","436691.390087","437457.999155","438224.821243","442090.510425","442857.861201","429041.511577","429807.697076","430574.710234","431341.583955","432108.402643","432875.037372","442099.924778","Mapping"
"Blocked","m150","done","21","m150bluff.wav","None","733.576282393","157","441341.701441","433624.243953","434390.964014","435157.706027","435924.652094","436691.390087","437457.999155","438224.821243","442090.510425","442857.861201","443624.208089","429807.697076","430574.710234","431341.583955","432108.402643","432875.037372","442867.491358","Mapping"
"Blocked","m150","done","21","m150done.wav","None","732.527872897","157","441341.701441","433624.243953","434390.964014","435157.706027","435924.652094","436691.390087","437457.999155","438224.821243","442090.510425","442857.861201","443624.208089","444390.817466","430574.710234","431341.583955","432108.402643","432875.037372","443633.388088","Mapping"
"Blocked","m150","done","21","m150tile.wav","space","551.868447568","157","441341.701441","433624.243953","434390.964014","435157.706027","435924.652094","436691.390087","437457.999155","438224.821243","442090.510425","442857.861201","443624.208089","444390.817466","445157.557005","431341.583955","432108.402643","432875.037372","444400.137521","Mapping"
"Blocked","m150","done","21","m150jolt.wav","None","727.568719303","157","441341.701441","433624.243953","434390.964014","435157.706027","435924.652094","436691.390087","437457.999155","438224.821243","442090.510425","442857.861201","443624.208089","444390.817466","445157.557005","445924.183695","432108.402643","432875.037372","445166.737622","Mapping"
"Blocked","m150","done","21","m150lash.wav","None","726.11127235","157","441341.701441","433624.243953","434390.964014","435157.706027","435924.652094","436691.390087","437457.999155","438224.821243","442090.510425","442857.861201","443624.208089","444390.817466","445157.557005","445924.183695","446691.686585","432875.037372","445933.194267","Mapping"
"Blocked","m150","done","21","m150done.wav","None","722.523615463","157","441341.701441","433624.243953","434390.964014","435157.706027","435924.652094","436691.390087","437457.999155","438224.821243","442090.510425","442857.861201","443624.208089","444390.817466","445157.557005","445924.183695","446691.686585","447458.129935","446701.593453","Mapping"
"Blocked","m150","done","21","m150romp.wav","space","411.671880865","157","441341.701441","448207.438545","434390.964014","435157.706027","435924.652094","436691.390087","437457.999155","438224.821243","442090.510425","442857.861201","443624.208089","444390.817466","445157.557005","445924.183695","446691.686585","447458.129935","447468.289089","Mapping"
"Blocked","m150","done","21","m150done.wav","None","735.325589776","157","441341.701441","448207.438545","448974.380593","435157.706027","435924.652094","436691.390087","437457.999155","438224.821243","442090.510425","442857.861201","443624.208089","444390.817466","445157.557005","445924.183695","446691.686585","447458.129935","448217.342939","Mapping"
"Blocked","m150","done","21","m150cad.wav","space","623.455559136","157","441341.701441","448207.438545","448974.380593","449741.228034","435924.652094","436691.390087","437457.999155","438224.821243","442090.510425","442857.861201","443624.208089","444390.817466","445157.557005","445924.183695","446691.686585","447458.129935","448984.472037","Mapping"
"Blocked","m150","done","21","m150ball.wav","None","730.522569269","157","441341.701441","448207.438545","448974.380593","449741.228034","450507.404257","436691.390087","437457.999155","438224.821243","442090.510425","442857.861201","443624.208089","444390.817466","445157.557005","445924.183695","446691.686585","447458.129935","449750.747197","Mapping"
"Blocked","m150","done","21","m150cling.wav","None","729.563510977","157","441341.701441","448207.438545","448974.380593","449741.228034","450507.404257","451274.094947","437457.999155","438224.821243","442090.510425","442857.861201","443624.208089","444390.817466","445157.557005","445924.183695","446691.686585","447458.129935","450516.772853","Mapping"
"Blocked","m150","done","21","m150done.wav","None","727.876038407","157","441341.701441","448207.438545","448974.380593","449741.228034","450507.404257","451274.094947","452041.190345","438224.821243","442090.510425","442857.861201","443624.208089","444390.817466","445157.557005","445924.183695","446691.686585","447458.129935","451283.355331","Mapping"
"Blocked","m150","done","21","m150reek.wav","space","493.129995652","157","441341.701441","448207.438545","448974.380593","449741.228034","450507.404257","451274.094947","452041.190345","452808.094365","442090.510425","442857.861201","443624.208089","444390.817466","445157.557005","445924.183695","446691.686585","447458.129935","452050.782783","Mapping"
"Blocked","m150","done","20","m150dime.wav","None","721.56610305","157","455924.782566","448207.438545","448974.380593","449741.228034","450507.404257","451274.094947","452041.190345","452808.094365","442090.510425","442857.861201","443624.208089","444390.817466","445157.557005","445924.183695","446691.686585","447458.129935","452818.200341","Mapping"
"Blocked","m150","done","20","m150park.wav","None","719.154544757","157","455924.782566","448207.438545","448974.380593","449741.228034","450507.404257","451274.094947","452041.190345","452808.094365","456673.865787","442857.861201","443624.208089","444390.817466","445157.557005","445924.183695","446691.686585","447458.129935","455935.058278","Mapping"
"Blocked","m150","done","20","m150bluff.wav","None","736.498287297","157","455924.782566","448207.438545","448974.380593","449741.228034","450507.404257","451274.094947","452041.190345","452808.094365","456673.865787","457441.022402","443624.208089","444390.817466","445157.557005","445924.183695","446691.686585","447458.129935","456682.755471","Mapping"
"Blocked","m150","done","20","m150done.wav","None","733.345638495","157","455924.782566","448207.438545","448974.380593","449741.228034","450507.404257","451274.094947","452041.190345","452808.094365","456673.865787","457441.022402","458207.67228","444390.817466","445157.557005","445924.183695","446691.686585","447458.129935","457450.748093","Mapping"
"Blocked","m150","done","20","m150ball.wav","space","606.751807034","157","455924.782566","448207.438545","448974.380593","449741.228034","450507.404257","451274.094947","452041.190345","452808.094365","456673.865787","457441.022402","458207.67228","458974.345656","445157.557005","445924.183695","446691.686585","447458.129935","458217.051078","Mapping"
"Blocked","m150","done","20","m150done.wav","None","728.173773154","157","455924.782566","448207.438545","448974.380593","449741.228034","450507.404257","451274.094947","452041.190345","452808.094365","456673.865787","457441.022402","458207.67228","458974.345656","459741.080867","445924.183695","446691.686585","447458.129935","458984.396908","Mapping"
"Blocked","m150","done","20","m150dime.wav","space","593.064976274","157","455924.782566","448207.438545","448974.380593","449741.228034","450507.404257","451274.094947","452041.190345","452808.094365","456673.865787","457441.022402","458207.67228","458974.345656","459741.080867","460508.033427","446691.686585","447458.129935","459750.681033","Mapping"
"Blocked","m150","done","20","m150gnash.wav","None","722.748075845","157","455924.782566","448207.438545","448974.380593","449741.228034","450507.404257","451274.094947","452041.190345","452808.094365","456673.865787","457441.022402","458207.67228","458974.345656","459741.080867","460508.033427","461274.592099","447458.129935","460518.334491","Mapping"
"Blocked","m150","done","20","m150reek.wav","None","721.235595876","157","455924.782566","448207.438545","448974.380593","449741.228034","450507.404257","451274.094947","452041.190345","452808.094365","456673.865787","457441.022402","458207.67228","458974.345656","459741.080867","460508.033427","461274.592099","462041.36812","461284.772585","Mapping"
"Blocked","m150","done","20","m150cave.wav","None","719.258118072","157","455924.782566","462790.316851","448974.380593","449741.228034","450507.404257","451274.094947","452041.190345","452808.094365","456673.865787","457441.022402","458207.67228","458974.345656","459741.080867","460508.033427","461274.592099","462041.36812","462051.706595","Mapping"
"Blocked","m150","done","20","m150done.wav","None","736.422848888","157","455924.782566","462790.316851","463557.585696","449741.228034","450507.404257","451274.094947","452041.190345","452808.094365","456673.865787","457441.022402","458207.67228","458974.345656","459741.080867","460508.033427","461274.592099","462041.36812","462799.540134","Mapping"
"Blocked","m150","done","20","m150cad.wav","space","464.217265369","157","455924.782566","462790.316851","463557.585696","464324.227536","450507.404257","451274.094947","452041.190345","452808.094365","456673.865787","457441.022402","458207.67228","458974.345656","459741.080867","460508.033427","461274.592099","462041.36812","463567.515442","Mapping"
"Blocked","m150","done","20","m150done.wav","None","730.328717036","157","455924.782566","462790.316851","463557.585696","464324.227536","465090.708915","451274.094947","452041.190345","452808.094365","456673.865787","457441.022402","458207.67228","458974.345656","459741.080867","460508.033427","461274.592099","462041.36812","464334.175215","Mapping"
"Blocked","m150","done","20","m150gnash.wav","None","728.735542623","157","455924.782566","462790.316851","463557.585696","464324.227536","465090.708915","465857.238524","452041.190345","452808.094365","456673.865787","457441.022402","458207.67228","458974.345656","459741.080867","460508.033427","461274.592099","462041.36812","465100.71008","Mapping"
"Blocked","m150","done","20","m150jolt.wav","None","727.959206328","157","455924.782566","462790.316851","463557.585696","464324.227536","465090.708915","465857.238524","466623.87449","452808.094365","456673.865787","457441.022402","458207.67228","458974.345656","459741.080867","460508.033427","461274.592099","462041.36812","465866.516223","Mapping"
"Blocked","m150","done","20","m150gnash.wav","None","726.136315498","157","455924.782566","462790.316851","463557.585696","464324.227536","465090.708915","465857.238524","466623.87449","467391.337806","456673.865787","457441.022402","458207.67228","458974.345656","459741.080867","460508.033427","461274.592099","462041.36812","466633.258544","Mapping"
"Blocked","m150","cave","12","m150greet.wav","None","722.968207905","157","470507.810821","462790.316851","463557.585696","464324.227536","465090.708915","465857.238524","466623.87449","467391.337806","456673.865787","457441.022402","458207.67228","458974.345656","459741.080867","460508.033427","461274.592099","462041.36812","467401.319494","Mapping"
"Blocked","m150","cave","12","m150dime.wav","None","719.730536221","157","470507.810821","462790.316851","463557.585696","464324.227536","465090.708915","465857.238524","466623.87449","467391.337806","471257.478073","457441.022402","458207.67228","458974.345656","459741.080867","460508.033427","461274.592099","462041.36812","470518.118688","Mapping"
"Blocked","m150","cave","12","m150cave.wav","None","735.830780352","157","470507.810821","462790.316851","463557.585696","464324.227536","465090.708915","465857.238524","466623.87449","467391.337806","471257.478073","472024.140009","458207.67228","458974.345656","459741.080867","460508.033427","461274.592099","462041.36812","471266.923961","Mapping"
"Blocked","m150","cave","12","m150jolt.wav","space","413.657397381","157","470507.810821","462790.316851","463557.585696","464324.227536","465090.708915","465857.238524","466623.87449","467391.337806","471257.478073","472024.140009","472790.890987","458974.345656","459741.080867","460508.033427","461274.592099","462041.36812","472033.930009","Mapping"
"Blocked","m150","cave","12","m150cave.wav","None","730.258534546","157","470507.810821","462790.316851","463557.585696","464324.227536","465090.708915","465857.238524","466623.87449","467391.337806","471257.478073","472024.140009","472790.890987","473557.162746","459741.080867","460508.033427","461274.592099","462041.36812","472800.951824","Mapping"
"Blocked","m150","cave","12","m150cling.wav","space","593.207814847","157","470507.810821","462790.316851","463557.585696","464324.227536","465090.708915","465857.238524","466623.87449","467391.337806","471257.478073","472024.140009","472790.890987","473557.162746","474323.91898","460508.033427","461274.592099","462041.36812","473566.368716","Mapping"
"Blocked","m150","cave","12","m150cad.wav","None","726.511343732","157","470507.810821","462790.316851","463557.585696","464324.227536","465090.708915","465857.238524","466623.87449","467391.337806","471257.478073","472024.140009","472790.890987","473557.162746","474323.91898","475090.832584","461274.592099","462041.36812","474333.489157","Mapping"
"Blocked","m150","cave","12","m150ball.wav","None","724.642695161","157","470507.810821","462790.316851","463557.585696","464324.227536","465090.708915","465857.238524","466623.87449","467391.337806","471257.478073","472024.140009","472790.890987","473557.162746","474323.91898","475090.832584","475857.332204","462041.36812","475100.358549","Mapping"
"Blocked","m150","cave","12","m150cave.wav","None","722.944092355","157","470507.810821","462790.316851","463557.585696","464324.227536","465090.708915","465857.238524","466623.87449","467391.337806","471257.478073","472024.140009","472790.890987","473557.162746","474323.91898","475090.832584","475857.332204","476624.397922","475867.040273","Mapping"
"Blocked","m150","cave","12","m150tile.wav","space","653.076607501","157","470507.810821","477373.807631","463557.585696","464324.227536","465090.708915","465857.238524","466623.87449","467391.337806","471257.478073","472024.140009","472790.890987","473557.162746","474323.91898","475090.832584","475857.332204","476624.397922","476634.447937","Mapping"
"Blocked","m150","cave","12","m150jaw.wav","None","734.808032284","157","470507.810821","477373.807631","478140.808113","464324.227536","465090.708915","465857.238524","466623.87449","467391.337806","471257.478073","472024.140009","472790.890987","473557.162746","474323.91898","475090.832584","475857.332204","476624.397922","477383.7853","Mapping"
"Blocked","m150","cave","12","m150cave.wav","None","733.11004776","157","470507.810821","477373.807631","478140.808113","478907.014327","465090.708915","465857.238524","466623.87449","467391.337806","471257.478073","472024.140009","472790.890987","473557.162746","474323.91898","475090.832584","475857.332204","476624.397922","478150.33717","Mapping"
"Blocked","m150","cave","12","m150cad.wav","space","451.079527964","157","470507.810821","477373.807631","478140.808113","478907.014327","479674.063349","465857.238524","466623.87449","467391.337806","471257.478073","472024.140009","472790.890987","473557.162746","474323.91898","475090.832584","475857.332204","476624.397922","478916.386323","Mapping"
"Blocked","m150","cave","12","m150knife.wav","None","727.827188908","157","470507.810821","477373.807631","478140.808113","478907.014327","479674.063349","480440.747546","466623.87449","467391.337806","471257.478073","472024.140009","472790.890987","473557.162746","474323.91898","475090.832584","475857.332204","476624.397922","479684.280937","Mapping"
"Blocked","m150","cave","12","m150knife.wav","None","726.816498674","157","470507.810821","477373.807631","478140.808113","478907.014327","479674.063349","480440.747546","481207.272518","467391.337806","471257.478073","472024.140009","472790.890987","473557.162746","474323.91898","475090.832584","475857.332204","476624.397922","480450.373993","Mapping"
"Blocked","m150","cave","12","m150reek.wav","None","724.883541814","157","470507.810821","477373.807631","478140.808113","478907.014327","479674.063349","480440.747546","481207.272518","481974.320304","471257.478073","472024.140009","472790.890987","473557.162746","474323.91898","475090.832584","475857.332204","476624.397922","481217.270592","Mapping"
"Blocked","m150","tile","14","m150park.wav","None","722.447558655","157","485090.319974","477373.807631","478140.808113","478907.014327","479674.063349","480440.747546","481207.272518","481974.320304","471257.478073","472024.140009","472790.890987","473557.162746","474323.91898","475090.832584","475857.332204","476624.397922","481984.65445","Mapping"
"Blocked","m150","tile","14","m150bluff.wav","None","721.085646423","157","485090.319974","477373.807631","478140.808113","478907.014327","479674.063349","480440.747546","481207.272518","481974.320304","485840.962051","472024.140009","472790.890987","473557.162746","474323.91898","475090.832584","475857.332204","476624.397922","485099.864798","Mapping"
"Blocked","m150","tile","14","m150cling.wav","None","735.376294353","157","485090.319974","477373.807631","478140.808113","478907.014327","479674.063349","480440.747546","481207.272518","481974.320304","485840.962051","486623.697952","472790.890987","473557.162746","474323.91898","475090.832584","475857.332204","476624.397922","485850.859643","Mapping"
"Blocked","m150","tile","14","m150gnash.wav","None","722.400255036","157","485090.319974","477373.807631","478140.808113","478907.014327","479674.063349","480440.747546","481207.272518","481974.320304","485840.962051","486623.697952","487391.000188","473557.162746","474323.91898","475090.832584","475857.332204","476624.397922","486632.745933","Mapping"
"Blocked","m150","tile","14","m150bluff.wav","None","719.024382415","157","485090.319974","477373.807631","478140.808113","478907.014327","479674.063349","480440.747546","481207.272518","481974.320304","485840.962051","486623.697952","487391.000188","488140.272005","474323.91898","475090.832584","475857.332204","476624.397922","487401.144501","Mapping"
"Blocked","m150","tile","14","m150tile.wav","None","735.039603664","157","485090.319974","477373.807631","478140.808113","478907.014327","479674.063349","480440.747546","481207.272518","481974.320304","485840.962051","486623.697952","487391.000188","488140.272005","488907.184373","475090.832584","475857.332204","476624.397922","488150.263277","Mapping"
"Blocked","m150","tile","14","m150priest.wav","space","562.161164475","157","485090.319974","477373.807631","478140.808113","478907.014327","479674.063349","480440.747546","481207.272518","481974.320304","485840.962051","486623.697952","487391.000188","488140.272005","488907.184373","489673.567434","475857.332204","476624.397922","488917.189867","Mapping"
"Blocked","m150","tile","14","m150tile.wav","None","731.287466129","157","485090.319974","477373.807631","478140.808113","478907.014327","479674.063349","480440.747546","481207.272518","481974.320304","485840.962051","486623.697952","487391.000188","488140.272005","488907.184373","489673.567434","490440.614601","476624.397922","489682.968802","Mapping"
"Blocked","m150","tile","14","m150jaw.wav","None","729.072233313","157","485090.319974","477373.807631","478140.808113","478907.014327","479674.063349","480440.747546","481207.272518","481974.320304","485840.962051","486623.697952","487391.000188","488140.272005","488907.184373","489673.567434","490440.614601","491206.92748","490450.326071","Mapping"
"Blocked","m150","tile","14","m150cad.wav","space","47.0176597591","157","485090.319974","491973.514905","478140.808113","478907.014327","479674.063349","480440.747546","481207.272518","481974.320304","485840.962051","486623.697952","487391.000188","488140.272005","488907.184373","489673.567434","490440.614601","491206.92748","491216.295457","Mapping"
"Blocked","m150","tile","14","m150bluff.wav","None","725.085741724","157","485090.319974","491973.514905","492740.981931","478907.014327","479674.063349","480440.747546","481207.272518","481974.320304","485840.962051","486623.697952","487391.000188","488140.272005","488907.184373","489673.567434","490440.614601","491206.92748","491982.906379","Mapping"
"Blocked","m150","tile","14","m150romp.wav","None","722.162809339","157","485090.319974","491973.514905","492740.981931","493507.438576","479674.063349","480440.747546","481207.272518","481974.320304","485840.962051","486623.697952","487391.000188","488140.272005","488907.184373","489673.567434","490440.614601","491206.92748","492751.179113","Mapping"
"Blocked","m150","tile","14","m150tile.wav","None","721.345971222","157","485090.319974","491973.514905","492740.981931","493507.438576","494274.146888","480440.747546","481207.272518","481974.320304","485840.962051","486623.697952","487391.000188","488140.272005","488907.184373","489673.567434","490440.614601","491206.92748","493517.220537","Mapping"
"Blocked","m150","tile","14","m150jaw.wav","space","459.279135801","157","485090.319974","491973.514905","492740.981931","493507.438576","494274.146888","495023.733136","481207.272518","481974.320304","485840.962051","486623.697952","487391.000188","488140.272005","488907.184373","489673.567434","490440.614601","491206.92748","494283.999341","Mapping"
"Blocked","m150","tile","14","m150tile.wav","None","734.012527158","157","485090.319974","491973.514905","492740.981931","493507.438576","494274.146888","495023.733136","495790.543476","481974.320304","485840.962051","486623.697952","487391.000188","488140.272005","488907.184373","489673.567434","490440.614601","491206.92748","495033.495001","Mapping"
"Blocked","m150","tile","14","m150jolt.wav","space","510.63172624","157","485090.319974","491973.514905","492740.981931","493507.438576","494274.146888","495023.733136","495790.543476","496557.074322","485840.962051","486623.697952","487391.000188","488140.272005","488907.184373","489673.567434","490440.614601","491206.92748","495800.626263","Mapping"
"Blocked","m150","ball","3","m150tile.wav","None","729.469212936","157","499690.944258","491973.514905","492740.981931","493507.438576","494274.146888","495023.733136","495790.543476","496557.074322","485840.962051","486623.697952","487391.000188","488140.272005","488907.184373","489673.567434","490440.614601","491206.92748","496567.034986","Mapping"
"Blocked","m150","ball","3","m150knife.wav","None","719.770728727","157","499690.944258","491973.514905","492740.981931","493507.438576","494274.146888","495023.733136","495790.543476","496557.074322","500440.430024","486623.697952","487391.000188","488140.272005","488907.184373","489673.567434","490440.614601","491206.92748","499701.009732","Mapping"
"Blocked","m150","ball","3","m150cad.wav","None","736.26609752","157","499690.944258","491973.514905","492740.981931","493507.438576","494274.146888","495023.733136","495790.543476","496557.074322","500440.430024","501206.677976","487391.000188","488140.272005","488907.184373","489673.567434","490440.614601","491206.92748","500449.826754","Mapping"
"Blocked","m150","ball","3","m150knife.wav","None","735.106694512","157","499690.944258","491973.514905","492740.981931","493507.438576","494274.146888","495023.733136","495790.543476","496557.074322","500440.430024","501206.677976","501973.608894","488140.272005","488907.184373","489673.567434","490440.614601","491206.92748","501216.034205","Mapping"
"Blocked","m150","ball","3","m150ball.wav","None","732.268475695","157","499690.944258","491973.514905","492740.981931","493507.438576","494274.146888","495023.733136","495790.543476","496557.074322","500440.430024","501206.677976","501973.608894","502740.419234","488907.184373","489673.567434","490440.614601","491206.92748","501983.992199","Mapping"
"Blocked","m150","ball","3","m150lash.wav","space","385.115057579","157","499690.944258","491973.514905","492740.981931","493507.438576","494274.146888","495023.733136","495790.543476","496557.074322","500440.430024","501206.677976","501973.608894","502740.419234","503506.971414","489673.567434","490440.614601","491206.92748","502750.03857","Mapping"
"Blocked","m150","ball","3","m150ball.wav","None","728.444609675","157","499690.944258","491973.514905","492740.981931","493507.438576","494274.146888","495023.733136","495790.543476","496557.074322","500440.430024","501206.677976","501973.608894","502740.419234","503506.971414","504273.664267","490440.614601","491206.92748","503516.648874","Mapping"
"Blocked","m150","ball","3","m150priest.wav","space","579.50892637","157","499690.944258","491973.514905","492740.981931","493507.438576","494274.146888","495023.733136","495790.543476","496557.074322","500440.430024","501206.677976","501973.608894","502740.419234","503506.971414","504273.664267","505040.801095","491206.92748","504283.609781","Mapping"
"Blocked","m150","ball","3","m150reek.wav","None","722.88287594","157","499690.944258","491973.514905","492740.981931","493507.438576","494274.146888","495023.733136","495790.543476","496557.074322","500440.430024","501206.677976","501973.608894","502740.419234","503506.971414","504273.664267","505040.801095","505807.396868","505050.996422","Mapping"
"Blocked","m150","ball","3","m150bluff.wav","None","721.621754463","157","499690.944258","506573.971617","492740.981931","493507.438576","494274.146888","495023.733136","495790.543476","496557.074322","500440.430024","501206.677976","501973.608894","502740.419234","503506.971414","504273.664267","505040.801095","505807.396868","505817.472854","Mapping"
"Blocked","m150","ball","3","m150ball.wav","None","720.503471559","157","499690.944258","506573.971617","507340.831116","493507.438576","494274.146888","495023.733136","495790.543476","496557.074322","500440.430024","501206.677976","501973.608894","502740.419234","503506.971414","504273.664267","505040.801095","505807.396868","506583.924243","Mapping"
"Blocked","m150","ball","3","m150cling.wav","space","583.945266204","157","499690.944258","506573.971617","507340.831116","508090.270506","494274.146888","495023.733136","495790.543476","496557.074322","500440.430024","501206.677976","501973.608894","502740.419234","503506.971414","504273.664267","505040.801095","505807.396868","507351.100026","Mapping"
"Blocked","m150","ball","3","m150jaw.wav","None","733.142201905","157","499690.944258","506573.971617","507340.831116","508090.270506","508856.917602","495023.733136","495790.543476","496557.074322","500440.430024","501206.677976","501973.608894","502740.419234","503506.971414","504273.664267","505040.801095","505807.396868","508100.051539","Mapping"
"Blocked","m150","ball","3","m150ball.wav","None","731.528931181","157","499690.944258","506573.971617","507340.831116","508090.270506","508856.917602","509623.569954","495790.543476","496557.074322","500440.430024","501206.677976","501973.608894","502740.419234","503506.971414","504273.664267","505040.801095","505807.396868","508866.943192","Mapping"
"Blocked","m150","ball","3","m150bluff.wav","space","381.642104359","157","499690.944258","506573.971617","507340.831116","508090.270506","508856.917602","509623.569954","510390.248276","496557.074322","500440.430024","501206.677976","501973.608894","502740.419234","503506.971414","504273.664267","505040.801095","505807.396868","509633.3986","Mapping"
"Blocked","m150","ball","3","m150lash.wav","None","727.309631417","157","499690.944258","506573.971617","507340.831116","508090.270506","508856.917602","509623.569954","510390.248276","511156.859199","500440.430024","501206.677976","501973.608894","502740.419234","503506.971414","504273.664267","505040.801095","505807.396868","510399.90564","Mapping"
"Blocked","m150","ball","4","m150cave.wav","None","726.005534874","157","514290.609794","506573.971617","507340.831116","508090.270506","508856.917602","509623.569954","510390.248276","511156.859199","500440.430024","501206.677976","501973.608894","502740.419234","503506.971414","504273.664267","505040.801095","505807.396868","511166.609624","Mapping"
"Blocked","m150","ball","4","m150jolt.wav","None","719.715695828","157","514290.609794","506573.971617","507340.831116","508090.270506","508856.917602","509623.569954","510390.248276","511156.859199","515040.209645","501206.677976","501973.608894","502740.419234","503506.971414","504273.664267","505040.801095","505807.396868","514300.761218","Mapping"
"Blocked","m150","ball","4","m150reek.wav","None","735.492543783","157","514290.609794","506573.971617","507340.831116","508090.270506","508856.917602","509623.569954","510390.248276","511156.859199","515040.209645","515806.554059","501973.608894","502740.419234","503506.971414","504273.664267","505040.801095","505807.396868","515050.357668","Mapping"
"Blocked","m150","ball","4","m150ball.wav","None","734.588518506","157","514290.609794","506573.971617","507340.831116","508090.270506","508856.917602","509623.569954","510390.248276","511156.859199","515040.209645","515806.554059","516573.445094","502740.419234","503506.971414","504273.664267","505040.801095","505807.396868","515816.536365","Mapping"
"Blocked","m150","ball","4","m150priest.wav","space","383.55681987","157","514290.609794","506573.971617","507340.831116","508090.270506","508856.917602","509623.569954","510390.248276","511156.859199","515040.209645","515806.554059","516573.445094","517340.315723","503506.971414","504273.664267","505040.801095","505807.396868","516583.336193","Mapping"
"Blocked","m150","ball","4","m150knife.wav","None","729.742832133","157","514290.609794","506573.971617","507340.831116","508090.270506","508856.917602","509623.569954","510390.248276","511156.859199","515040.209645","515806.554059","516573.445094","517340.315723","518106.515134","504273.664267","505040.801095","505807.396868","517350.355535","Mapping"
"Blocked","m150","ball","4","m150ball.wav","None","729.344924795","157","514290.609794","506573.971617","507340.831116","508090.270506","508856.917602","509623.569954","510390.248276","511156.859199","515040.209645","515806.554059","516573.445094","517340.315723","518106.515134","518873.109671","505040.801095","505807.396868","518115.989776","Mapping"
"Blocked","m150","ball","4","m150greet.wav","space","516.631869134","157","514290.609794","506573.971617","507340.831116","508090.270506","508856.917602","509623.569954","510390.248276","511156.859199","515040.209645","515806.554059","516573.445094","517340.315723","518106.515134","518873.109671","519640.184973","505807.396868","518882.277612","Mapping"
"Blocked","m150","ball","4","m150park.wav","None","724.466156797","157","514290.609794","506573.971617","507340.831116","508090.270506","508856.917602","509623.569954","510390.248276","511156.859199","515040.209645","515806.554059","516573.445094","517340.315723","518106.515134","518873.109671","519640.184973","520406.998404","519649.719595","Mapping"
"Blocked","m150","ball","4","m150dime.wav","None","722.298845882","157","514290.609794","521173.889748","507340.831116","508090.270506","508856.917602","509623.569954","510390.248276","511156.859199","515040.209645","515806.554059","516573.445094","517340.315723","518106.515134","518873.109671","519640.184973","520406.998404","520417.202079","Mapping"
"Blocked","m150","ball","4","m150done.wav","None","720.94960988","157","514290.609794","521173.889748","521940.540245","508090.270506","508856.917602","509623.569954","510390.248276","511156.859199","515040.209645","515806.554059","516573.445094","517340.315723","518106.515134","518873.109671","519640.184973","520406.998404","521183.859378","Mapping"
"Blocked","m150","ball","4","m150ball.wav","None","719.460008782","157","514290.609794","521173.889748","521940.540245","522690.25078","508856.917602","509623.569954","510390.248276","511156.859199","515040.209645","515806.554059","516573.445094","517340.315723","518106.515134","518873.109671","519640.184973","520406.998404","521950.625197","Mapping"
