"Condition","Talker","Target","Trial","current_stimulus","response_response","response_time_response","subject_nr","time_Audio1","time_Audio10","time_Audio11","time_Audio12","time_Audio13","time_Audio14","time_Audio15","time_Audio16","time_Audio2","time_Audio3","time_Audio4","time_Audio5","time_Audio6","time_Audio7","time_Audio8","time_Audio9","time_response","title"
"Mixed","Both","tile","32","m160bluff.wav","NA","NA","168","125078.223535","NA","NA","NA","NA","NA","NA","NA","NA","NA","NA","NA","NA","NA","NA","NA","NA","Mapping"
"Mixed","Both","tile","32","m150cave.wav","None","718.510225648","168","125078.223535","NA","NA","NA","NA","NA","NA","NA","125845.124153","NA","NA","NA","NA","NA","NA","NA","125093.937621","Mapping"
"Mixed","Both","tile","32","m160tile.wav","None","725.59185978","168","125078.223535","NA","NA","NA","NA","NA","NA","NA","125845.124153","126611.328512","NA","NA","NA","NA","NA","NA","125854.975061","Mapping"
"Mixed","Both","tile","32","m150cave.wav","space","447.375621647","168","125078.223535","NA","NA","NA","NA","NA","NA","NA","125845.124153","126611.328512","127377.880073","NA","NA","NA","NA","NA","126621.107691","Mapping"
"Mixed","Both","tile","32","m160tile.wav","None","726.093340432","168","125078.223535","NA","NA","NA","NA","NA","NA","NA","125845.124153","126611.328512","127377.880073","128145.112127","NA","NA","NA","NA","127387.63359","Mapping"
"Mixed","Both","tile","32","m160jolt.wav","space","416.642782977","168","125078.223535","NA","NA","NA","NA","NA","NA","NA","125845.124153","126611.328512","127377.880073","128145.112127","128911.472927","NA","NA","NA","128155.829649","Mapping"
"Mixed","Both","tile","32","m160done.wav","None","725.487668067","168","125078.223535","NA","NA","NA","NA","NA","NA","NA","125845.124153","126611.328512","127377.880073","128145.112127","128911.472927","129678.699725","NA","NA","128921.13091","Mapping"
"Mixed","Both","tile","32","m150tile.wav","None","726.179908961","168","125078.223535","NA","NA","NA","NA","NA","NA","NA","125845.124153","126611.328512","127377.880073","128145.112127","128911.472927","129678.699725","130444.322217","NA","129688.713257","Mapping"
"Mixed","Both","tile","32","m150done.wav","space","414.603160927","168","125078.223535","NA","NA","NA","NA","NA","NA","NA","125845.124153","126611.328512","127377.880073","128145.112127","128911.472927","129678.699725","130444.322217","131211.103804","130453.835506","Mapping"
"Mixed","Both","tile","32","m150depth.wav","None","730.152796954","168","125078.223535","131977.812426","NA","NA","NA","NA","NA","NA","125845.124153","126611.328512","127377.880073","128145.112127","128911.472927","129678.699725","130444.322217","131211.103804","131221.22833","Mapping"
"Mixed","Both","tile","32","m150park.wav","None","731.522129383","168","125078.223535","131977.812426","132744.217129","NA","NA","NA","NA","NA","125845.124153","126611.328512","127377.880073","128145.112127","128911.472927","129678.699725","130444.322217","131211.103804","131988.142862","Mapping"
"Mixed","Both","tile","32","m160depth.wav","None","734.818544239","168","125078.223535","131977.812426","132744.217129","133528.137167","NA","NA","NA","NA","125845.124153","126611.328512","127377.880073","128145.112127","128911.472927","129678.699725","130444.322217","131211.103804","132753.814513","Mapping"
"Mixed","Both","tile","32","m150tile.wav","None","718.521355884","168","125078.223535","131977.812426","132744.217129","133528.137167","134277.366319","NA","NA","NA","125845.124153","126611.328512","127377.880073","128145.112127","128911.472927","129678.699725","130444.322217","131211.103804","133538.287045","Mapping"
"Mixed","Both","tile","32","m160knife.wav","space","373.609759845","168","125078.223535","131977.812426","132744.217129","133528.137167","134277.366319","135044.885595","NA","NA","125845.124153","126611.328512","127377.880073","128145.112127","128911.472927","129678.699725","130444.322217","131211.103804","134286.780671","Mapping"
"Mixed","Both","tile","32","m150ball.wav","None","734.816379845","168","125078.223535","131977.812426","132744.217129","133528.137167","134277.366319","135044.885595","135827.581612","NA","125845.124153","126611.328512","127377.880073","128145.112127","128911.472927","129678.699725","130444.322217","131211.103804","135054.851205","Mapping"
"Mixed","Both","tile","32","m160depth.wav","None","720.595605439","168","125078.223535","131977.812426","132744.217129","133528.137167","134277.366319","135044.885595","135827.581612","136577.661301","125845.124153","126611.328512","127377.880073","128145.112127","128911.472927","129678.699725","130444.322217","131211.103804","135837.245778","Mapping"
"Mixed","Both","ball","4","m160reek.wav","None","735.042386223","168","139744.199506","131977.812426","132744.217129","133528.137167","134277.366319","135044.885595","135827.581612","136577.661301","125845.124153","126611.328512","127377.880073","128145.112127","128911.472927","129678.699725","130444.322217","131211.103804","136587.780572","Mapping"
"Mixed","Both","ball","4","m160ball.wav","None","725.391205866","168","139744.199506","131977.812426","132744.217129","133528.137167","134277.366319","135044.885595","135827.581612","136577.661301","140511.067044","126611.328512","127377.880073","128145.112127","128911.472927","129678.699725","130444.322217","131211.103804","139753.564392","Mapping"
"Mixed","Both","ball","4","m160cave.wav","space","443.929566303","168","139744.199506","131977.812426","132744.217129","133528.137167","134277.366319","135044.885595","135827.581612","136577.661301","140511.067044","141277.303556","127377.880073","128145.112127","128911.472927","129678.699725","130444.322217","131211.103804","140520.393282","Mapping"
"Mixed","Both","ball","4","m150knife.wav","None","729.241969762","168","139744.199506","131977.812426","132744.217129","133528.137167","134277.366319","135044.885595","135827.581612","136577.661301","140511.067044","141277.303556","142044.863025","128145.112127","128911.472927","129678.699725","130444.322217","131211.103804","141286.141609","Mapping"
"Mixed","Both","ball","4","m160jolt.wav","None","729.368112981","168","139744.199506","131977.812426","132744.217129","133528.137167","134277.366319","135044.885595","135827.581612","136577.661301","140511.067044","141277.303556","142044.863025","142810.69823","128911.472927","129678.699725","130444.322217","131211.103804","142054.802665","Mapping"
"Mixed","Both","ball","4","m150ball.wav","None","729.711914668","168","139744.199506","131977.812426","132744.217129","133528.137167","134277.366319","135044.885595","135827.581612","136577.661301","140511.067044","141277.303556","142044.863025","142810.69823","143577.63193","129678.699725","130444.322217","131211.103804","142820.153703","Mapping"
"Mixed","Both","ball","4","m160depth.wav","space","457.015980966","168","139744.199506","131977.812426","132744.217129","133528.137167","134277.366319","135044.885595","135827.581612","136577.661301","140511.067044","141277.303556","142044.863025","142810.69823","143577.63193","144344.089193","130444.322217","131211.103804","143587.242299","Mapping"
"Mixed","Both","ball","4","m150cling.wav","None","726.17063392","168","139744.199506","131977.812426","132744.217129","133528.137167","134277.366319","135044.885595","135827.581612","136577.661301","140511.067044","141277.303556","142044.863025","142810.69823","143577.63193","144344.089193","145110.909736","131211.103804","144353.252497","Mapping"
"Mixed","Both","ball","4","m160depth.wav","None","726.566995028","168","139744.199506","131977.812426","132744.217129","133528.137167","134277.366319","135044.885595","135827.581612","136577.661301","140511.067044","141277.303556","142044.863025","142810.69823","143577.63193","144344.089193","145110.909736","145877.475828","145120.994069","Mapping"
"Mixed","Both","ball","4","m160ball.wav","None","725.627723848","168","139744.199506","146644.54742","132744.217129","133528.137167","134277.366319","135044.885595","135827.581612","136577.661301","140511.067044","141277.303556","142044.863025","142810.69823","143577.63193","144344.089193","145110.909736","145877.475828","145887.020343","Mapping"
"Mixed","Both","ball","4","m150jaw.wav","space","438.199023483","168","139744.199506","146644.54742","147410.550197","133528.137167","134277.366319","135044.885595","135827.581612","136577.661301","140511.067044","141277.303556","142044.863025","142810.69823","143577.63193","144344.089193","145110.909736","145877.475828","146654.012478","Mapping"
"Mixed","Both","ball","4","m150dime.wav","None","725.671936059","168","139744.199506","146644.54742","147410.550197","148177.272731","134277.366319","135044.885595","135827.581612","136577.661301","140511.067044","141277.303556","142044.863025","142810.69823","143577.63193","144344.089193","145110.909736","145877.475828","147419.712882","Mapping"
"Mixed","Both","ball","4","m160priest.wav","None","726.58214462","168","139744.199506","146644.54742","147410.550197","148177.272731","148944.092347","135044.885595","135827.581612","136577.661301","140511.067044","141277.303556","142044.863025","142810.69823","143577.63193","144344.089193","145110.909736","145877.475828","148186.994094","Mapping"
"Mixed","Both","ball","4","m150greet.wav","None","728.963713162","168","139744.199506","146644.54742","147410.550197","148177.272731","148944.092347","149710.581764","135827.581612","136577.661301","140511.067044","141277.303556","142044.863025","142810.69823","143577.63193","144344.089193","145110.909736","145877.475828","148953.468053","Mapping"
"Mixed","Both","ball","4","m150ball.wav","None","730.512675596","168","139744.199506","146644.54742","147410.550197","148177.272731","148944.092347","149710.581764","150477.49444","136577.661301","140511.067044","141277.303556","142044.863025","142810.69823","143577.63193","144344.089193","145110.909736","145877.475828","149720.079903","Mapping"
"Mixed","Both","ball","4","m150gnash.wav","space","525.082835695","168","139744.199506","146644.54742","147410.550197","148177.272731","148944.092347","149710.581764","150477.49444","151244.048784","140511.067044","141277.303556","142044.863025","142810.69823","143577.63193","144344.089193","145110.909736","145877.475828","150487.032772","Mapping"
"Mixed","Both","cave","13","m160knife.wav","None","729.958326323","168","154377.735998","146644.54742","147410.550197","148177.272731","148944.092347","149710.581764","150477.49444","151244.048784","140511.067044","141277.303556","142044.863025","142810.69823","143577.63193","144344.089193","145110.909736","145877.475828","151253.602575","Mapping"
"Mixed","Both","cave","13","m160depth.wav","None","721.262803301","168","154377.735998","146644.54742","147410.550197","148177.272731","148944.092347","149710.581764","150477.49444","151244.048784","155144.545411","141277.303556","142044.863025","142810.69823","143577.63193","144344.089193","145110.909736","145877.475828","154387.994706","Mapping"
"Mixed","Both","cave","13","m160cave.wav","None","720.36496154","168","154377.735998","146644.54742","147410.550197","148177.272731","148944.092347","149710.581764","150477.49444","151244.048784","155144.545411","155894.179271","142044.863025","142810.69823","143577.63193","144344.089193","145110.909736","145877.475828","155153.947706","Mapping"
"Mixed","Both","cave","13","m150lash.wav","space","508.268089965","168","154377.735998","146644.54742","147410.550197","148177.272731","148944.092347","149710.581764","150477.49444","151244.048784","155144.545411","155894.179271","156677.708203","142810.69823","143577.63193","144344.089193","145110.909736","145877.475828","155903.805408","Mapping"
"Mixed","Both","cave","13","m160cad.wav","None","719.374367502","168","154377.735998","146644.54742","147410.550197","148177.272731","148944.092347","149710.581764","150477.49444","151244.048784","155144.545411","155894.179271","156677.708203","157444.13053","143577.63193","144344.089193","145110.909736","145877.475828","156687.875395","Mapping"
"Mixed","Both","cave","13","m160cad.wav","None","720.848509809","168","154377.735998","146644.54742","147410.550197","148177.272731","148944.092347","149710.581764","150477.49444","151244.048784","155144.545411","155894.179271","156677.708203","157444.13053","158211.160383","144344.089193","145110.909736","145877.475828","157454.720981","Mapping"
"Mixed","Both","cave","13","m160tile.wav","None","718.910915544","168","154377.735998","146644.54742","147410.550197","148177.272731","148944.092347","149710.581764","150477.49444","151244.048784","155144.545411","155894.179271","156677.708203","157444.13053","158211.160383","158960.15147","145110.909736","145877.475828","158221.686217","Mapping"
"Mixed","Both","cave","13","m160cave.wav","None","735.788423568","168","154377.735998","146644.54742","147410.550197","148177.272731","148944.092347","149710.581764","150477.49444","151244.048784","155144.545411","155894.179271","156677.708203","157444.13053","158211.160383","158960.15147","159727.307467","145877.475828","158969.862322","Mapping"
"Mixed","Both","cave","13","m150greet.wav","space","587.037626188","168","154377.735998","146644.54742","147410.550197","148177.272731","148944.092347","149710.581764","150477.49444","151244.048784","155144.545411","155894.179271","156677.708203","157444.13053","158211.160383","158960.15147","159727.307467","160493.934158","159736.968541","Mapping"
"Mixed","Both","cave","13","m150knife.wav","None","731.589529198","168","154377.735998","161260.645562","147410.550197","148177.272731","148944.092347","149710.581764","150477.49444","151244.048784","155144.545411","155894.179271","156677.708203","157444.13053","158211.160383","158960.15147","159727.307467","160493.934158","160503.537107","Mapping"
"Mixed","Both","cave","13","m150cave.wav","None","729.87237596","168","154377.735998","161260.645562","162027.285547","148177.272731","148944.092347","149710.581764","150477.49444","151244.048784","155144.545411","155894.179271","156677.708203","157444.13053","158211.160383","158960.15147","159727.307467","160493.934158","161270.087122","Mapping"
"Mixed","Both","cave","13","m160park.wav","space","694.639507681","168","154377.735998","161260.645562","162027.285547","162793.897088","148944.092347","149710.581764","150477.49444","151244.048784","155144.545411","155894.179271","156677.708203","157444.13053","158211.160383","158960.15147","159727.307467","160493.934158","162037.332779","Mapping"
"Mixed","Both","cave","13","m150cave.wav","None","729.366876418","168","154377.735998","161260.645562","162027.285547","162793.897088","163560.96497","149710.581764","150477.49444","151244.048784","155144.545411","155894.179271","156677.708203","157444.13053","158211.160383","158960.15147","159727.307467","160493.934158","162803.614431","Mapping"
"Mixed","Both","cave","13","m150priest.wav","None","727.05549025","168","154377.735998","161260.645562","162027.285547","162793.897088","163560.96497","164327.27723","150477.49444","151244.048784","155144.545411","155894.179271","156677.708203","157444.13053","158211.160383","158960.15147","159727.307467","160493.934158","163570.796089","Mapping"
"Mixed","Both","cave","13","m150jolt.wav","space","74.7917017434","168","154377.735998","161260.645562","162027.285547","162793.897088","163560.96497","164327.27723","165093.819825","151244.048784","155144.545411","155894.179271","156677.708203","157444.13053","158211.160383","158960.15147","159727.307467","160493.934158","164337.166165","Mapping"
"Mixed","Both","cave","13","m150bluff.wav","None","731.136898277","168","154377.735998","161260.645562","162027.285547","162793.897088","163560.96497","164327.27723","165093.819825","165860.34387","155144.545411","155894.179271","156677.708203","157444.13053","158211.160383","158960.15147","159727.307467","160493.934158","165103.655583","Mapping"
"Mixed","Both","done","37","m160bluff.wav","None","733.108501881","168","168994.122599","161260.645562","162027.285547","162793.897088","163560.96497","164327.27723","165093.819825","165860.34387","155144.545411","155894.179271","156677.708203","157444.13053","158211.160383","158960.15147","159727.307467","160493.934158","165869.801816","Mapping"
"Mixed","Both","done","37","m150reek.wav","None","720.69546883","168","168994.122599","161260.645562","162027.285547","162793.897088","163560.96497","164327.27723","165093.819825","165860.34387","169760.692711","155894.179271","156677.708203","157444.13053","158211.160383","158960.15147","159727.307467","160493.934158","169004.383471","Mapping"
"Mixed","Both","done","37","m150dime.wav","None","722.682840191","168","168994.122599","161260.645562","162027.285547","162793.897088","163560.96497","164327.27723","165093.819825","165860.34387","169760.692711","170527.578489","156677.708203","157444.13053","158211.160383","158960.15147","159727.307467","160493.934158","169770.761276","Mapping"
"Mixed","Both","done","37","m160ball.wav","space","370.063532377","168","168994.122599","161260.645562","162027.285547","162793.897088","163560.96497","164327.27723","165093.819825","165860.34387","169760.692711","170527.578489","171294.026168","157444.13053","158211.160383","158960.15147","159727.307467","160493.934158","170537.790821","Mapping"
"Mixed","Both","done","37","m150done.wav","None","718.580099288","168","168994.122599","161260.645562","162027.285547","162793.897088","163560.96497","164327.27723","165093.819825","165860.34387","169760.692711","170527.578489","171294.026168","172043.520591","158211.160383","158960.15147","159727.307467","160493.934158","171304.622494","Mapping"
"Mixed","Both","done","37","m150park.wav","space","646.421015263","168","168994.122599","161260.645562","162027.285547","162793.897088","163560.96497","164327.27723","165093.819825","165860.34387","169760.692711","170527.578489","171294.026168","172043.520591","172810.167378","158960.15147","159727.307467","160493.934158","172053.437352","Mapping"
"Mixed","Both","done","37","m160jaw.wav","None","733.422313584","168","168994.122599","161260.645562","162027.285547","162793.897088","163560.96497","164327.27723","165093.819825","165860.34387","169760.692711","170527.578489","171294.026168","172043.520591","172810.167378","173577.108189","159727.307467","160493.934158","172819.416323","Mapping"
"Mixed","Both","done","37","m160priest.wav","None","733.866906259","168","168994.122599","161260.645562","162027.285547","162793.897088","163560.96497","164327.27723","165093.819825","165860.34387","169760.692711","170527.578489","171294.026168","172043.520591","172810.167378","173577.108189","174343.717257","160493.934158","173587.299497","Mapping"
"Mixed","Both","done","37","m160reek.wav","None","733.502698829","168","168994.122599","161260.645562","162027.285547","162793.897088","163560.96497","164327.27723","165093.819825","165860.34387","169760.692711","170527.578489","171294.026168","172043.520591","172810.167378","173577.108189","174343.717257","175110.4401","174352.803885","Mapping"
"Mixed","Both","done","37","m160done.wav","None","730.880902149","168","168994.122599","175877.061535","162027.285547","162793.897088","163560.96497","164327.27723","165093.819825","165860.34387","169760.692711","170527.578489","171294.026168","172043.520591","172810.167378","173577.108189","174343.717257","175110.4401","175120.421479","Mapping"
"Mixed","Both","done","37","m150tile.wav","space","421.462808037","168","168994.122599","175877.061535","176643.657617","162793.897088","163560.96497","164327.27723","165093.819825","165860.34387","169760.692711","170527.578489","171294.026168","172043.520591","172810.167378","173577.108189","174343.717257","175110.4401","175886.318518","Mapping"
"Mixed","Both","done","37","m160done.wav","None","727.806474315","168","168994.122599","175877.061535","176643.657617","177410.104368","163560.96497","164327.27723","165093.819825","165860.34387","169760.692711","170527.578489","171294.026168","172043.520591","172810.167378","173577.108189","174343.717257","175110.4401","176653.09423","Mapping"
"Mixed","Both","done","37","m150depth.wav","space","520.211487543","168","168994.122599","175877.061535","176643.657617","177410.104368","178177.368575","164327.27723","165093.819825","165860.34387","169760.692711","170527.578489","171294.026168","172043.520591","172810.167378","173577.108189","174343.717257","175110.4401","177419.523668","Mapping"
"Mixed","Both","done","37","m160priest.wav","None","722.532581538","168","168994.122599","175877.061535","176643.657617","177410.104368","178177.368575","178944.0874","165093.819825","165860.34387","169760.692711","170527.578489","171294.026168","172043.520591","172810.167378","173577.108189","174343.717257","175110.4401","178187.748789","Mapping"
"Mixed","Both","done","37","m150done.wav","None","720.772762317","168","168994.122599","175877.061535","176643.657617","177410.104368","178177.368575","178944.0874","179710.279391","165860.34387","169760.692711","170527.578489","171294.026168","172043.520591","172810.167378","173577.108189","174343.717257","175110.4401","178954.641678","Mapping"
"Mixed","Both","done","37","m150knife.wav","space","380.261641694","168","168994.122599","175877.061535","176643.657617","177410.104368","178177.368575","178944.0874","179710.279391","180460.156572","169760.692711","170527.578489","171294.026168","172043.520591","172810.167378","173577.108189","174343.717257","175110.4401","179719.474231","Mapping"
"Mixed","Both","tile","27","m160park.wav","None","734.872340458","168","183593.792772","175877.061535","176643.657617","177410.104368","178177.368575","178944.0874","179710.279391","180460.156572","169760.692711","170527.578489","171294.026168","172043.520591","172810.167378","173577.108189","174343.717257","175110.4401","180470.099304","Mapping"
"Mixed","Both","tile","27","m150romp.wav","None","720.6339431","168","183593.792772","175877.061535","176643.657617","177410.104368","178177.368575","178944.0874","179710.279391","180460.156572","184360.255291","170527.578489","171294.026168","172043.520591","172810.167378","173577.108189","174343.717257","175110.4401","183603.551545","Mapping"
"Mixed","Both","tile","27","m160knife.wav","None","724.715351127","168","183593.792772","175877.061535","176643.657617","177410.104368","178177.368575","178944.0874","179710.279391","180460.156572","184360.255291","185127.283599","171294.026168","172043.520591","172810.167378","173577.108189","174343.717257","175110.4401","184370.010045","Mapping"
"Mixed","Both","tile","27","m160romp.wav","None","722.414786229","168","183593.792772","175877.061535","176643.657617","177410.104368","178177.368575","178944.0874","179710.279391","180460.156572","184360.255291","185127.283599","185893.387476","172043.520591","172810.167378","173577.108189","174343.717257","175110.4401","185137.469032","Mapping"
"Mixed","Both","tile","27","m150dime.wav","None","725.795605453","168","183593.792772","175877.061535","176643.657617","177410.104368","178177.368575","178944.0874","179710.279391","180460.156572","184360.255291","185127.283599","185893.387476","186660.545019","172810.167378","173577.108189","174343.717257","175110.4401","185902.46823","Mapping"
"Mixed","Both","tile","27","m150cling.wav","None","722.509084502","168","183593.792772","175877.061535","176643.657617","177410.104368","178177.368575","178944.0874","179710.279391","180460.156572","184360.255291","185127.283599","185893.387476","186660.545019","187426.640857","173577.108189","174343.717257","175110.4401","186671.095277","Mapping"
"Mixed","Both","tile","27","m160tile.wav","None","722.825678531","168","183593.792772","175877.061535","176643.657617","177410.104368","178177.368575","178944.0874","179710.279391","180460.156572","184360.255291","185127.283599","185893.387476","186660.545019","187426.640857","188194.04914","174343.717257","175110.4401","187435.974206","Mapping"
"Mixed","Both","tile","27","m150priest.wav","space","535.637422698","168","183593.792772","175877.061535","176643.657617","177410.104368","178177.368575","178944.0874","179710.279391","180460.156572","184360.255291","185127.283599","185893.387476","186660.545019","187426.640857","188194.04914","188943.659194","175110.4401","188203.942094","Mapping"
"Mixed","Both","tile","27","m150jolt.wav","None","735.783476615","168","183593.792772","175877.061535","176643.657617","177410.104368","178177.368575","178944.0874","179710.279391","180460.156572","184360.255291","185127.283599","185893.387476","186660.545019","187426.640857","188194.04914","188943.659194","189710.023395","188952.973683","Mapping"
"Mixed","Both","tile","27","m160tile.wav","None","734.279344324","168","183593.792772","190476.960806","176643.657617","177410.104368","178177.368575","178944.0874","179710.279391","180460.156572","184360.255291","185127.283599","185893.387476","186660.545019","187426.640857","188194.04914","188943.659194","189710.023395","189719.750323","Mapping"
"Mixed","Both","tile","27","m160lash.wav","space","452.612722758","168","183593.792772","190476.960806","191243.165473","177410.104368","178177.368575","178944.0874","179710.279391","180460.156572","184360.255291","185127.283599","185893.387476","186660.545019","187426.640857","188194.04914","188943.659194","189710.023395","190486.926107","Mapping"
"Mixed","Both","tile","27","m150tile.wav","None","734.674778068","168","183593.792772","190476.960806","191243.165473","192010.118034","178177.368575","178944.0874","179710.279391","180460.156572","184360.255291","185127.283599","185893.387476","186660.545019","187426.640857","188194.04914","188943.659194","189710.023395","191252.728848","Mapping"
"Mixed","Both","tile","27","m160jaw.wav","space","535.776860313","168","183593.792772","190476.960806","191243.165473","192010.118034","192776.835003","178944.0874","179710.279391","180460.156572","184360.255291","185127.283599","185893.387476","186660.545019","187426.640857","188194.04914","188943.659194","189710.023395","192019.750045","Mapping"
"Mixed","Both","tile","27","m150tile.wav","None","731.06455151","168","183593.792772","190476.960806","191243.165473","192010.118034","192776.835003","193543.39553","179710.279391","180460.156572","184360.255291","185127.283599","185893.387476","186660.545019","187426.640857","188194.04914","188943.659194","189710.023395","192786.981789","Mapping"
"Mixed","Both","tile","27","m160reek.wav","space","393.955274252","168","183593.792772","190476.960806","191243.165473","192010.118034","192776.835003","193543.39553","194310.06365","180460.156572","184360.255291","185127.283599","185893.387476","186660.545019","187426.640857","188194.04914","188943.659194","189710.023395","193553.535206","Mapping"
"Mixed","Both","tile","27","m150greet.wav","None","728.779136203","168","183593.792772","190476.960806","191243.165473","192010.118034","192776.835003","193543.39553","194310.06365","195076.831942","184360.255291","185127.283599","185893.387476","186660.545019","187426.640857","188194.04914","188943.659194","189710.023395","194319.741728","Mapping"
"Mixed","Both","done","47","m160ball.wav","None","727.105267346","168","198210.427331","190476.960806","191243.165473","192010.118034","192776.835003","193543.39553","194310.06365","195076.831942","184360.255291","185127.283599","185893.387476","186660.545019","187426.640857","188194.04914","188943.659194","189710.023395","195086.71593","Mapping"
"Mixed","Both","done","47","m160depth.wav","None","721.295575611","168","198210.427331","190476.960806","191243.165473","192010.118034","192776.835003","193543.39553","194310.06365","195076.831942","198977.09947","185127.283599","185893.387476","186660.545019","187426.640857","188194.04914","188943.659194","189710.023395","198220.596378","Mapping"
"Mixed","Both","done","47","m160cad.wav","None","720.219031442","168","198210.427331","190476.960806","191243.165473","192010.118034","192776.835003","193543.39553","194310.06365","195076.831942","198977.09947","199743.664017","185893.387476","186660.545019","187426.640857","188194.04914","188943.659194","189710.023395","198987.177929","Mapping"
"Mixed","Both","done","47","m160park.wav","None","719.210814452","168","198210.427331","190476.960806","191243.165473","192010.118034","192776.835003","193543.39553","194310.06365","195076.831942","198977.09947","199743.664017","200493.027968","186660.545019","187426.640857","188194.04914","188943.659194","189710.023395","199753.421244","Mapping"
"Mixed","Both","done","47","m160done.wav","None","734.739395557","168","198210.427331","190476.960806","191243.165473","192010.118034","192776.835003","193543.39553","194310.06365","195076.831942","198977.09947","199743.664017","200493.027968","201260.008663","187426.640857","188194.04914","188943.659194","189710.023395","200503.197634","Mapping"
"Mixed","Both","done","47","m150cave.wav","space","421.739828074","168","198210.427331","190476.960806","191243.165473","192010.118034","192776.835003","193543.39553","194310.06365","195076.831942","198977.09947","199743.664017","200493.027968","201260.008663","202026.779119","188194.04914","188943.659194","189710.023395","201269.651496","Mapping"
"Mixed","Both","done","47","m160done.wav","None","731.365068816","168","198210.427331","190476.960806","191243.165473","192010.118034","192776.835003","193543.39553","194310.06365","195076.831942","198977.09947","199743.664017","200493.027968","201260.008663","202026.779119","202793.249059","188943.659194","189710.023395","202036.363518","Mapping"
"Mixed","Both","done","47","m150priest.wav","space","464.644234627","168","198210.427331","190476.960806","191243.165473","192010.118034","192776.835003","193543.39553","194310.06365","195076.831942","198977.09947","199743.664017","200493.027968","201260.008663","202026.779119","202793.249059","203559.794436","189710.023395","202802.742251","Mapping"
"Mixed","Both","done","47","m150done.wav","None","728.705862071","168","198210.427331","190476.960806","191243.165473","192010.118034","192776.835003","193543.39553","194310.06365","195076.831942","198977.09947","199743.664017","200493.027968","201260.008663","202026.779119","202793.249059","203559.794436","204326.697219","203569.073989","Mapping"
"Mixed","Both","done","47","m150gnash.wav","space","395.246385364","168","198210.427331","205093.099449","191243.165473","192010.118034","192776.835003","193543.39553","194310.06365","195076.831942","198977.09947","199743.664017","200493.027968","201260.008663","202026.779119","202793.249059","203559.794436","204326.697219","204336.071998","Mapping"
"Mixed","Both","done","47","m150romp.wav","None","725.364926038","168","198210.427331","205093.099449","205860.161766","192010.118034","192776.835003","193543.39553","194310.06365","195076.831942","198977.09947","199743.664017","200493.027968","201260.008663","202026.779119","202793.249059","203559.794436","204326.697219","205102.337882","Mapping"
"Mixed","Both","done","47","m160cling.wav","None","722.88782266","168","198210.427331","205093.099449","205860.161766","206626.311092","192776.835003","193543.39553","194310.06365","195076.831942","198977.09947","199743.664017","200493.027968","201260.008663","202026.779119","202793.249059","203559.794436","204326.697219","205870.661939","Mapping"
"Mixed","Both","done","47","m150done.wav","None","727.003239794","168","198210.427331","205093.099449","205860.161766","206626.311092","207393.191305","193543.39553","194310.06365","195076.831942","198977.09947","199743.664017","200493.027968","201260.008663","202026.779119","202793.249059","203559.794436","204326.697219","206635.434512","Mapping"
"Mixed","Both","done","47","m150cave.wav","space","488.861228107","168","198210.427331","205093.099449","205860.161766","206626.311092","207393.191305","208160.381001","194310.06365","195076.831942","198977.09947","199743.664017","200493.027968","201260.008663","202026.779119","202793.249059","203559.794436","204326.697219","207402.457563","Mapping"
"Mixed","Both","done","47","m160gnash.wav","None","721.622991143","168","198210.427331","205093.099449","205860.161766","206626.311092","207393.191305","208160.381001","208926.325654","195076.831942","198977.09947","199743.664017","200493.027968","201260.008663","202026.779119","202793.249059","203559.794436","204326.697219","208170.729679","Mapping"
"Mixed","Both","done","47","m150ball.wav","None","725.83270655","168","198210.427331","205093.099449","205860.161766","206626.311092","207393.191305","208160.381001","208926.325654","209693.549359","198977.09947","199743.664017","200493.027968","201260.008663","202026.779119","202793.249059","203559.794436","204326.697219","208935.231106","Mapping"
"Mixed","Both","cave","16","m150bluff.wav","None","723.02571428","168","212810.304651","205093.099449","205860.161766","206626.311092","207393.191305","208160.381001","208926.325654","209693.549359","198977.09947","199743.664017","200493.027968","201260.008663","202026.779119","202793.249059","203559.794436","204326.697219","209703.311224","Mapping"
"Mixed","Both","cave","16","m150cave.wav","None","720.080212224","168","212810.304651","205093.099449","205860.161766","206626.311092","207393.191305","208160.381001","208926.325654","209693.549359","213576.325978","199743.664017","200493.027968","201260.008663","202026.779119","202793.249059","203559.794436","204326.697219","212820.560885","Mapping"
"Mixed","Both","cave","16","m160priest.wav","space","489.56336244","168","212810.304651","205093.099449","205860.161766","206626.311092","207393.191305","208160.381001","208926.325654","209693.549359","213576.325978","214343.089942","200493.027968","201260.008663","202026.779119","202793.249059","203559.794436","204326.697219","213585.632739","Mapping"
"Mixed","Both","cave","16","m160ball.wav","None","721.366067417","168","212810.304651","205093.099449","205860.161766","206626.311092","207393.191305","208160.381001","208926.325654","209693.549359","213576.325978","214343.089942","215109.978812","201260.008663","202026.779119","202793.249059","203559.794436","204326.697219","214352.346926","Mapping"
"Mixed","Both","cave","16","m160gnash.wav","None","719.205867499","168","212810.304651","205093.099449","205860.161766","206626.311092","207393.191305","208160.381001","208926.325654","209693.549359","213576.325978","214343.089942","215109.978812","215859.400888","202026.779119","202793.249059","203559.794436","204326.697219","215119.640196","Mapping"
"Mixed","Both","cave","16","m150priest.wav","None","735.164510086","168","212810.304651","205093.099449","205860.161766","206626.311092","207393.191305","208160.381001","208926.325654","209693.549359","213576.325978","214343.089942","215109.978812","215859.400888","216626.222668","202793.249059","203559.794436","204326.697219","215868.942003","Mapping"
"Mixed","Both","cave","16","m150reek.wav","None","731.791419908","168","212810.304651","205093.099449","205860.161766","206626.311092","207393.191305","208160.381001","208926.325654","209693.549359","213576.325978","214343.089942","215109.978812","215859.400888","216626.222668","217393.005182","203559.794436","204326.697219","216637.90234","Mapping"
"Mixed","Both","cave","16","m150cave.wav","None","732.521998463","168","212810.304651","205093.099449","205860.161766","206626.311092","207393.191305","208160.381001","208926.325654","209693.549359","213576.325978","214343.089942","215109.978812","215859.400888","216626.222668","217393.005182","218159.772856","204326.697219","217402.433448","Mapping"
"Mixed","Both","cave","16","m150park.wav","space","425.104879774","168","212810.304651","205093.099449","205860.161766","206626.311092","207393.191305","208160.381001","208926.325654","209693.549359","213576.325978","214343.089942","215109.978812","215859.400888","216626.222668","217393.005182","218159.772856","218926.508994","218170.041766","Mapping"
"Mixed","Both","cave","16","m160cave.wav","None","728.54447295","168","212810.304651","219692.979861","205860.161766","206626.311092","207393.191305","208160.381001","208926.325654","209693.549359","213576.325978","214343.089942","215109.978812","215859.400888","216626.222668","217393.005182","218159.772856","218926.508994","218936.334549","Mapping"
"Mixed","Both","cave","16","m150priest.wav","space","594.898379175","168","212810.304651","219692.979861","220459.782471","206626.311092","207393.191305","208160.381001","208926.325654","209693.549359","213576.325978","214343.089942","215109.978812","215859.400888","216626.222668","217393.005182","218159.772856","218926.508994","219720.222741","Mapping"
"Mixed","Both","cave","16","m160romp.wav","None","725.88866693","168","212810.304651","219692.979861","220459.782471","221226.779862","207393.191305","208160.381001","208926.325654","209693.549359","213576.325978","214343.089942","215109.978812","215859.400888","216626.222668","217393.005182","218159.772856","218926.508994","220468.902491","Mapping"
"Mixed","Both","cave","16","m160cave.wav","None","722.981193336","168","212810.304651","219692.979861","220459.782471","221226.779862","221993.358939","208160.381001","208926.325654","209693.549359","213576.325978","214343.089942","215109.978812","215859.400888","216626.222668","217393.005182","218159.772856","218926.508994","221237.007033","Mapping"
"Mixed","Both","cave","16","m160park.wav","space","480.161067331","168","212810.304651","219692.979861","220459.782471","221226.779862","221993.358939","222760.211636","208926.325654","209693.549359","213576.325978","214343.089942","215109.978812","215859.400888","216626.222668","217393.005182","218159.772856","218926.508994","222002.94643","Mapping"
"Mixed","Both","cave","16","m160reek.wav","None","719.543176703","168","212810.304651","219692.979861","220459.782471","221226.779862","221993.358939","222760.211636","223526.668281","209693.549359","213576.325978","214343.089942","215109.978812","215859.400888","216626.222668","217393.005182","218159.772856","218926.508994","222770.431697","Mapping"
"Mixed","Both","cave","16","m150park.wav","None","722.592252074","168","212810.304651","219692.979861","220459.782471","221226.779862","221993.358939","222760.211636","223526.668281","224276.066859","213576.325978","214343.089942","215109.978812","215859.400888","216626.222668","217393.005182","218159.772856","218926.508994","223532.873715","Mapping"
"Mixed","Both","done","45","m160depth.wav","None","735.247677891","168","227410.059229","219692.979861","220459.782471","221226.779862","221993.358939","222760.211636","223526.668281","224276.066859","213576.325978","214343.089942","215109.978812","215859.400888","216626.222668","217393.005182","218159.772856","218926.508994","224285.599008","Mapping"
"Mixed","Both","done","45","m150lash.wav","None","719.600992277","168","227410.059229","219692.979861","220459.782471","221226.779862","221993.358939","222760.211636","223526.668281","224276.066859","228176.939442","214343.089942","215109.978812","215859.400888","216626.222668","217393.005182","218159.772856","218926.508994","227420.839822","Mapping"
"Mixed","Both","done","45","m150lash.wav","None","717.244775966","168","227410.059229","219692.979861","220459.782471","221226.779862","221993.358939","222760.211636","223526.668281","224276.066859","228176.939442","228925.996383","215109.978812","215859.400888","216626.222668","217393.005182","218159.772856","218926.508994","228188.584486","Mapping"
"Mixed","Both","done","45","m160done.wav","None","736.055859132","168","227410.059229","219692.979861","220459.782471","221226.779862","221993.358939","222760.211636","223526.668281","224276.066859","228176.939442","228925.996383","229692.778588","215859.400888","216626.222668","217393.005182","218159.772856","218926.508994","228935.091359","Mapping"
"Mixed","Both","done","45","m150park.wav","space","517.190856161","168","227410.059229","219692.979861","220459.782471","221226.779862","221993.358939","222760.211636","223526.668281","224276.066859","228176.939442","228925.996383","229692.778588","230459.708579","216626.222668","217393.005182","218159.772856","218926.508994","229701.795653","Mapping"
"Mixed","Both","done","45","m160jaw.wav","None","732.157173101","168","227410.059229","219692.979861","220459.782471","221226.779862","221993.358939","222760.211636","223526.668281","224276.066859","228176.939442","228925.996383","229692.778588","230459.708579","231226.278072","217393.005182","218159.772856","218926.508994","230469.201153","Mapping"
"Mixed","Both","done","45","m150cling.wav","None","731.328586349","168","227410.059229","219692.979861","220459.782471","221226.779862","221993.358939","222760.211636","223526.668281","224276.066859","228176.939442","228925.996383","229692.778588","230459.708579","231226.278072","231992.812319","218159.772856","218926.508994","231235.749931","Mapping"
"Mixed","Both","done","45","m160done.wav","None","723.354057409","168","227410.059229","219692.979861","220459.782471","221226.779862","221993.358939","222760.211636","223526.668281","224276.066859","228176.939442","228925.996383","229692.778588","230459.708579","231226.278072","231992.812319","232759.504864","218926.508994","232009.054474","Mapping"
"Mixed","Both","done","45","m150romp.wav","space","442.07112072","168","227410.059229","219692.979861","220459.782471","221226.779862","221993.358939","222760.211636","223526.668281","224276.066859","228176.939442","228925.996383","229692.778588","230459.708579","231226.278072","231992.812319","232759.504864","233526.265118","232768.844706","Mapping"
"Mixed","Both","done","45","m160reek.wav","None","726.608424447","168","227410.059229","234292.745878","220459.782471","221226.779862","221993.358939","222760.211636","223526.668281","224276.066859","228176.939442","228925.996383","229692.778588","230459.708579","231226.278072","231992.812319","232759.504864","233526.265118","233535.675451","Mapping"
"Mixed","Both","done","45","m150done.wav","None","726.40529694","168","227410.059229","234292.745878","235059.222619","221226.779862","221993.358939","222760.211636","223526.668281","224276.066859","228176.939442","228925.996383","229692.778588","230459.708579","231226.278072","231992.812319","232759.504864","233526.265118","234301.789531","Mapping"
"Mixed","Both","done","45","m150jolt.wav","space","654.561880045","168","227410.059229","234292.745878","235059.222619","235826.443542","221993.358939","222760.211636","223526.668281","224276.066859","228176.939442","228925.996383","229692.778588","230459.708579","231226.278072","231992.812319","232759.504864","233526.265118","235068.325015","Mapping"
"Mixed","Both","done","45","m160depth.wav","None","721.716980217","168","227410.059229","234292.745878","235059.222619","235826.443542","236593.14969","222760.211636","223526.668281","224276.066859","228176.939442","228925.996383","229692.778588","230459.708579","231226.278072","231992.812319","232759.504864","233526.265118","235836.497267","Mapping"
"Mixed","Both","done","45","m160park.wav","None","721.174379345","168","227410.059229","234292.745878","235059.222619","235826.443542","236593.14969","237359.883046","223526.668281","224276.066859","228176.939442","228925.996383","229692.778588","230459.708579","231226.278072","231992.812319","232759.504864","233526.265118","236602.461088","Mapping"
"Mixed","Both","done","45","m150done.wav","None","719.689106802","168","227410.059229","234292.745878","235059.222619","235826.443542","236593.14969","237359.883046","238109.218553","224276.066859","228176.939442","228925.996383","229692.778588","230459.708579","231226.278072","231992.812319","232759.504864","233526.265118","237369.408392","Mapping"
"Mixed","Both","done","45","m160cad.wav","space","491.572376341","168","227410.059229","234292.745878","235059.222619","235826.443542","236593.14969","237359.883046","238109.218553","238876.151326","228176.939442","228925.996383","229692.778588","230459.708579","231226.278072","231992.812319","232759.504864","233526.265118","238119.262385","Mapping"
"Mixed","Both","tile","26","m160priest.wav","None","733.440864133","168","242009.734967","234292.745878","235059.222619","235826.443542","236593.14969","237359.883046","238109.218553","238876.151326","228176.939442","228925.996383","229692.778588","230459.708579","231226.278072","231992.812319","232759.504864","233526.265118","238885.634625","Mapping"
"Mixed","Both","tile","26","m160bluff.wav","None","720.78512935","168","242009.734967","234292.745878","235059.222619","235826.443542","236593.14969","237359.883046","238109.218553","238876.151326","242776.474506","228925.996383","229692.778588","230459.708579","231226.278072","231992.812319","232759.504864","233526.265118","242019.540116","Mapping"
"Mixed","Both","tile","26","m150done.wav","None","719.716313994","168","242009.734967","234292.745878","235059.222619","235826.443542","236593.14969","237359.883046","238109.218553","238876.151326","242776.474506","243525.928427","229692.778588","230459.708579","231226.278072","231992.812319","232759.504864","233526.265118","242786.208854","Mapping"
"Mixed","Both","tile","26","m160tile.wav","None","736.254658084","168","242009.734967","234292.745878","235059.222619","235826.443542","236593.14969","237359.883046","238109.218553","238876.151326","242776.474506","243525.928427","244292.30685","230459.708579","231226.278072","231992.812319","232759.504864","233526.265118","243535.248791","Mapping"
"Mixed","Both","tile","26","m160depth.wav","space","365.411388688","168","242009.734967","234292.745878","235059.222619","235826.443542","236593.14969","237359.883046","238109.218553","238876.151326","242776.474506","243525.928427","244292.30685","245059.309187","231226.278072","231992.812319","232759.504864","233526.265118","244301.352668","Mapping"
"Mixed","Both","tile","26","m150jolt.wav","None","732.913722051","168","242009.734967","234292.745878","235059.222619","235826.443542","236593.14969","237359.883046","238109.218553","238876.151326","242776.474506","243525.928427","244292.30685","245059.309187","245826.07006","231992.812319","232759.504864","233526.265118","245068.867925","Mapping"
"Mixed","Both","tile","26","m150greet.wav","None","731.717218179","168","242009.734967","234292.745878","235059.222619","235826.443542","236593.14969","237359.883046","238109.218553","238876.151326","242776.474506","243525.928427","244292.30685","245059.309187","245826.07006","246592.34862","232759.504864","233526.265118","245835.533262","Mapping"
"Mixed","Both","tile","26","m160tile.wav","None","731.857892359","168","242009.734967","234292.745878","235059.222619","235826.443542","236593.14969","237359.883046","238109.218553","238876.151326","242776.474506","243525.928427","244292.30685","245059.309187","245826.07006","246592.34862","247359.362396","233526.265118","246601.294574","Mapping"
"Mixed","Both","tile","26","m150greet.wav","space","337.870154995","168","242009.734967","234292.745878","235059.222619","235826.443542","236593.14969","237359.883046","238109.218553","238876.151326","242776.474506","243525.928427","244292.30685","245059.309187","245826.07006","246592.34862","247359.362396","248126.037627","247368.837347","Mapping"
"Mixed","Both","tile","26","m160cling.wav","None","727.863053093","168","242009.734967","248892.56971","235059.222619","235826.443542","236593.14969","237359.883046","238109.218553","238876.151326","242776.474506","243525.928427","244292.30685","245059.309187","245826.07006","246592.34862","247359.362396","248126.037627","248135.460946","Mapping"
"Mixed","Both","tile","26","m160ball.wav","None","727.227700409","168","242009.734967","248892.56971","249659.270293","235826.443542","236593.14969","237359.883046","238109.218553","238876.151326","242776.474506","243525.928427","244292.30685","245059.309187","245826.07006","246592.34862","247359.362396","248126.037627","248901.765477","Mapping"
"Mixed","Both","tile","26","m150tile.wav","None","725.774890976","168","242009.734967","248892.56971","249659.270293","250425.700349","236593.14969","237359.883046","238109.218553","238876.151326","242776.474506","243525.928427","244292.30685","245059.309187","245826.07006","246592.34862","247359.362396","248126.037627","249668.91931","Mapping"
"Mixed","Both","tile","26","m150priest.wav","space","352.063721977","168","242009.734967","248892.56971","249659.270293","250425.700349","251192.953736","237359.883046","238109.218553","238876.151326","242776.474506","243525.928427","244292.30685","245059.309187","245826.07006","246592.34862","247359.362396","248126.037627","250434.588797","Mapping"
"Mixed","Both","tile","26","m150gnash.wav","None","722.657178761","168","242009.734967","248892.56971","249659.270293","250425.700349","251192.953736","251959.406361","238109.218553","238876.151326","242776.474506","243525.928427","244292.30685","245059.309187","245826.07006","246592.34862","247359.362396","248126.037627","251203.127729","Mapping"
"Mixed","Both","tile","26","m150tile.wav","None","723.347564461","168","242009.734967","248892.56971","249659.270293","250425.700349","251192.953736","251959.406361","252725.858677","238876.151326","242776.474506","243525.928427","244292.30685","245059.309187","245826.07006","246592.34862","247359.362396","248126.037627","251968.16341","Mapping"
"Mixed","Both","tile","26","m160bluff.wav","space","443.72612983","168","242009.734967","248892.56971","249659.270293","250425.700349","251192.953736","251959.406361","252725.858677","253492.571627","242776.474506","243525.928427","244292.30685","245059.309187","245826.07006","246592.34862","247359.362396","248126.037627","252734.892437","Mapping"
"Mixed","Both","done","46","m160cave.wav","None","720.736279851","168","256609.589098","248892.56971","249659.270293","250425.700349","251192.953736","251959.406361","252725.858677","253492.571627","242776.474506","243525.928427","244292.30685","245059.309187","245826.07006","246592.34862","247359.362396","248126.037627","253501.376289","Mapping"
"Mixed","Both","done","46","m160tile.wav","None","720.732260263","168","256609.589098","248892.56971","249659.270293","250425.700349","251192.953736","251959.406361","252725.858677","253492.571627","257376.300502","243525.928427","244292.30685","245059.309187","245826.07006","246592.34862","247359.362396","248126.037627","256619.369514","Mapping"
"Mixed","Both","done","46","m160park.wav","None","719.208031893","168","256609.589098","248892.56971","249659.270293","250425.700349","251192.953736","251959.406361","252725.858677","253492.571627","257376.300502","258126.132853","244292.30685","245059.309187","245826.07006","246592.34862","247359.362396","248126.037627","257386.55179","Mapping"
"Mixed","Both","done","46","m150cad.wav","None","735.58807862","168","256609.589098","248892.56971","249659.270293","250425.700349","251192.953736","251959.406361","252725.858677","253492.571627","257376.300502","258126.132853","258909.256767","245059.309187","245826.07006","246592.34862","247359.362396","248126.037627","258135.778777","Mapping"
"Mixed","Both","done","46","m160cling.wav","None","722.101592924","168","256609.589098","248892.56971","249659.270293","250425.700349","251192.953736","251959.406361","252725.858677","253492.571627","257376.300502","258126.132853","258909.256767","259676.262196","245826.07006","246592.34862","247359.362396","248126.037627","258918.307531","Mapping"
"Mixed","Both","done","46","m160gnash.wav","None","719.566982938","168","256609.589098","248892.56971","249659.270293","250425.700349","251192.953736","251959.406361","252725.858677","253492.571627","257376.300502","258126.132853","258909.256767","259676.262196","260442.647421","246592.34862","247359.362396","248126.037627","259686.468035","Mapping"
"Mixed","Both","done","46","m160done.wav","None","719.021599973","168","256609.589098","248892.56971","249659.270293","250425.700349","251192.953736","251959.406361","252725.858677","253492.571627","257376.300502","258126.132853","258909.256767","259676.262196","260442.647421","261192.234906","247359.362396","248126.037627","260452.598501","Mapping"
"Mixed","Both","done","46","m150jaw.wav","space","360.635884805","168","256609.589098","248892.56971","249659.270293","250425.700349","251192.953736","251959.406361","252725.858677","253492.571627","257376.300502","258126.132853","258909.256767","259676.262196","260442.647421","261192.234906","261958.847683","248126.037627","261201.879284","Mapping"
"Mixed","Both","done","46","m150romp.wav","None","733.981918776","168","256609.589098","248892.56971","249659.270293","250425.700349","251192.953736","251959.406361","252725.858677","253492.571627","257376.300502","258126.132853","258909.256767","259676.262196","260442.647421","261192.234906","261958.847683","262725.414703","261968.045614","Mapping"
"Mixed","Both","done","46","m150cave.wav","None","733.282257803","168","256609.589098","263492.327689","249659.270293","250425.700349","251192.953736","251959.406361","252725.858677","253492.571627","257376.300502","258126.132853","258909.256767","259676.262196","260442.647421","261192.234906","261958.847683","262725.414703","262734.329121","Mapping"
"Mixed","Both","done","46","m160done.wav","None","731.963630067","168","256609.589098","263492.327689","264259.198936","250425.700349","251192.953736","251959.406361","252725.858677","253492.571627","257376.300502","258126.132853","258909.256767","259676.262196","260442.647421","261192.234906","261958.847683","262725.414703","263501.454201","Mapping"
"Mixed","Both","done","46","m150reek.wav","space","501.70926936","168","256609.589098","263492.327689","264259.198936","265025.410406","251192.953736","251959.406361","252725.858677","253492.571627","257376.300502","258126.132853","258909.256767","259676.262196","260442.647421","261192.234906","261958.847683","262725.414703","264268.738504","Mapping"
"Mixed","Both","done","46","m150done.wav","None","729.539086111","168","256609.589098","263492.327689","264259.198936","265025.410406","265792.247025","251959.406361","252725.858677","253492.571627","257376.300502","258126.132853","258909.256767","259676.262196","260442.647421","261192.234906","261958.847683","262725.414703","265034.401499","Mapping"
"Mixed","Both","done","46","m160jaw.wav","space","409.116556402","168","256609.589098","263492.327689","264259.198936","265025.410406","265792.247025","266558.771688","252725.858677","253492.571627","257376.300502","258126.132853","258909.256767","259676.262196","260442.647421","261192.234906","261958.847683","262725.414703","265801.307374","Mapping"
"Mixed","Both","done","46","m150done.wav","None","727.128146216","168","256609.589098","263492.327689","264259.198936","265025.410406","265792.247025","266558.771688","267325.370553","253492.571627","257376.300502","258126.132853","258909.256767","259676.262196","260442.647421","261192.234906","261958.847683","262725.414703","266567.632929","Mapping"
"Mixed","Both","done","46","m150cave.wav","space","396.376107819","168","256609.589098","263492.327689","264259.198936","265025.410406","265792.247025","266558.771688","267325.370553","268092.571998","257376.300502","258126.132853","258909.256767","259676.262196","260442.647421","261192.234906","261958.847683","262725.414703","267334.041961","Mapping"
"Mixed","Both","done","38","m150jolt.wav","None","722.626570379","168","271209.431172","263492.327689","264259.198936","265025.410406","265792.247025","266558.771688","267325.370553","268092.571998","257376.300502","258126.132853","258909.256767","259676.262196","260442.647421","261192.234906","261958.847683","262725.414703","268102.403427","Mapping"
"Mixed","Both","done","38","m160done.wav","None","721.183036221","168","271209.431172","263492.327689","264259.198936","265025.410406","265792.247025","266558.771688","267325.370553","268092.571998","271975.890599","258126.132853","258909.256767","259676.262196","260442.647421","261192.234906","261958.847683","262725.414703","271219.626808","Mapping"
"Mixed","Both","done","38","m150tile.wav","space","416.346903425","168","271209.431172","263492.327689","264259.198936","265025.410406","265792.247025","266558.771688","267325.370553","268092.571998","271975.890599","272725.918039","258909.256767","259676.262196","260442.647421","261192.234906","261958.847683","262725.414703","271986.008323","Mapping"
"Mixed","Both","done","38","m160lash.wav","None","735.474611633","168","271209.431172","263492.327689","264259.198936","265025.410406","265792.247025","266558.771688","267325.370553","268092.571998","271975.890599","272725.918039","273491.966264","259676.262196","260442.647421","261192.234906","261958.847683","262725.414703","272735.65486","Mapping"
"Mixed","Both","done","38","m150done.wav","None","735.261281719","168","271209.431172","263492.327689","264259.198936","265025.410406","265792.247025","266558.771688","267325.370553","268092.571998","271975.890599","272725.918039","273491.966264","274258.852661","260442.647421","261192.234906","261958.847683","262725.414703","273501.448017","Mapping"
"Mixed","Both","done","38","m150tile.wav","space","381.753406953","168","271209.431172","263492.327689","264259.198936","265025.410406","265792.247025","266558.771688","267325.370553","268092.571998","271975.890599","272725.918039","273491.966264","274258.852661","275025.705049","261192.234906","261958.847683","262725.414703","274268.554546","Mapping"
"Mixed","Both","done","38","m160cling.wav","None","732.496646233","168","271209.431172","263492.327689","264259.198936","265025.410406","265792.247025","266558.771688","267325.370553","268092.571998","271975.890599","272725.918039","273491.966264","274258.852661","275025.705049","275792.044825","261958.847683","262725.414703","275035.186802","Mapping"
"Mixed","Both","done","38","m160priest.wav","None","732.268784894","168","271209.431172","263492.327689","264259.198936","265025.410406","265792.247025","266558.771688","267325.370553","268092.571998","271975.890599","272725.918039","273491.966264","274258.852661","275025.705049","275792.044825","276558.9507","262725.414703","275801.103937","Mapping"
"Mixed","Both","done","38","m150knife.wav","None","730.66262505","168","271209.431172","263492.327689","264259.198936","265025.410406","265792.247025","266558.771688","267325.370553","268092.571998","271975.890599","272725.918039","273491.966264","274258.852661","275025.705049","275792.044825","276558.9507","277325.313356","276568.551176","Mapping"
"Mixed","Both","done","38","m160dime.wav","None","731.07444495","168","271209.431172","278092.147193","264259.198936","265025.410406","265792.247025","266558.771688","267325.370553","268092.571998","271975.890599","272725.918039","273491.966264","274258.852661","275025.705049","275792.044825","276558.9507","277325.313356","277333.98229","Mapping"
"Mixed","Both","done","38","m150done.wav","space","325.249356683","168","271209.431172","278092.147193","278858.478622","265025.410406","265792.247025","266558.771688","267325.370553","268092.571998","271975.890599","272725.918039","273491.966264","274258.852661","275025.705049","275792.044825","276558.9507","277325.313356","278100.993902","Mapping"
"Mixed","Both","done","38","m150jolt.wav","None","734.229258262","168","271209.431172","278092.147193","278858.478622","279625.629053","265792.247025","266558.771688","267325.370553","268092.571998","271975.890599","272725.918039","273491.966264","274258.852661","275025.705049","275792.044825","276558.9507","277325.313356","278867.231961","Mapping"
"Mixed","Both","done","38","m160done.wav","space","0.0343185383826","168","271209.431172","278092.147193","278858.478622","279625.629053","280391.787036","266558.771688","267325.370553","268092.571998","271975.890599","272725.918039","273491.966264","274258.852661","275025.705049","275792.044825","276558.9507","277325.313356","279635.487999","Mapping"
"Mixed","Both","done","38","m160jaw.wav","space","449.279207038","168","271209.431172","278092.147193","278858.478622","279625.629053","280391.787036","281158.58099","267325.370553","268092.571998","271975.890599","272725.918039","273491.966264","274258.852661","275025.705049","275792.044825","276558.9507","277325.313356","280400.947866","Mapping"
"Mixed","Both","done","38","m160bluff.wav","None","729.216308566","168","271209.431172","278092.147193","278858.478622","279625.629053","280391.787036","281158.58099","281925.152338","268092.571998","271975.890599","272725.918039","273491.966264","274258.852661","275025.705049","275792.044825","276558.9507","277325.313356","281167.723888","Mapping"
"Mixed","Both","done","38","m150depth.wav","None","728.53457951","168","271209.431172","278092.147193","278858.478622","279625.629053","280391.787036","281158.58099","281925.152338","282691.775627","271975.890599","272725.918039","273491.966264","274258.852661","275025.705049","275792.044825","276558.9507","277325.313356","281934.07263","Mapping"
"Mixed","Both","cave","18","m150gnash.wav","None","726.154556731","168","285825.872497","278092.147193","278858.478622","279625.629053","280391.787036","281158.58099","281925.152338","282691.775627","271975.890599","272725.918039","273491.966264","274258.852661","275025.705049","275792.044825","276558.9507","277325.313356","282702.190159","Mapping"
"Mixed","Both","cave","18","m150cave.wav","None","720.865205396","168","285825.872497","278092.147193","278858.478622","279625.629053","280391.787036","281158.58099","281925.152338","282691.775627","286592.260505","272725.918039","273491.966264","274258.852661","275025.705049","275792.044825","276558.9507","277325.313356","285835.694032","Mapping"
"Mixed","Both","cave","18","m160knife.wav","space","679.675787454","168","285825.872497","278092.147193","278858.478622","279625.629053","280391.787036","281158.58099","281925.152338","282691.775627","286592.260505","287341.898694","273491.966264","274258.852661","275025.705049","275792.044825","276558.9507","277325.313356","286602.4379","Mapping"
"Mixed","Both","cave","18","m160done.wav","None","736.305980943","168","285825.872497","278092.147193","278858.478622","279625.629053","280391.787036","281158.58099","281925.152338","282691.775627","286592.260505","287341.898694","288108.601132","274258.852661","275025.705049","275792.044825","276558.9507","277325.313356","287350.655743","Mapping"
"Mixed","Both","cave","18","m150bluff.wav","None","734.499167185","168","285825.872497","278092.147193","278858.478622","279625.629053","280391.787036","281158.58099","281925.152338","282691.775627","286592.260505","287341.898694","288108.601132","288875.473925","275025.705049","275792.044825","276558.9507","277325.313356","288118.127406","Mapping"
"Mixed","Both","cave","18","m160cave.wav","None","733.485075878","168","285825.872497","278092.147193","278858.478622","279625.629053","280391.787036","281158.58099","281925.152338","282691.775627","286592.260505","287341.898694","288108.601132","288875.473925","289641.886667","275792.044825","276558.9507","277325.313356","288884.985359","Mapping"
"Mixed","Both","cave","18","m150lash.wav","space","478.645495605","168","285825.872497","278092.147193","278858.478622","279625.629053","280391.787036","281158.58099","281925.152338","282691.775627","286592.260505","287341.898694","288108.601132","288875.473925","289641.886667","290408.917448","276558.9507","277325.313356","289651.458081","Mapping"
"Mixed","Both","cave","18","m150done.wav","None","730.394571088","168","285825.872497","278092.147193","278858.478622","279625.629053","280391.787036","281158.58099","281925.152338","282691.775627","286592.260505","287341.898694","288108.601132","288875.473925","289641.886667","290408.917448","291175.423252","277325.313356","290418.294082","Mapping"
"Mixed","Both","cave","18","m160priest.wav","None","729.882269632","168","285825.872497","278092.147193","278858.478622","279625.629053","280391.787036","281158.58099","281925.152338","282691.775627","286592.260505","287341.898694","288108.601132","288875.473925","289641.886667","290408.917448","291175.423252","291941.916997","291185.046916","Mapping"
"Mixed","Both","cave","18","m160cave.wav","None","729.461483425","168","285825.872497","292708.783298","278858.478622","279625.629053","280391.787036","281158.58099","281925.152338","282691.775627","286592.260505","287341.898694","288108.601132","288875.473925","289641.886667","290408.917448","291175.423252","291941.916997","291951.177072","Mapping"
"Mixed","Both","cave","18","m150romp.wav","space","619.612833718","168","285825.872497","292708.783298","293475.063404","279625.629053","280391.787036","281158.58099","281925.152338","282691.775627","286592.260505","287341.898694","288108.601132","288875.473925","289641.886667","290408.917448","291175.423252","291941.916997","292718.455811","Mapping"
"Mixed","Both","cave","18","m160reek.wav","None","728.057214525","168","285825.872497","292708.783298","293475.063404","294242.003906","280391.787036","281158.58099","281925.152338","282691.775627","286592.260505","287341.898694","288108.601132","288875.473925","289641.886667","290408.917448","291175.423252","291941.916997","293483.977513","Mapping"
"Mixed","Both","cave","18","m150depth.wav","None","726.686954498","168","285825.872497","292708.783298","293475.063404","294242.003906","295008.643582","281158.58099","281925.152338","282691.775627","286592.260505","287341.898694","288108.601132","288875.473925","289641.886667","290408.917448","291175.423252","291941.916997","294250.976759","Mapping"
"Mixed","Both","cave","18","m150cave.wav","None","725.370181957","168","285825.872497","292708.783298","293475.063404","294242.003906","295008.643582","295775.273673","281925.152338","282691.775627","286592.260505","287341.898694","288108.601132","288875.473925","289641.886667","290408.917448","291175.423252","291941.916997","295018.026399","Mapping"
"Mixed","Both","cave","18","m160ball.wav","space","561.359785032","168","285825.872497","292708.783298","293475.063404","294242.003906","295008.643582","295775.273673","296542.114003","282691.775627","286592.260505","287341.898694","288108.601132","288875.473925","289641.886667","290408.917448","291175.423252","291941.916997","295784.669476","Mapping"
"Mixed","Both","cave","18","m160gnash.wav","None","721.96895699","168","285825.872497","292708.783298","293475.063404","294242.003906","295008.643582","295775.273673","296542.114003","297309.192706","286592.260505","287341.898694","288108.601132","288875.473925","289641.886667","290408.917448","291175.423252","291941.916997","296552.366218","Mapping"
"Mixed","Both","cave","15","m160cad.wav","None","721.353700384","168","300425.659229","292708.783298","293475.063404","294242.003906","295008.643582","295775.273673","296542.114003","297309.192706","286592.260505","287341.898694","288108.601132","288875.473925","289641.886667","290408.917448","291175.423252","291941.916997","297318.822244","Mapping"
"Mixed","Both","cave","15","m160knife.wav","None","720.963522559","168","300425.659229","292708.783298","293475.063404","294242.003906","295008.643582","295775.273673","296542.114003","297309.192706","301192.040435","287341.898694","288108.601132","288875.473925","289641.886667","290408.917448","291175.423252","291941.916997","300435.370389","Mapping"
"Mixed","Both","cave","15","m150ball.wav","None","720.12411477","168","300425.659229","292708.783298","293475.063404","294242.003906","295008.643582","295775.273673","296542.114003","297309.192706","301192.040435","301959.091931","288108.601132","288875.473925","289641.886667","290408.917448","291175.423252","291941.916997","301201.993679","Mapping"
"Mixed","Both","cave","15","m150dime.wav","None","718.98635407","168","300425.659229","292708.783298","293475.063404","294242.003906","295008.643582","295775.273673","296542.114003","297309.192706","301192.040435","301959.091931","302708.140525","288875.473925","289641.886667","290408.917448","291175.423252","291941.916997","301968.889041","Mapping"
"Mixed","Both","cave","15","m150dime.wav","None","736.3093819","168","300425.659229","292708.783298","293475.063404","294242.003906","295008.643582","295775.273673","296542.114003","297309.192706","301192.040435","301959.091931","302708.140525","303475.013936","289641.886667","290408.917448","291175.423252","291941.916997","302717.414513","Mapping"
"Mixed","Both","cave","15","m160cave.wav","None","734.886871651","168","300425.659229","292708.783298","293475.063404","294242.003906","295008.643582","295775.273673","296542.114003","297309.192706","301192.040435","301959.091931","302708.140525","303475.013936","304241.633825","290408.917448","291175.423252","291941.916997","303484.575147","Mapping"
"Mixed","Both","cave","15","m150done.wav","space","479.121314827","168","300425.659229","292708.783298","293475.063404","294242.003906","295008.643582","295775.273673","296542.114003","297309.192706","301192.040435","301959.091931","302708.140525","303475.013936","304241.633825","305008.330079","291175.423252","291941.916997","304250.775177","Mapping"
"Mixed","Both","cave","15","m160dime.wav","None","732.315779198","168","300425.659229","292708.783298","293475.063404","294242.003906","295008.643582","295775.273673","296542.114003","297309.192706","301192.040435","301959.091931","302708.140525","303475.013936","304241.633825","305008.330079","305774.996962","291941.916997","305017.567894","Mapping"
"Mixed","Both","cave","15","m150knife.wav","None","731.490284437","168","300425.659229","292708.783298","293475.063404","294242.003906","295008.643582","295775.273673","296542.114003","297309.192706","301192.040435","301959.091931","302708.140525","303475.013936","304241.633825","305008.330079","305774.996962","306541.713004","305784.16985","Mapping"
"Mixed","Both","cave","15","m150cave.wav","None","730.242766673","168","300425.659229","307308.025574","293475.063404","294242.003906","295008.643582","295775.273673","296542.114003","297309.192706","301192.040435","301959.091931","302708.140525","303475.013936","304241.633825","305008.330079","305774.996962","306541.713004","306551.112208","Mapping"
"Mixed","Both","cave","15","m150dime.wav","space","452.680740738","168","300425.659229","307308.025574","308075.174768","294242.003906","295008.643582","295775.273673","296542.114003","297309.192706","301192.040435","301959.091931","302708.140525","303475.013936","304241.633825","305008.330079","305774.996962","306541.713004","307317.136318","Mapping"
"Mixed","Both","cave","15","m150cave.wav","None","727.470092708","168","300425.659229","307308.025574","308075.174768","308841.597404","295008.643582","295775.273673","296542.114003","297309.192706","301192.040435","301959.091931","302708.140525","303475.013936","304241.633825","305008.330079","305774.996962","306541.713004","308084.720521","Mapping"
"Mixed","Both","cave","15","m160tile.wav","space","695.157065056","168","300425.659229","307308.025574","308075.174768","308841.597404","309608.328595","295775.273673","296542.114003","297309.192706","301192.040435","301959.091931","302708.140525","303475.013936","304241.633825","305008.330079","305774.996962","306541.713004","308850.641676","Mapping"
"Mixed","Both","cave","15","m160cave.wav","None","724.894981366","168","300425.659229","307308.025574","308075.174768","308841.597404","309608.328595","310374.701454","296542.114003","297309.192706","301192.040435","301959.091931","302708.140525","303475.013936","304241.633825","305008.330079","305774.996962","306541.713004","309618.335326","Mapping"
"Mixed","Both","cave","15","m160jaw.wav","space","474.148248555","168","300425.659229","307308.025574","308075.174768","308841.597404","309608.328595","310374.701454","311141.915884","297309.192706","301192.040435","301959.091931","302708.140525","303475.013936","304241.633825","305008.330079","305774.996962","306541.713004","310383.635041","Mapping"
"Mixed","Both","cave","15","m160bluff.wav","None","722.757351119","168","300425.659229","307308.025574","308075.174768","308841.597404","309608.328595","310374.701454","311141.915884","311908.211449","301192.040435","301959.091931","302708.140525","303475.013936","304241.633825","305008.330079","305774.996962","306541.713004","311151.792453","Mapping"
"Mixed","Both","ball","5","m150cad.wav","None","723.090950167","168","315025.344242","307308.025574","308075.174768","308841.597404","309608.328595","310374.701454","311141.915884","311908.211449","301192.040435","301959.091931","302708.140525","303475.013936","304241.633825","305008.330079","305774.996962","306541.713004","311917.371661","Mapping"
"Mixed","Both","ball","5","m160ball.wav","None","721.116563771","168","315025.344242","307308.025574","308075.174768","308841.597404","309608.328595","310374.701454","311141.915884","311908.211449","315792.03555","301959.091931","302708.140525","303475.013936","304241.633825","305008.330079","305774.996962","306541.713004","315035.103015","Mapping"
"Mixed","Both","ball","5","m150jolt.wav","space","519.580772147","168","315025.344242","307308.025574","308075.174768","308841.597404","309608.328595","310374.701454","311141.915884","311908.211449","315792.03555","316541.214615","302708.140525","303475.013936","304241.633825","305008.330079","305774.996962","306541.713004","315802.108753","Mapping"
"Mixed","Both","ball","5","m160park.wav","None","736.475099111","168","315025.344242","307308.025574","308075.174768","308841.597404","309608.328595","310374.701454","311141.915884","311908.211449","315792.03555","316541.214615","317308.131929","303475.013936","304241.633825","305008.330079","305774.996962","306541.713004","316550.28022","Mapping"
"Mixed","Both","ball","5","m150dime.wav","None","741.279665614","168","315025.344242","307308.025574","308075.174768","308841.597404","309608.328595","310374.701454","311141.915884","311908.211449","315792.03555","316541.214615","317308.131929","318074.820764","304241.633825","305008.330079","305774.996962","306541.713004","317312.182111","Mapping"
"Mixed","Both","ball","5","m160romp.wav","None","734.806795372","168","315025.344242","307308.025574","308075.174768","308841.597404","309608.328595","310374.701454","311141.915884","311908.211449","315792.03555","316541.214615","317308.131929","318074.820764","318841.523202","305008.330079","305774.996962","306541.713004","318084.469162","Mapping"
"Mixed","Both","ball","5","m160done.wav","None","734.083946329","168","315025.344242","307308.025574","308075.174768","308841.597404","309608.328595","310374.701454","311141.915884","311908.211449","315792.03555","316541.214615","317308.131929","318074.820764","318841.523202","319608.187303","305774.996962","306541.713004","318851.050713","Mapping"
"Mixed","Both","ball","5","m160ball.wav","None","734.099714318","168","315025.344242","307308.025574","308075.174768","308841.597404","309608.328595","310374.701454","311141.915884","311908.211449","315792.03555","316541.214615","317308.131929","318074.820764","318841.523202","319608.187303","320374.894997","306541.713004","319617.653288","Mapping"
"Mixed","Both","ball","5","m150bluff.wav","space","377.420331351","168","315025.344242","307308.025574","308075.174768","308841.597404","309608.328595","310374.701454","311141.915884","311908.211449","315792.03555","316541.214615","317308.131929","318074.820764","318841.523202","319608.187303","320374.894997","321141.426771","320384.201757","Mapping"
"Mixed","Both","ball","5","m160jaw.wav","None","731.706397142","168","315025.344242","321908.289361","308075.174768","308841.597404","309608.328595","310374.701454","311141.915884","311908.211449","315792.03555","316541.214615","317308.131929","318074.820764","318841.523202","319608.187303","320374.894997","321141.426771","321150.766922","Mapping"
"Mixed","Both","ball","5","m150ball.wav","None","730.560288532","168","315025.344242","321908.289361","322674.602858","308841.597404","309608.328595","310374.701454","311141.915884","311908.211449","315792.03555","316541.214615","317308.131929","318074.820764","318841.523202","319608.187303","320374.894997","321141.426771","321917.886436","Mapping"
"Mixed","Both","ball","5","m160cad.wav","space","550.306190737","168","315025.344242","321908.289361","322674.602858","323441.428347","309608.328595","310374.701454","311141.915884","311908.211449","315792.03555","316541.214615","317308.131929","318074.820764","318841.523202","319608.187303","320374.894997","321141.426771","322683.261899","Mapping"
"Mixed","Both","ball","5","m150bluff.wav","None","728.918264387","168","315025.344242","321908.289361","322674.602858","323441.428347","324208.270223","310374.701454","311141.915884","311908.211449","315792.03555","316541.214615","317308.131929","318074.820764","318841.523202","319608.187303","320374.894997","321141.426771","323450.605255","Mapping"
"Mixed","Both","ball","5","m150ball.wav","None","728.144401684","168","315025.344242","321908.289361","322674.602858","323441.428347","324208.270223","324974.889803","311141.915884","311908.211449","315792.03555","316541.214615","317308.131929","318074.820764","318841.523202","319608.187303","320374.894997","321141.426771","324217.812265","Mapping"
"Mixed","Both","ball","5","m150jolt.wav","space","385.213065892","168","315025.344242","321908.289361","322674.602858","323441.428347","324208.270223","324974.889803","325741.352631","311908.211449","315792.03555","316541.214615","317308.131929","318074.820764","318841.523202","319608.187303","320374.894997","321141.426771","324984.338474","Mapping"
"Mixed","Both","ball","5","m160lash.wav","None","725.768089062","168","315025.344242","321908.289361","322674.602858","323441.428347","324208.270223","324974.889803","325741.352631","326508.367953","315792.03555","316541.214615","317308.131929","318074.820764","318841.523202","319608.187303","320374.894997","321141.426771","325750.646715","Mapping"
"Mixed","Both","cave","14","m160bluff.wav","None","724.361964967","168","329641.472992","321908.289361","322674.602858","323441.428347","324208.270223","324974.889803","325741.352631","326508.367953","315792.03555","316541.214615","317308.131929","318074.820764","318841.523202","319608.187303","320374.894997","321141.426771","326517.996255","Mapping"
"Mixed","Both","cave","14","m160ball.wav","None","722.215987043","168","329641.472992","321908.289361","322674.602858","323441.428347","324208.270223","324974.889803","325741.352631","326508.367953","330408.289825","316541.214615","317308.131929","318074.820764","318841.523202","319608.187303","320374.894997","321141.426771","329651.244442","Mapping"
"Mixed","Both","cave","14","m160cave.wav","None","722.980884137","168","329641.472992","321908.289361","322674.602858","323441.428347","324208.270223","324974.889803","325741.352631","326508.367953","330408.289825","331174.530666","317308.131929","318074.820764","318841.523202","319608.187303","320374.894997","321141.426771","330417.361613","Mapping"
"Mixed","Both","cave","14","m160tile.wav","space","481.866781367","168","329641.472992","321908.289361","322674.602858","323441.428347","324208.270223","324974.889803","325741.352631","326508.367953","330408.289825","331174.530666","331941.413352","318074.820764","318841.523202","319608.187303","320374.894997","321141.426771","331183.590705","Mapping"
"Mixed","Both","cave","14","m150cave.wav","None","722.080878215","168","329641.472992","321908.289361","322674.602858","323441.428347","324208.270223","324974.889803","325741.352631","326508.367953","330408.289825","331174.530666","331941.413352","332708.263885","318841.523202","319608.187303","320374.894997","321141.426771","331950.418359","Mapping"
"Mixed","Both","cave","14","m150cad.wav","space","540.036043385","168","329641.472992","321908.289361","322674.602858","323441.428347","324208.270223","324974.889803","325741.352631","326508.367953","330408.289825","331174.530666","331941.413352","332708.263885","333474.655912","319608.187303","320374.894997","321141.426771","332717.42688","Mapping"
"Mixed","Both","cave","14","m150jolt.wav","None","720.878499793","168","329641.472992","321908.289361","322674.602858","323441.428347","324208.270223","324974.889803","325741.352631","326508.367953","330408.289825","331174.530666","331941.413352","332708.263885","333474.655912","334241.405654","320374.894997","321141.426771","333483.610833","Mapping"
"Mixed","Both","cave","14","m160jaw.wav","None","721.039270284","168","329641.472992","321908.289361","322674.602858","323441.428347","324208.270223","324974.889803","325741.352631","326508.367953","330408.289825","331174.530666","331941.413352","332708.263885","333474.655912","334241.405654","335008.155087","321141.426771","334250.245871","Mapping"
"Mixed","Both","cave","14","m150cave.wav","None","720.601788955","168","329641.472992","321908.289361","322674.602858","323441.428347","324208.270223","324974.889803","325741.352631","326508.367953","330408.289825","331174.530666","331941.413352","332708.263885","333474.655912","334241.405654","335008.155087","335774.841757","335017.190701","Mapping"
"Mixed","Both","cave","14","m160romp.wav","space","457.246934064","168","329641.472992","336524.487984","322674.602858","323441.428347","324208.270223","324974.889803","325741.352631","326508.367953","330408.289825","331174.530666","331941.413352","332708.263885","333474.655912","334241.405654","335008.155087","335774.841757","335784.120383","Mapping"
"Mixed","Both","cave","14","m160cave.wav","None","736.990183359","168","329641.472992","336524.487984","337290.9369","323441.428347","324208.270223","324974.889803","325741.352631","326508.367953","330408.289825","331174.530666","331941.413352","332708.263885","333474.655912","334241.405654","335008.155087","335774.841757","336533.122909","Mapping"
"Mixed","Both","cave","14","m160tile.wav","None","736.701723887","168","329641.472992","336524.487984","337290.9369","338057.811857","324208.270223","324974.889803","325741.352631","326508.367953","330408.289825","331174.530666","331941.413352","332708.263885","333474.655912","334241.405654","335008.155087","335774.841757","337299.858738","Mapping"
"Mixed","Both","cave","14","m150jolt.wav","None","736.356067238","168","329641.472992","336524.487984","337290.9369","338057.811857","338824.330646","324974.889803","325741.352631","326508.367953","330408.289825","331174.530666","331941.413352","332708.263885","333474.655912","334241.405654","335008.155087","335774.841757","338067.023392","Mapping"
"Mixed","Both","cave","14","m150cling.wav","None","736.779944971","168","329641.472992","336524.487984","337290.9369","338057.811857","338824.330646","339591.217042","325741.352631","326508.367953","330408.289825","331174.530666","331941.413352","332708.263885","333474.655912","334241.405654","335008.155087","335774.841757","338833.229605","Mapping"
"Mixed","Both","cave","14","m150park.wav","None","736.723056994","168","329641.472992","336524.487984","337290.9369","338057.811857","338824.330646","339591.217042","340358.085507","326508.367953","330408.289825","331174.530666","331941.413352","332708.263885","333474.655912","334241.405654","335008.155087","335774.841757","339600.005009","Mapping"
"Mixed","Both","cave","14","m150knife.wav","None","736.897121882","168","329641.472992","336524.487984","337290.9369","338057.811857","338824.330646","339591.217042","340358.085507","341141.248686","330408.289825","331174.530666","331941.413352","332708.263885","333474.655912","334241.405654","335008.155087","335774.841757","340366.843174","Mapping"
"Mixed","Both","ball","12","m160depth.wav","None","720.191514818","168","344274.515424","336524.487984","337290.9369","338057.811857","338824.330646","339591.217042","340358.085507","341141.248686","330408.289825","331174.530666","331941.413352","332708.263885","333474.655912","334241.405654","335008.155087","335774.841757","341150.38973","Mapping"
"Mixed","Both","ball","12","m150jaw.wav","None","722.684076987","168","344274.515424","336524.487984","337290.9369","338057.811857","338824.330646","339591.217042","340358.085507","341141.248686","345041.056473","331174.530666","331941.413352","332708.263885","333474.655912","334241.405654","335008.155087","335774.841757","344283.712427","Mapping"
"Mixed","Both","ball","12","m160ball.wav","None","723.260686733","168","344274.515424","336524.487984","337290.9369","338057.811857","338824.330646","339591.217042","340358.085507","341141.248686","345041.056473","345807.5496","331941.413352","332708.263885","333474.655912","334241.405654","335008.155087","335774.841757","345050.275119","Mapping"
"Mixed","Both","ball","12","m150cave.wav","space","424.991412554","168","344274.515424","336524.487984","337290.9369","338057.811857","338824.330646","339591.217042","340358.085507","341141.248686","345041.056473","345807.5496","346574.57698","332708.263885","333474.655912","334241.405654","335008.155087","335774.841757","345816.258418","Mapping"
"Mixed","Both","ball","12","m150reek.wav","None","722.077168059","168","344274.515424","336524.487984","337290.9369","338057.811857","338824.330646","339591.217042","340358.085507","341141.248686","345041.056473","345807.5496","346574.57698","347341.382683","333474.655912","334241.405654","335008.155087","335774.841757","346583.474703","Mapping"
"Mixed","Both","ball","12","m160park.wav","None","722.202074481","168","344274.515424","336524.487984","337290.9369","338057.811857","338824.330646","339591.217042","340358.085507","341141.248686","345041.056473","345807.5496","346574.57698","347341.382683","348107.924659","334241.405654","335008.155087","335774.841757","347350.466837","Mapping"
"Mixed","Both","ball","12","m160ball.wav","None","721.637522336","168","344274.515424","336524.487984","337290.9369","338057.811857","338824.330646","339591.217042","340358.085507","341141.248686","345041.056473","345807.5496","346574.57698","347341.382683","348107.924659","348874.812911","335008.155087","335774.841757","348117.138358","Mapping"
"Mixed","Both","ball","12","m150depth.wav","space","356.457705144","168","344274.515424","336524.487984","337290.9369","338057.811857","338824.330646","339591.217042","340358.085507","341141.248686","345041.056473","345807.5496","346574.57698","347341.382683","348107.924659","348874.812911","349624.227567","335774.841757","348884.733382","Mapping"
"Mixed","Both","ball","12","m160cad.wav","None","736.536315875","168","344274.515424","336524.487984","337290.9369","338057.811857","338824.330646","339591.217042","340358.085507","341141.248686","345041.056473","345807.5496","346574.57698","347341.382683","348107.924659","348874.812911","349624.227567","350390.590223","349633.046141","Mapping"
"Mixed","Both","ball","12","m150ball.wav","None","736.260223202","168","344274.515424","351157.659651","337290.9369","338057.811857","338824.330646","339591.217042","340358.085507","341141.248686","345041.056473","345807.5496","346574.57698","347341.382683","348107.924659","348874.812911","349624.227567","350390.590223","350399.506496","Mapping"
"Mixed","Both","ball","12","m160cad.wav","space","474.134026328","168","344274.515424","351157.659651","351924.468754","338057.811857","338824.330646","339591.217042","340358.085507","341141.248686","345041.056473","345807.5496","346574.57698","347341.382683","348107.924659","348874.812911","349624.227567","350390.590223","351167.0604","Mapping"
"Mixed","Both","ball","12","m160greet.wav","None","732.744913083","168","344274.515424","351157.659651","351924.468754","352691.158825","338824.330646","339591.217042","340358.085507","341141.248686","345041.056473","345807.5496","346574.57698","347341.382683","348107.924659","348874.812911","349624.227567","350390.590223","351933.828074","Mapping"
"Mixed","Both","ball","12","m150lash.wav","None","735.74421159","168","344274.515424","351157.659651","351924.468754","352691.158825","353457.592591","339591.217042","340358.085507","341141.248686","345041.056473","345807.5496","346574.57698","347341.382683","348107.924659","348874.812911","349624.227567","350390.590223","352700.436832","Mapping"
"Mixed","Both","ball","12","m160knife.wav","None","735.217997339","168","344274.515424","351157.659651","351924.468754","352691.158825","353457.592591","354224.484862","340358.085507","341141.248686","345041.056473","345807.5496","346574.57698","347341.382683","348107.924659","348874.812911","349624.227567","350390.590223","353467.023948","Mapping"
"Mixed","Both","ball","12","m150ball.wav","None","734.249045374","168","344274.515424","351157.659651","351924.468754","352691.158825","353457.592591","354224.484862","354990.92914","341141.248686","345041.056473","345807.5496","346574.57698","347341.382683","348107.924659","348874.812911","349624.227567","350390.590223","354234.116255","Mapping"
"Mixed","Both","ball","12","m150gnash.wav","space","513.092443347","168","344274.515424","351157.659651","351924.468754","352691.158825","353457.592591","354224.484862","354990.92914","355757.744117","345041.056473","345807.5496","346574.57698","347341.382683","348107.924659","348874.812911","349624.227567","350390.590223","354999.997527","Mapping"
"Mixed","Both","ball","6","m160jaw.wav","None","731.580563355","168","358891.280145","351157.659651","351924.468754","352691.158825","353457.592591","354224.484862","354990.92914","355757.744117","345041.056473","345807.5496","346574.57698","347341.382683","348107.924659","348874.812911","349624.227567","350390.590223","355767.476919","Mapping"
"Mixed","Both","ball","6","m160tile.wav","None","721.446143463","168","358891.280145","351157.659651","351924.468754","352691.158825","353457.592591","354224.484862","354990.92914","355757.744117","359658.128513","345807.5496","346574.57698","347341.382683","348107.924659","348874.812911","349624.227567","350390.590223","358900.906591","Mapping"
"Mixed","Both","ball","6","m150jolt.wav","None","720.539026428","168","358891.280145","351157.659651","351924.468754","352691.158825","353457.592591","354224.484862","354990.92914","355757.744117","359658.128513","360424.767261","346574.57698","347341.382683","348107.924659","348874.812911","349624.227567","350390.590223","359667.985913","Mapping"
"Mixed","Both","ball","6","m150romp.wav","None","720.235726796","168","358891.280145","351157.659651","351924.468754","352691.158825","353457.592591","354224.484862","354990.92914","355757.744117","359658.128513","360424.767261","361190.853206","347341.382683","348107.924659","348874.812911","349624.227567","350390.590223","360434.575811","Mapping"
"Mixed","Both","ball","6","m150priest.wav","None","721.444288502","168","358891.280145","351157.659651","351924.468754","352691.158825","353457.592591","354224.484862","354990.92914","355757.744117","359658.128513","360424.767261","361190.853206","361958.098554","348107.924659","348874.812911","349624.227567","350390.590223","361199.766697","Mapping"
"Mixed","Both","ball","6","m160greet.wav","None","718.81197975","168","358891.280145","351157.659651","351924.468754","352691.158825","353457.592591","354224.484862","354990.92914","355757.744117","359658.128513","360424.767261","361190.853206","361958.098554","362724.727409","348874.812911","349624.227567","350390.590223","361968.476603","Mapping"
"Mixed","Both","ball","6","m160ball.wav","None","719.087453792","168","358891.280145","351157.659651","351924.468754","352691.158825","353457.592591","354224.484862","354990.92914","355757.744117","359658.128513","360424.767261","361190.853206","361958.098554","362724.727409","363474.254913","349624.227567","350390.590223","362734.4194","Mapping"
"Mixed","Both","ball","6","m160bluff.wav","space","333.569233306","168","358891.280145","351157.659651","351924.468754","352691.158825","353457.592591","354224.484862","354990.92914","355757.744117","359658.128513","360424.767261","361190.853206","361958.098554","362724.727409","363474.254913","364240.791943","350390.590223","363483.406159","Mapping"
"Mixed","Both","ball","6","m160reek.wav","None","734.479070874","168","358891.280145","351157.659651","351924.468754","352691.158825","353457.592591","354224.484862","354990.92914","355757.744117","359658.128513","360424.767261","361190.853206","361958.098554","362724.727409","363474.254913","364240.791943","365007.533337","364249.882282","Mapping"
"Mixed","Both","ball","6","m150ball.wav","None","733.691604342","168","358891.280145","365774.272567","351924.468754","352691.158825","353457.592591","354224.484862","354990.92914","355757.744117","359658.128513","360424.767261","361190.853206","361958.098554","362724.727409","363474.254913","364240.791943","365007.533337","365016.878745","Mapping"
"Mixed","Both","ball","6","m150bluff.wav","space","489.100219682","168","358891.280145","365774.272567","366540.822273","352691.158825","353457.592591","354224.484862","354990.92914","355757.744117","359658.128513","360424.767261","361190.853206","361958.098554","362724.727409","363474.254913","364240.791943","365007.533337","365783.857275","Mapping"
"Mixed","Both","ball","6","m150ball.wav","None","732.589398511","168","358891.280145","365774.272567","366540.822273","367307.535223","353457.592591","354224.484862","354990.92914","355757.744117","359658.128513","360424.767261","361190.853206","361958.098554","362724.727409","363474.254913","364240.791943","365007.533337","366549.891279","Mapping"
"Mixed","Both","ball","6","m150jaw.wav","space","452.078469796","168","358891.280145","365774.272567","366540.822273","367307.535223","368074.261777","354224.484862","354990.92914","355757.744117","359658.128513","360424.767261","361190.853206","361958.098554","362724.727409","363474.254913","364240.791943","365007.533337","367316.854969","Mapping"
"Mixed","Both","ball","6","m160ball.wav","None","730.037165806","168","358891.280145","365774.272567","366540.822273","367307.535223","368074.261777","368840.608665","354990.92914","355757.744117","359658.128513","360424.767261","361190.853206","361958.098554","362724.727409","363474.254913","364240.791943","365007.533337","368083.814022","Mapping"
"Mixed","Both","ball","6","m160dime.wav","space","503.14971176","168","358891.280145","365774.272567","366540.822273","367307.535223","368074.261777","368840.608665","369607.391488","355757.744117","359658.128513","360424.767261","361190.853206","361958.098554","362724.727409","363474.254913","364240.791943","365007.533337","368849.751872","Mapping"
"Mixed","Both","ball","6","m150depth.wav","None","727.893970674","168","358891.280145","365774.272567","366540.822273","367307.535223","368074.261777","368840.608665","369607.391488","370374.200282","359658.128513","360424.767261","361190.853206","361958.098554","362724.727409","363474.254913","364240.791943","365007.533337","369616.786982","Mapping"
"Mixed","Both","done","41","m150romp.wav","None","727.513686521","168","373507.891825","365774.272567","366540.822273","367307.535223","368074.261777","368840.608665","369607.391488","370374.200282","359658.128513","360424.767261","361190.853206","361958.098554","362724.727409","363474.254913","364240.791943","365007.533337","370383.409653","Mapping"
"Mixed","Both","done","41","m160lash.wav","None","721.55991965","168","373507.891825","365774.272567","366540.822273","367307.535223","368074.261777","368840.608665","369607.391488","370374.200282","374274.348779","360424.767261","361190.853206","361958.098554","362724.727409","363474.254913","364240.791943","365007.533337","373517.666675","Mapping"
"Mixed","Both","done","41","m160done.wav","None","722.040067194","168","373507.891825","365774.272567","366540.822273","367307.535223","368074.261777","368840.608665","369607.391488","370374.200282","374274.348779","375040.727821","361190.853206","361958.098554","362724.727409","363474.254913","364240.791943","365007.533337","374283.392432","Mapping"
"Mixed","Both","done","41","m150greet.wav","space","407.233685721","168","373507.891825","365774.272567","366540.822273","367307.535223","368074.261777","368840.608665","369607.391488","370374.200282","374274.348779","375040.727821","375807.711298","361958.098554","362724.727409","363474.254913","364240.791943","365007.533337","375049.575458","Mapping"
"Mixed","Both","done","41","m160cad.wav","None","719.004595187","168","373507.891825","365774.272567","366540.822273","367307.535223","368074.261777","368840.608665","369607.391488","370374.200282","374274.348779","375040.727821","375807.711298","376574.520092","362724.727409","363474.254913","364240.791943","365007.533337","375817.825621","Mapping"
"Mixed","Both","done","41","m150depth.wav","None","719.564509578","168","373507.891825","365774.272567","366540.822273","367307.535223","368074.261777","368840.608665","369607.391488","370374.200282","374274.348779","375040.727821","375807.711298","376574.520092","377340.670036","363474.254913","364240.791943","365007.533337","376584.171273","Mapping"
"Mixed","Both","done","41","m150greet.wav","None","720.370217459","168","373507.891825","365774.272567","366540.822273","367307.535223","368074.261777","368840.608665","369607.391488","370374.200282","374274.348779","375040.727821","375807.711298","376574.520092","377340.670036","378090.911424","364240.791943","365007.533337","377349.579817","Mapping"
"Mixed","Both","done","41","m150done.wav","None","735.853968421","168","373507.891825","365774.272567","366540.822273","367307.535223","368074.261777","368840.608665","369607.391488","370374.200282","374274.348779","375040.727821","375807.711298","376574.520092","377340.670036","378090.911424","378856.802589","365007.533337","378100.22344","Mapping"
"Mixed","Both","done","41","m160tile.wav","space","270.869332831","168","373507.891825","365774.272567","366540.822273","367307.535223","368074.261777","368840.608665","369607.391488","370374.200282","374274.348779","375040.727821","375807.711298","376574.520092","377340.670036","378090.911424","378856.802589","379624.055048","378865.883961","Mapping"
"Mixed","Both","done","41","m160done.wav","None","733.650175156","168","373507.891825","380390.554668","366540.822273","367307.535223","368074.261777","368840.608665","369607.391488","370374.200282","374274.348779","375040.727821","375807.711298","376574.520092","377340.670036","378090.911424","378856.802589","379624.055048","379633.21124","Mapping"
"Mixed","Both","done","41","m160priest.wav","space","688.991823234","168","373507.891825","380390.554668","381157.100045","367307.535223","368074.261777","368840.608665","369607.391488","370374.200282","374274.348779","375040.727821","375807.711298","376574.520092","377340.670036","378090.911424","378856.802589","379624.055048","380399.728174","Mapping"
"Mixed","Both","done","41","m160reek.wav","None","731.713508023","168","373507.891825","380390.554668","381157.100045","381924.141648","368074.261777","368840.608665","369607.391488","370374.200282","374274.348779","375040.727821","375807.711298","376574.520092","377340.670036","378090.911424","378856.802589","379624.055048","381166.455037","Mapping"
"Mixed","Both","done","41","m150cad.wav","None","731.460603653","168","373507.891825","380390.554668","381157.100045","381924.141648","382690.548824","368840.608665","369607.391488","370374.200282","374274.348779","375040.727821","375807.711298","376574.520092","377340.670036","378090.911424","378856.802589","379624.055048","381933.507769","Mapping"
"Mixed","Both","done","41","m150done.wav","None","731.229032157","168","373507.891825","380390.554668","381157.100045","381924.141648","382690.548824","383457.423782","369607.391488","370374.200282","374274.348779","375040.727821","375807.711298","376574.520092","377340.670036","378090.911424","378856.802589","379624.055048","382700.022539","Mapping"
