"Condition","Talker","Target","Trial","current_stimulus","response_response","response_time_response","subject_nr","time_Audio1","time_Audio10","time_Audio11","time_Audio12","time_Audio13","time_Audio14","time_Audio15","time_Audio16","time_Audio2","time_Audio3","time_Audio4","time_Audio5","time_Audio6","time_Audio7","time_Audio8","time_Audio9","time_response","title"
"Blocked","m150","tile","16","m150depth.wav","NA","NA","113","113961.463191","NA","NA","NA","NA","NA","NA","NA","NA","NA","NA","NA","NA","NA","NA","NA","NA","Mapping"
"Blocked","m150","tile","16","m150tile.wav","None","721.17538075","113","113961.463191","NA","NA","NA","NA","NA","NA","NA","114729.003194","NA","NA","NA","NA","NA","NA","NA","113974.868387","Mapping"
"Blocked","m150","tile","16","m150cling.wav","space","611.546418862","113","113961.463191","NA","NA","NA","NA","NA","NA","NA","114729.003194","115495.603947","NA","NA","NA","NA","NA","NA","114738.265855","Mapping"
"Blocked","m150","tile","16","m150cave.wav","None","724.887864897","113","113961.463191","NA","NA","NA","NA","NA","NA","NA","114729.003194","115495.603947","116262.56828","NA","NA","NA","NA","NA","115505.102501","Mapping"
"Blocked","m150","tile","16","m150priest.wav","None","727.026377106","113","113961.463191","NA","NA","NA","NA","NA","NA","NA","114729.003194","115495.603947","116262.56828","117030.351598","NA","NA","NA","NA","116271.993253","Mapping"
"Blocked","m150","tile","16","m150tile.wav","None","728.481010301","113","113961.463191","NA","NA","NA","NA","NA","NA","NA","114729.003194","115495.603947","116262.56828","117030.351598","117797.312839","NA","NA","NA","117039.407734","Mapping"
"Blocked","m150","tile","16","m150cad.wav","space","479.349462083","113","113961.463191","NA","NA","NA","NA","NA","NA","NA","114729.003194","115495.603947","116262.56828","117030.351598","117797.312839","118564.908183","NA","NA","117806.348261","Mapping"
"Blocked","m150","tile","16","m150cad.wav","None","724.022195674","113","113961.463191","NA","NA","NA","NA","NA","NA","NA","114729.003194","115495.603947","116262.56828","117030.351598","117797.312839","118564.908183","119331.818412","NA","118574.573689","Mapping"
"Blocked","m150","tile","16","m150cling.wav","None","722.519950708","113","113961.463191","NA","NA","NA","NA","NA","NA","NA","114729.003194","115495.603947","116262.56828","117030.351598","117797.312839","118564.908183","119331.818412","120098.564473","119341.273375","Mapping"
"Blocked","m150","tile","16","m150knife.wav","None","721.546381945","113","113961.463191","120866.118698","NA","NA","NA","NA","NA","NA","114729.003194","115495.603947","116262.56828","117030.351598","117797.312839","118564.908183","119331.818412","120098.564473","120107.731601","Mapping"
"Blocked","m150","tile","16","m150tile.wav","None","722.98710281","113","113961.463191","120866.118698","121633.267604","NA","NA","NA","NA","NA","114729.003194","115495.603947","116262.56828","117030.351598","117797.312839","118564.908183","119331.818412","120098.564473","120875.135879","Mapping"
"Blocked","m150","tile","16","m150depth.wav","space","315.12954738","113","113961.463191","120866.118698","121633.267604","122383.715279","NA","NA","NA","NA","114729.003194","115495.603947","116262.56828","117030.351598","117797.312839","118564.908183","119331.818412","120098.564473","121642.449881","Mapping"
"Blocked","m150","tile","16","m150priest.wav","None","736.03644711","113","113961.463191","120866.118698","121633.267604","122383.715279","123150.886445","NA","NA","NA","114729.003194","115495.603947","116262.56828","117030.351598","117797.312839","118564.908183","119331.818412","120098.564473","122393.122939","Mapping"
"Blocked","m150","tile","16","m150tile.wav","None","733.992231311","113","113961.463191","120866.118698","121633.267604","122383.715279","123150.886445","123918.129957","NA","NA","114729.003194","115495.603947","116262.56828","117030.351598","117797.312839","118564.908183","119331.818412","120098.564473","123160.463529","Mapping"
"Blocked","m150","tile","16","m150lash.wav","space","390.391443158","113","113961.463191","120866.118698","121633.267604","122383.715279","123150.886445","123918.129957","124685.542892","NA","114729.003194","115495.603947","116262.56828","117030.351598","117797.312839","118564.908183","119331.818412","120098.564473","123927.123641","Mapping"
"Blocked","m150","tile","16","m150jolt.wav","None","730.252849404","113","113961.463191","120866.118698","121633.267604","122383.715279","123150.886445","123918.129957","124685.542892","125452.379848","114729.003194","115495.603947","116262.56828","117030.351598","117797.312839","118564.908183","119331.818412","120098.564473","124694.968174","Mapping"
"Blocked","m150","tile","15","m150romp.wav","None","730.011389824","113","128621.621262","120866.118698","121633.267604","122383.715279","123150.886445","123918.129957","124685.542892","125452.379848","114729.003194","115495.603947","116262.56828","117030.351598","117797.312839","118564.908183","119331.818412","120098.564473","125461.304279","Mapping"
"Blocked","m150","tile","15","m150reek.wav","None","725.223002722","113","128621.621262","120866.118698","121633.267604","122383.715279","123150.886445","123918.129957","124685.542892","125452.379848","129388.904966","115495.603947","116262.56828","117030.351598","117797.312839","118564.908183","119331.818412","120098.564473","128631.064785","Mapping"
"Blocked","m150","tile","15","m150depth.wav","None","727.179415058","113","128621.621262","120866.118698","121633.267604","122383.715279","123150.886445","123918.129957","124685.542892","125452.379848","129388.904966","130156.330577","116262.56828","117030.351598","117797.312839","118564.908183","119331.818412","120098.564473","129397.888138","Mapping"
"Blocked","m150","tile","15","m150tile.wav","None","724.874261534","113","128621.621262","120866.118698","121633.267604","122383.715279","123150.886445","123918.129957","124685.542892","125452.379848","129388.904966","130156.330577","130924.112349","117030.351598","117797.312839","118564.908183","119331.818412","120098.564473","130165.728034","Mapping"
"Blocked","m150","tile","15","m150done.wav","space","335.954455892","113","128621.621262","120866.118698","121633.267604","122383.715279","123150.886445","123918.129957","124685.542892","125452.379848","129388.904966","130156.330577","130924.112349","131690.028604","117797.312839","118564.908183","119331.818412","120098.564473","130933.30792","Mapping"
"Blocked","m150","tile","15","m150tile.wav","None","729.919875972","113","128621.621262","120866.118698","121633.267604","122383.715279","123150.886445","123918.129957","124685.542892","125452.379848","129388.904966","130156.330577","130924.112349","131690.028604","132457.597051","118564.908183","119331.818412","120098.564473","131698.953344","Mapping"
"Blocked","m150","tile","15","m150knife.wav","space","578.308432829","113","128621.621262","120866.118698","121633.267604","122383.715279","123150.886445","123918.129957","124685.542892","125452.379848","129388.904966","130156.330577","130924.112349","131690.028604","132457.597051","133225.218983","119331.818412","120098.564473","132466.879807","Mapping"
"Blocked","m150","tile","15","m150cling.wav","None","725.587820401","113","128621.621262","120866.118698","121633.267604","122383.715279","123150.886445","123918.129957","124685.542892","125452.379848","129388.904966","130156.330577","130924.112349","131690.028604","132457.597051","133225.218983","133992.189191","120098.564473","133234.504831","Mapping"
"Blocked","m150","tile","15","m150cave.wav","None","724.215425551","113","128621.621262","120866.118698","121633.267604","122383.715279","123150.886445","123918.129957","124685.542892","125452.379848","129388.904966","130156.330577","130924.112349","131690.028604","132457.597051","133225.218983","133992.189191","134759.471967","134001.381051","Mapping"
"Blocked","m150","tile","15","m150cad.wav","None","722.177392803","113","128621.621262","135526.704039","121633.267604","122383.715279","123150.886445","123918.129957","124685.542892","125452.379848","129388.904966","130156.330577","130924.112349","131690.028604","132457.597051","133225.218983","133992.189191","134759.471967","134768.730298","Mapping"
"Blocked","m150","tile","15","m150tile.wav","None","720.236129826","113","128621.621262","135526.704039","136277.29053","122383.715279","123150.886445","123918.129957","124685.542892","125452.379848","129388.904966","130156.330577","130924.112349","131690.028604","132457.597051","133225.218983","133992.189191","134759.471967","135536.219907","Mapping"
"Blocked","m150","tile","15","m150romp.wav","space","342.519319849","113","128621.621262","135526.704039","136277.29053","137044.320716","123150.886445","123918.129957","124685.542892","125452.379848","129388.904966","130156.330577","130924.112349","131690.028604","132457.597051","133225.218983","133992.189191","134759.471967","136286.543606","Mapping"
"Blocked","m150","tile","15","m150dime.wav","None","734.220087761","113","128621.621262","135526.704039","136277.29053","137044.320716","137811.582159","123918.129957","124685.542892","125452.379848","129388.904966","130156.330577","130924.112349","131690.028604","132457.597051","133225.218983","133992.189191","134759.471967","137053.547821","Mapping"
"Blocked","m150","tile","15","m150park.wav","None","735.675648553","113","128621.621262","135526.704039","136277.29053","137044.320716","137811.582159","138596.011677","124685.542892","125452.379848","129388.904966","130156.330577","130924.112349","131690.028604","132457.597051","133225.218983","133992.189191","134759.471967","137821.117196","Mapping"
"Blocked","m150","tile","15","m150tile.wav","None","720.549935009","113","128621.621262","135526.704039","136277.29053","137044.320716","137811.582159","138596.011677","139346.525822","125452.379848","129388.904966","130156.330577","130924.112349","131690.028604","132457.597051","133225.218983","133992.189191","134759.471967","138605.140158","Mapping"
"Blocked","m150","tile","15","m150ball.wav","space","321.347834542","113","128621.621262","135526.704039","136277.29053","137044.320716","137811.582159","138596.011677","139346.525822","140130.017944","129388.904966","130156.330577","130924.112349","131690.028604","132457.597051","133225.218983","133992.189191","134759.471967","139355.579485","Mapping"
"Blocked","m150","ball","2","m150priest.wav","None","720.901458291","113","143249.013446","135526.704039","136277.29053","137044.320716","137811.582159","138596.011677","139346.525822","140130.017944","129388.904966","130156.330577","130924.112349","131690.028604","132457.597051","133225.218983","133992.189191","134759.471967","140139.612032","Mapping"
"Blocked","m150","ball","2","m150cave.wav","None","721.235977719","113","143249.013446","135526.704039","136277.29053","137044.320716","137811.582159","138596.011677","139346.525822","140130.017944","143999.986397","130156.330577","130924.112349","131690.028604","132457.597051","133225.218983","133992.189191","134759.471967","143258.368238","Mapping"
"Blocked","m150","ball","2","m150ball.wav","None","736.155785853","113","143249.013446","135526.704039","136277.29053","137044.320716","137811.582159","138596.011677","139346.525822","140130.017944","143999.986397","144766.914248","130924.112349","131690.028604","132457.597051","133225.218983","133992.189191","134759.471967","144009.278119","Mapping"
"Blocked","m150","ball","2","m150dime.wav","space","508.640924003","113","143249.013446","135526.704039","136277.29053","137044.320716","137811.582159","138596.011677","139346.525822","140130.017944","143999.986397","144766.914248","145533.898368","131690.028604","132457.597051","133225.218983","133992.189191","134759.471967","144776.101471","Mapping"
"Blocked","m150","ball","2","m150cave.wav","None","732.858822914","113","143249.013446","135526.704039","136277.29053","137044.320716","137811.582159","138596.011677","139346.525822","140130.017944","143999.986397","144766.914248","145533.898368","146301.208351","132457.597051","133225.218983","133992.189191","134759.471967","145543.244813","Mapping"
"Blocked","m150","ball","2","m150gnash.wav","None","731.923281914","113","143249.013446","135526.704039","136277.29053","137044.320716","137811.582159","138596.011677","139346.525822","140130.017944","143999.986397","144766.914248","145533.898368","146301.208351","147068.465775","133225.218983","133992.189191","134759.471967","146310.40083","Mapping"
"Blocked","m150","ball","2","m150romp.wav","None","733.693575487","113","143249.013446","135526.704039","136277.29053","137044.320716","137811.582159","138596.011677","139346.525822","140130.017944","143999.986397","144766.914248","145533.898368","146301.208351","147068.465775","147835.924467","133992.189191","134759.471967","147078.035747","Mapping"
"Blocked","m150","ball","2","m150jaw.wav","None","732.371883933","113","143249.013446","135526.704039","136277.29053","137044.320716","137811.582159","138596.011677","139346.525822","140130.017944","143999.986397","144766.914248","145533.898368","146301.208351","147068.465775","147835.924467","148602.928992","134759.471967","147844.949377","Mapping"
"Blocked","m150","ball","2","m150ball.wav","None","733.721091179","113","143249.013446","135526.704039","136277.29053","137044.320716","137811.582159","138596.011677","139346.525822","140130.017944","143999.986397","144766.914248","145533.898368","146301.208351","147068.465775","147835.924467","148602.928992","149369.770276","148612.508239","Mapping"
"Blocked","m150","ball","2","m150depth.wav","None","732.889430597","113","143249.013446","150137.187231","136277.29053","137044.320716","137811.582159","138596.011677","139346.525822","140130.017944","143999.986397","144766.914248","145533.898368","146301.208351","147068.465775","147835.924467","148602.928992","149369.770276","149378.823321","Mapping"
"Blocked","m150","ball","2","m150ball.wav","space","122.324000346","113","143249.013446","150137.187231","150904.267193","137044.320716","137811.582159","138596.011677","139346.525822","140130.017944","143999.986397","144766.914248","145533.898368","146301.208351","147068.465775","147835.924467","148602.928992","149369.770276","150146.224198","Mapping"
"Blocked","m150","ball","2","m150done.wav","space","523.475402035","113","143249.013446","150137.187231","150904.267193","151671.784627","137811.582159","138596.011677","139346.525822","140130.017944","143999.986397","144766.914248","145533.898368","146301.208351","147068.465775","147835.924467","148602.928992","149369.770276","150913.050643","Mapping"
"Blocked","m150","ball","2","m150tile.wav","None","726.487188833","113","143249.013446","150137.187231","150904.267193","151671.784627","152438.654664","138596.011677","139346.525822","140130.017944","143999.986397","144766.914248","145533.898368","146301.208351","147068.465775","147835.924467","148602.928992","149369.770276","151681.26154","Mapping"
"Blocked","m150","ball","2","m150ball.wav","None","731.387803797","113","143249.013446","150137.187231","150904.267193","151671.784627","152438.654664","153206.451585","139346.525822","140130.017944","143999.986397","144766.914248","145533.898368","146301.208351","147068.465775","147835.924467","148602.928992","149369.770276","152442.021498","Mapping"
"Blocked","m150","ball","2","m150bluff.wav","space","532.258233987","113","143249.013446","150137.187231","150904.267193","151671.784627","152438.654664","153206.451585","153973.638828","140130.017944","143999.986397","144766.914248","145533.898368","146301.208351","147068.465775","147835.924467","148602.928992","149369.770276","153216.186962","Mapping"
"Blocked","m150","ball","2","m150park.wav","None","723.862974439","113","143249.013446","150137.187231","150904.267193","151671.784627","152438.654664","153206.451585","153973.638828","154740.629131","143999.986397","144766.914248","145533.898368","146301.208351","147068.465775","147835.924467","148602.928992","149369.770276","153983.362457","Mapping"
"Blocked","m150","done","23","m150romp.wav","None","722.755845403","113","157859.582896","150137.187231","150904.267193","151671.784627","152438.654664","153206.451585","153973.638828","154740.629131","143999.986397","144766.914248","145533.898368","146301.208351","147068.465775","147835.924467","148602.928992","149369.770276","154749.963209","Mapping"
"Blocked","m150","done","23","m150bluff.wav","None","720.996991033","113","157859.582896","150137.187231","150904.267193","151671.784627","152438.654664","153206.451585","153973.638828","154740.629131","158610.32057","144766.914248","145533.898368","146301.208351","147068.465775","147835.924467","148602.928992","149369.770276","157869.054863","Mapping"
"Blocked","m150","done","23","m150reek.wav","None","736.042321427","113","157859.582896","150137.187231","150904.267193","151671.784627","152438.654664","153206.451585","153973.638828","154740.629131","158610.32057","159377.370852","145533.898368","146301.208351","147068.465775","147835.924467","148602.928992","149369.770276","158619.523251","Mapping"
"Blocked","m150","done","23","m150done.wav","None","734.453818295","113","157859.582896","150137.187231","150904.267193","151671.784627","152438.654664","153206.451585","153973.638828","154740.629131","158610.32057","159377.370852","160144.405366","146301.208351","147068.465775","147835.924467","148602.928992","149369.770276","159386.74543","Mapping"
"Blocked","m150","done","23","m150priest.wav","space","522.612206172","113","157859.582896","150137.187231","150904.267193","151671.784627","152438.654664","153206.451585","153973.638828","154740.629131","158610.32057","159377.370852","160144.405366","160911.556127","147068.465775","147835.924467","148602.928992","149369.770276","160153.576821","Mapping"
"Blocked","m150","done","23","m150park.wav","None","731.982642086","113","157859.582896","150137.187231","150904.267193","151671.784627","152438.654664","153206.451585","153973.638828","154740.629131","158610.32057","159377.370852","160144.405366","160911.556127","161678.844777","147835.924467","148602.928992","149369.770276","160920.465409","Mapping"
"Blocked","m150","done","23","m150bluff.wav","None","730.676099891","113","157859.582896","150137.187231","150904.267193","151671.784627","152438.654664","153206.451585","153973.638828","154740.629131","158610.32057","159377.370852","160144.405366","160911.556127","161678.844777","162445.991828","148602.928992","149369.770276","161687.813728","Mapping"
"Blocked","m150","done","23","m150done.wav","None","729.06626435","113","157859.582896","150137.187231","150904.267193","151671.784627","152438.654664","153206.451585","153973.638828","154740.629131","158610.32057","159377.370852","160144.405366","160911.556127","161678.844777","162445.991828","163213.446501","149369.770276","162455.125565","Mapping"
"Blocked","m150","done","23","m150priest.wav","space","429.257206386","113","157859.582896","150137.187231","150904.267193","151671.784627","152438.654664","153206.451585","153973.638828","154740.629131","158610.32057","159377.370852","160144.405366","160911.556127","161678.844777","162445.991828","163213.446501","163980.344672","163222.797274","Mapping"
"Blocked","m150","done","23","m150greet.wav","None","725.567105925","113","157859.582896","164748.028439","150904.267193","151671.784627","152438.654664","153206.451585","153973.638828","154740.629131","158610.32057","159377.370852","160144.405366","160911.556127","161678.844777","162445.991828","163213.446501","163980.344672","163989.374839","Mapping"
"Blocked","m150","done","23","m150done.wav","None","726.595088141","113","157859.582896","164748.028439","165514.84499","151671.784627","152438.654664","153206.451585","153973.638828","154740.629131","158610.32057","159377.370852","160144.405366","160911.556127","161678.844777","162445.991828","163213.446501","163980.344672","164757.390341","Mapping"
"Blocked","m150","done","23","m150dime.wav","space","663.910437841","113","157859.582896","164748.028439","165514.84499","166282.198874","152438.654664","153206.451585","153973.638828","154740.629131","158610.32057","159377.370852","160144.405366","160911.556127","161678.844777","162445.991828","163213.446501","163980.344672","165524.056946","Mapping"
"Blocked","m150","done","23","m150jaw.wav","None","723.995298147","113","157859.582896","164748.028439","165514.84499","166282.198874","167049.265851","153206.451585","153973.638828","154740.629131","158610.32057","159377.370852","160144.405366","160911.556127","161678.844777","162445.991828","163213.446501","163980.344672","166291.325809","Mapping"
"Blocked","m150","done","23","m150cave.wav","None","722.537263995","113","157859.582896","164748.028439","165514.84499","166282.198874","167049.265851","167816.959201","153973.638828","154740.629131","158610.32057","159377.370852","160144.405366","160911.556127","161678.844777","162445.991828","163213.446501","163980.344672","167058.606112","Mapping"
"Blocked","m150","done","23","m150done.wav","None","725.739621557","113","157859.582896","164748.028439","165514.84499","166282.198874","167049.265851","167816.959201","168567.234051","154740.629131","158610.32057","159377.370852","160144.405366","160911.556127","161678.844777","162445.991828","163213.446501","163980.344672","167821.222313","Mapping"
"Blocked","m150","done","23","m150dime.wav","space","387.36809371","113","157859.582896","164748.028439","165514.84499","166282.198874","167049.265851","167816.959201","168567.234051","169335.129906","158610.32057","159377.370852","160144.405366","160911.556127","161678.844777","162445.991828","163213.446501","163980.344672","168576.51557","Mapping"
"Blocked","m150","cave","7","m150done.wav","None","733.316391008","113","172470.102879","164748.028439","165514.84499","166282.198874","167049.265851","167816.959201","168567.234051","169335.129906","158610.32057","159377.370852","160144.405366","160911.556127","161678.844777","162445.991828","163213.446501","163980.344672","169344.489336","Mapping"
"Blocked","m150","cave","7","m150cave.wav","None","721.026980318","113","172470.102879","164748.028439","165514.84499","166282.198874","167049.265851","167816.959201","168567.234051","169335.129906","173220.870542","159377.370852","160144.405366","160911.556127","161678.844777","162445.991828","163213.446501","163980.344672","172479.393364","Mapping"
"Blocked","m150","cave","7","m150greet.wav","space","485.008774092","113","172470.102879","164748.028439","165514.84499","166282.198874","167049.265851","167816.959201","168567.234051","169335.129906","173220.870542","173988.030269","160144.405366","160911.556127","161678.844777","162445.991828","163213.446501","163980.344672","173230.689085","Mapping"
"Blocked","m150","cave","7","m150cling.wav","None","733.50529233","113","172470.102879","164748.028439","165514.84499","166282.198874","167049.265851","167816.959201","168567.234051","169335.129906","173220.870542","173988.030269","174754.977907","160911.556127","161678.844777","162445.991828","163213.446501","163980.344672","173997.445967","Mapping"
"Blocked","m150","cave","7","m150cave.wav","None","732.272332069","113","172470.102879","164748.028439","165514.84499","166282.198874","167049.265851","167816.959201","168567.234051","169335.129906","173220.870542","173988.030269","174754.977907","175522.293145","161678.844777","162445.991828","163213.446501","163980.344672","174764.381238","Mapping"
"Blocked","m150","cave","7","m150park.wav","space","472.360110842","113","172470.102879","164748.028439","165514.84499","166282.198874","167049.265851","167816.959201","168567.234051","169335.129906","173220.870542","173988.030269","174754.977907","175522.293145","176289.705771","162445.991828","163213.446501","163980.344672","175531.26457","Mapping"
"Blocked","m150","cave","7","m150gnash.wav","None","728.330754908","113","172470.102879","164748.028439","165514.84499","166282.198874","167049.265851","167816.959201","168567.234051","169335.129906","173220.870542","173988.030269","174754.977907","175522.293145","176289.705771","177056.936916","163213.446501","163980.344672","176299.243282","Mapping"
"Blocked","m150","cave","7","m150jaw.wav","None","726.819543866","113","172470.102879","164748.028439","165514.84499","166282.198874","167049.265851","167816.959201","168567.234051","169335.129906","173220.870542","173988.030269","174754.977907","175522.293145","176289.705771","177056.936916","177823.848691","163980.344672","177066.289235","Mapping"
"Blocked","m150","cave","7","m150cad.wav","None","725.631103851","113","172470.102879","164748.028439","165514.84499","166282.198874","167049.265851","167816.959201","168567.234051","169335.129906","173220.870542","173988.030269","174754.977907","175522.293145","176289.705771","177056.936916","177823.848691","178591.5204","177833.167001","Mapping"
"Blocked","m150","cave","7","m150depth.wav","space","346.434308682","113","172470.102879","179358.531417","165514.84499","166282.198874","167049.265851","167816.959201","168567.234051","169335.129906","173220.870542","173988.030269","174754.977907","175522.293145","176289.705771","177056.936916","177823.848691","178591.5204","178601.093155","Mapping"
"Blocked","m150","cave","7","m150jolt.wav","None","721.562149469","113","172470.102879","179358.531417","180108.778751","166282.198874","167049.265851","167816.959201","168567.234051","169335.129906","173220.870542","173988.030269","174754.977907","175522.293145","176289.705771","177056.936916","177823.848691","178591.5204","179367.883427","Mapping"
"Blocked","m150","cave","7","m150cave.wav","None","737.122243736","113","172470.102879","179358.531417","180108.778751","180876.476739","167049.265851","167816.959201","168567.234051","169335.129906","173220.870542","173988.030269","174754.977907","175522.293145","176289.705771","177056.936916","177823.848691","178591.5204","180118.012659","Mapping"
"Blocked","m150","cave","7","m150priest.wav","space","453.642488457","113","172470.102879","179358.531417","180108.778751","180876.476739","181643.334409","167816.959201","168567.234051","169335.129906","173220.870542","173988.030269","174754.977907","175522.293145","176289.705771","177056.936916","177823.848691","178591.5204","180885.797522","Mapping"
"Blocked","m150","cave","7","m150greet.wav","None","733.905664179","113","172470.102879","179358.531417","180108.778751","180876.476739","181643.334409","182410.649339","168567.234051","169335.129906","173220.870542","173988.030269","174754.977907","175522.293145","176289.705771","177056.936916","177823.848691","178591.5204","181652.46691","Mapping"
"Blocked","m150","cave","7","m150cave.wav","None","731.542696711","113","172470.102879","179358.531417","180108.778751","180876.476739","181643.334409","182410.649339","183177.996112","169335.129906","173220.870542","173988.030269","174754.977907","175522.293145","176289.705771","177056.936916","177823.848691","178591.5204","182420.344215","Mapping"
"Blocked","m150","cave","7","m150reek.wav","space","616.012344602","113","172470.102879","179358.531417","180108.778751","180876.476739","181643.334409","182410.649339","183177.996112","183944.956426","173220.870542","173988.030269","174754.977907","175522.293145","176289.705771","177056.936916","177823.848691","178591.5204","183187.346885","Mapping"
"Blocked","m150","cave","10","m150cling.wav","None","728.983407607","113","187080.804343","179358.531417","180108.778751","180876.476739","181643.334409","182410.649339","183177.996112","183944.956426","173220.870542","173988.030269","174754.977907","175522.293145","176289.705771","177056.936916","177823.848691","178591.5204","183953.995249","Mapping"
"Blocked","m150","cave","10","m150cave.wav","None","722.00858756","113","187080.804343","179358.531417","180108.778751","180876.476739","181643.334409","182410.649339","183177.996112","183944.956426","187847.837311","173988.030269","174754.977907","175522.293145","176289.705771","177056.936916","177823.848691","178591.5204","187089.981363","Mapping"
"Blocked","m150","cave","10","m150reek.wav","None","720.522109652","113","187080.804343","179358.531417","180108.778751","180876.476739","181643.334409","182410.649339","183177.996112","183944.956426","187847.837311","188598.467086","174754.977907","175522.293145","176289.705771","177056.936916","177823.848691","178591.5204","187857.292583","Mapping"
"Blocked","m150","cave","10","m150reek.wav","space","0.0383367296308","113","187080.804343","179358.531417","180108.778751","180876.476739","181643.334409","182410.649339","183177.996112","183944.956426","187847.837311","188598.467086","189365.860543","175522.293145","176289.705771","177056.936916","177823.848691","178591.5204","188607.697901","Mapping"
"Blocked","m150","cave","10","m150cad.wav","None","733.974608826","113","187080.804343","179358.531417","180108.778751","180876.476739","181643.334409","182410.649339","183177.996112","183944.956426","187847.837311","188598.467086","189365.860543","190132.810346","176289.705771","177056.936916","177823.848691","178591.5204","189374.876797","Mapping"
"Blocked","m150","cave","10","m150lash.wav","None","732.954355655","113","187080.804343","179358.531417","180108.778751","180876.476739","181643.334409","182410.649339","183177.996112","183944.956426","187847.837311","188598.467086","189365.860543","190132.810346","190900.276767","177056.936916","177823.848691","178591.5204","190141.901418","Mapping"
"Blocked","m150","cave","10","m150cad.wav","None","731.205703923","113","187080.804343","179358.531417","180108.778751","180876.476739","181643.334409","182410.649339","183177.996112","183944.956426","187847.837311","188598.467086","189365.860543","190132.810346","190900.276767","191667.406814","177823.848691","178591.5204","190909.627231","Mapping"
"Blocked","m150","cave","10","m150cave.wav","None","730.020973831","113","187080.804343","179358.531417","180108.778751","180876.476739","181643.334409","182410.649339","183177.996112","183944.956426","187847.837311","188598.467086","189365.860543","190132.810346","190900.276767","191667.406814","192434.654654","178591.5204","191676.684005","Mapping"
"Blocked","m150","cave","10","m150jaw.wav","space","607.223638333","113","187080.804343","179358.531417","180108.778751","180876.476739","181643.334409","182410.649339","183177.996112","183944.956426","187847.837311","188598.467086","189365.860543","190132.810346","190900.276767","191667.406814","192434.654654","193202.143026","192443.772314","Mapping"
"Blocked","m150","cave","10","m150dime.wav","None","726.536655566","113","187080.804343","193969.165483","180108.778751","180876.476739","181643.334409","182410.649339","183177.996112","183944.956426","187847.837311","188598.467086","189365.860543","190132.810346","190900.276767","191667.406814","192434.654654","193202.143026","193211.627668","Mapping"
"Blocked","m150","cave","10","m150done.wav","None","725.357490592","113","187080.804343","193969.165483","194736.292747","180876.476739","181643.334409","182410.649339","183177.996112","183944.956426","187847.837311","188598.467086","189365.860543","190132.810346","190900.276767","191667.406814","192434.654654","193202.143026","193978.547172","Mapping"
"Blocked","m150","cave","10","m150cave.wav","None","724.334145896","113","187080.804343","193969.165483","194736.292747","195503.515544","181643.334409","182410.649339","183177.996112","183944.956426","187847.837311","188598.467086","189365.860543","190132.810346","190900.276767","191667.406814","192434.654654","193202.143026","194745.654341","Mapping"
"Blocked","m150","cave","10","m150jaw.wav","space","674.408222316","113","187080.804343","193969.165483","194736.292747","195503.515544","196270.99155","182410.649339","183177.996112","183944.956426","187847.837311","188598.467086","189365.860543","190132.810346","190900.276767","191667.406814","192434.654654","193202.143026","195512.485423","Mapping"
"Blocked","m150","cave","10","m150knife.wav","None","723.078306997","113","187080.804343","193969.165483","194736.292747","195503.515544","196270.99155","197038.13891","183177.996112","183944.956426","187847.837311","188598.467086","189365.860543","190132.810346","190900.276767","191667.406814","192434.654654","193202.143026","196279.98678","Mapping"
"Blocked","m150","cave","10","m150cave.wav","None","720.87116004","113","187080.804343","193969.165483","194736.292747","195503.515544","196270.99155","197038.13891","197788.907192","183944.956426","187847.837311","188598.467086","189365.860543","190132.810346","190900.276767","191667.406814","192434.654654","193202.143026","197047.897475","Mapping"
"Blocked","m150","cave","10","m150tile.wav","space","484.452890931","113","187080.804343","193969.165483","194736.292747","195503.515544","196270.99155","197038.13891","197788.907192","198555.932122","187847.837311","188598.467086","189365.860543","190132.810346","190900.276767","191667.406814","192434.654654","193202.143026","197798.358753","Mapping"
"Blocked","m150","cave","12","m150greet.wav","None","734.251004411","113","201691.421095","193969.165483","194736.292747","195503.515544","196270.99155","197038.13891","197788.907192","198555.932122","187847.837311","188598.467086","189365.860543","190132.810346","190900.276767","191667.406814","192434.654654","193202.143026","198565.422638","Mapping"
"Blocked","m150","cave","12","m150gnash.wav","None","721.84967529","113","201691.421095","193969.165483","194736.292747","195503.515544","196270.99155","197038.13891","197788.907192","198555.932122","202442.307169","188598.467086","189365.860543","190132.810346","190900.276767","191667.406814","192434.654654","193202.143026","201700.701378","Mapping"
"Blocked","m150","cave","12","m150jaw.wav","None","737.00135923","113","201691.421095","193969.165483","194736.292747","195503.515544","196270.99155","197038.13891","197788.907192","198555.932122","202442.307169","203209.006546","189365.860543","190132.810346","190900.276767","191667.406814","192434.654654","193202.143026","202451.259734","Mapping"
"Blocked","m150","cave","12","m150depth.wav","None","735.692962073","113","201691.421095","193969.165483","194736.292747","195503.515544","196270.99155","197038.13891","197788.907192","198555.932122","202442.307169","203209.006546","203976.229343","190132.810346","190900.276767","191667.406814","192434.654654","193202.143026","203218.380197","Mapping"
"Blocked","m150","cave","12","m150dime.wav","None","734.815853648","113","201691.421095","193969.165483","194736.292747","195503.515544","196270.99155","197038.13891","197788.907192","198555.932122","202442.307169","203209.006546","203976.229343","204744.089953","190900.276767","191667.406814","192434.654654","193202.143026","203985.297846","Mapping"
"Blocked","m150","cave","12","m150cave.wav","None","732.370956568","113","201691.421095","193969.165483","194736.292747","195503.515544","196270.99155","197038.13891","197788.907192","198555.932122","202442.307169","203209.006546","203976.229343","204744.089953","205510.794276","191667.406814","192434.654654","193202.143026","204753.343029","Mapping"
"Blocked","m150","cave","12","m150knife.wav","space","538.34698","113","201691.421095","193969.165483","194736.292747","195503.515544","196270.99155","197038.13891","197788.907192","198555.932122","202442.307169","203209.006546","203976.229343","204744.089953","205510.794276","206278.178459","192434.654654","193202.143026","205520.189569","Mapping"
"Blocked","m150","cave","12","m150reek.wav","None","729.021435138","113","201691.421095","193969.165483","194736.292747","195503.515544","196270.99155","197038.13891","197788.907192","198555.932122","202442.307169","203209.006546","203976.229343","204744.089953","205510.794276","206278.178459","207045.263058","193202.143026","206287.815521","Mapping"
"Blocked","m150","cave","12","m150park.wav","None","728.338174988","113","201691.421095","193969.165483","194736.292747","195503.515544","196270.99155","197038.13891","197788.907192","198555.932122","202442.307169","203209.006546","203976.229343","204744.089953","205510.794276","206278.178459","207045.263058","207812.615088","207054.396177","Mapping"
"Blocked","m150","cave","12","m150cave.wav","None","726.689384319","113","201691.421095","208579.761211","194736.292747","195503.515544","196270.99155","197038.13891","197788.907192","198555.932122","202442.307169","203209.006546","203976.229343","204744.089953","205510.794276","206278.178459","207045.263058","207812.615088","207822.053046","Mapping"
"Blocked","m150","cave","12","m150cling.wav","space","701.14626945","113","201691.421095","208579.761211","209346.585492","195503.515544","196270.99155","197038.13891","197788.907192","198555.932122","202442.307169","203209.006546","203976.229343","204744.089953","205510.794276","206278.178459","207045.263058","207812.615088","208589.309542","Mapping"
"Blocked","m150","cave","12","m150done.wav","None","723.810106982","113","201691.421095","208579.761211","209346.585492","210113.955762","196270.99155","197038.13891","197788.907192","198555.932122","202442.307169","203209.006546","203976.229343","204744.089953","205510.794276","206278.178459","207045.263058","207812.615088","209355.966563","Mapping"
"Blocked","m150","cave","12","m150cave.wav","None","722.640526015","113","201691.421095","208579.761211","209346.585492","210113.955762","210881.333761","197038.13891","197788.907192","198555.932122","202442.307169","203209.006546","203976.229343","204744.089953","205510.794276","206278.178459","207045.263058","207812.615088","210123.198635","Mapping"
"Blocked","m150","cave","12","m150dime.wav","None","721.111383289","113","201691.421095","208579.761211","209346.585492","210113.955762","210881.333761","211631.897065","197788.907192","198555.932122","202442.307169","203209.006546","203976.229343","204744.089953","205510.794276","206278.178459","207045.263058","207812.615088","210890.526859","Mapping"
"Blocked","m150","cave","12","m150cave.wav","space","0.0222600065172","113","201691.421095","208579.761211","209346.585492","210113.955762","210881.333761","211631.897065","212399.345245","198555.932122","202442.307169","203209.006546","203976.229343","204744.089953","205510.794276","206278.178459","207045.263058","207812.615088","211641.41788","Mapping"
"Blocked","m150","cave","12","m150dime.wav","None","734.302635537","113","201691.421095","208579.761211","209346.585492","210113.955762","210881.333761","211631.897065","212399.345245","213166.384706","202442.307169","203209.006546","203976.229343","204744.089953","205510.794276","206278.178459","207045.263058","207812.615088","212408.518865","Mapping"
"Blocked","m150","tile","13","m150cad.wav","space","66.3773475681","113","216302.074947","208579.761211","209346.585492","210113.955762","210881.333761","211631.897065","212399.345245","213166.384706","202442.307169","203209.006546","203976.229343","204744.089953","205510.794276","206278.178459","207045.263058","207812.615088","213175.895628","Mapping"
"Blocked","m150","tile","13","m150depth.wav","None","722.072276054","113","216302.074947","208579.761211","209346.585492","210113.955762","210881.333761","211631.897065","212399.345245","213166.384706","217069.089366","203209.006546","203976.229343","204744.089953","205510.794276","206278.178459","207045.263058","207812.615088","216311.440251","Mapping"
"Blocked","m150","tile","13","m150tile.wav","None","721.027907915","113","216302.074947","208579.761211","209346.585492","210113.955762","210881.333761","211631.897065","212399.345245","213166.384706","217069.089366","217819.584343","203976.229343","204744.089953","205510.794276","206278.178459","207045.263058","207812.615088","217078.389744","Mapping"
"Blocked","m150","tile","13","m150lash.wav","space","597.668505507","113","216302.074947","208579.761211","209346.585492","210113.955762","210881.333761","211631.897065","212399.345245","213166.384706","217069.089366","217819.584343","218586.834656","204744.089953","205510.794276","206278.178459","207045.263058","207812.615088","217828.418806","Mapping"
"Blocked","m150","tile","13","m150tile.wav","None","734.633754008","113","216302.074947","208579.761211","209346.585492","210113.955762","210881.333761","211631.897065","212399.345245","213166.384706","217069.089366","217819.584343","218586.834656","219353.931931","205510.794276","206278.178459","207045.263058","207812.615088","218596.295183","Mapping"
"Blocked","m150","tile","13","m150done.wav","space","535.239536781","113","216302.074947","208579.761211","209346.585492","210113.955762","210881.333761","211631.897065","212399.345245","213166.384706","217069.089366","217819.584343","218586.834656","219353.931931","220121.296945","206278.178459","207045.263058","207812.615088","219362.791437","Mapping"
"Blocked","m150","tile","13","m150park.wav","None","731.837333413","113","216302.074947","208579.761211","209346.585492","210113.955762","210881.333761","211631.897065","212399.345245","213166.384706","217069.089366","217819.584343","218586.834656","219353.931931","220121.296945","220888.571683","207045.263058","207812.615088","220130.56919","Mapping"
"Blocked","m150","tile","13","m150bluff.wav","None","730.769777671","113","216302.074947","208579.761211","209346.585492","210113.955762","210881.333761","211631.897065","212399.345245","213166.384706","217069.089366","217819.584343","218586.834656","219353.931931","220121.296945","220888.571683","221656.075514","207812.615088","220897.547127","Mapping"
"Blocked","m150","tile","13","m150gnash.wav","None","729.203225812","113","216302.074947","208579.761211","209346.585492","210113.955762","210881.333761","211631.897065","212399.345245","213166.384706","217069.089366","217819.584343","218586.834656","219353.931931","220121.296945","220888.571683","221656.075514","222423.028098","221665.56603","Mapping"
"Blocked","m150","tile","13","m150bluff.wav","None","728.301383788","113","216302.074947","223190.207921","209346.585492","210113.955762","210881.333761","211631.897065","212399.345245","213166.384706","217069.089366","217819.584343","218586.834656","219353.931931","220121.296945","220888.571683","221656.075514","222423.028098","222432.419991","Mapping"
"Blocked","m150","tile","13","m150greet.wav","None","727.191472426","113","216302.074947","223190.207921","223957.552222","210113.955762","210881.333761","211631.897065","212399.345245","213166.384706","217069.089366","217819.584343","218586.834656","219353.931931","220121.296945","220888.571683","221656.075514","222423.028098","223199.614963","Mapping"
"Blocked","m150","tile","13","m150gnash.wav","None","726.116187638","113","216302.074947","223190.207921","223957.552222","224724.9194","210881.333761","211631.897065","212399.345245","213166.384706","217069.089366","217819.584343","218586.834656","219353.931931","220121.296945","220888.571683","221656.075514","222423.028098","223966.649786","Mapping"
"Blocked","m150","tile","13","m150tile.wav","None","724.463687045","113","216302.074947","223190.207921","223957.552222","224724.9194","225492.174351","211631.897065","212399.345245","213166.384706","217069.089366","217819.584343","218586.834656","219353.931931","220121.296945","220888.571683","221656.075514","222423.028098","224734.126719","Mapping"
"Blocked","m150","tile","13","m150bluff.wav","space","460.459942464","113","216302.074947","223190.207921","223957.552222","224724.9194","225492.174351","226259.170219","212399.345245","213166.384706","217069.089366","217819.584343","218586.834656","219353.931931","220121.296945","220888.571683","221656.075514","222423.028098","225501.363738","Mapping"
"Blocked","m150","tile","13","m150tile.wav","None","720.697407611","113","216302.074947","223190.207921","223957.552222","224724.9194","225492.174351","226259.170219","227009.862754","213166.384706","217069.089366","217819.584343","218586.834656","219353.931931","220121.296945","220888.571683","221656.075514","222423.028098","226268.968357","Mapping"
"Blocked","m150","tile","13","m150cave.wav","space","518.731225748","113","216302.074947","223190.207921","223957.552222","224724.9194","225492.174351","226259.170219","227009.862754","227776.925094","217069.089366","217819.584343","218586.834656","219353.931931","220121.296945","220888.571683","221656.075514","222423.028098","227019.028645","Mapping"
"Blocked","m150","ball","5","m150jolt.wav","None","734.622314805","113","230913.212028","223190.207921","223957.552222","224724.9194","225492.174351","226259.170219","227009.862754","227776.925094","217069.089366","217819.584343","218586.834656","219353.931931","220121.296945","220888.571683","221656.075514","222423.028098","227786.38593","Mapping"
"Blocked","m150","ball","5","m150depth.wav","None","721.077374881","113","230913.212028","223190.207921","223957.552222","224724.9194","225492.174351","226259.170219","227009.862754","227776.925094","231663.555823","217819.584343","218586.834656","219353.931931","220121.296945","220888.571683","221656.075514","222423.028098","230922.411","Mapping"
"Blocked","m150","ball","5","m150ball.wav","None","736.798854312","113","230913.212028","223190.207921","223957.552222","224724.9194","225492.174351","226259.170219","227009.862754","227776.925094","231663.555823","232430.598685","218586.834656","219353.931931","220121.296945","220888.571683","221656.075514","222423.028098","231672.781073","Mapping"
"Blocked","m150","ball","5","m150cave.wav","None","736.15825898","113","230913.212028","223190.207921","223957.552222","224724.9194","225492.174351","226259.170219","227009.862754","227776.925094","231663.555823","232430.598685","233197.620523","219353.931931","220121.296945","220888.571683","221656.075514","222423.028098","232439.633488","Mapping"
"Blocked","m150","ball","5","m150jolt.wav","space","82.2769077495","113","230913.212028","223190.207921","223957.552222","224724.9194","225492.174351","226259.170219","227009.862754","227776.925094","231663.555823","232430.598685","233197.620523","233964.596295","220121.296945","220888.571683","221656.075514","222423.028098","233207.265932","Mapping"
"Blocked","m150","ball","5","m150tile.wav","None","733.599897707","113","230913.212028","223190.207921","223957.552222","224724.9194","225492.174351","226259.170219","227009.862754","227776.925094","231663.555823","232430.598685","233197.620523","233964.596295","234731.843517","220888.571683","221656.075514","222423.028098","233973.382219","Mapping"
"Blocked","m150","ball","5","m150jaw.wav","None","732.149283402","113","230913.212028","223190.207921","223957.552222","224724.9194","225492.174351","226259.170219","227009.862754","227776.925094","231663.555823","232430.598685","233197.620523","233964.596295","234731.843517","235499.329106","221656.075514","222423.028098","234741.128746","Mapping"
"Blocked","m150","ball","5","m150ball.wav","None","730.655076681","113","230913.212028","223190.207921","223957.552222","224724.9194","225492.174351","226259.170219","227009.862754","227776.925094","231663.555823","232430.598685","233197.620523","233964.596295","234731.843517","235499.329106","236266.4641","222423.028098","235508.811894","Mapping"
"Blocked","m150","ball","5","m150jolt.wav","space","397.448192816","113","230913.212028","223190.207921","223957.552222","224724.9194","225492.174351","226259.170219","227009.862754","227776.925094","231663.555823","232430.598685","233197.620523","233964.596295","234731.843517","235499.329106","236266.4641","237033.676695","236275.991098","Mapping"
"Blocked","m150","ball","5","m150ball.wav","None","728.328899713","113","230913.212028","237800.646902","223957.552222","224724.9194","225492.174351","226259.170219","227009.862754","227776.925094","231663.555823","232430.598685","233197.620523","233964.596295","234731.843517","235499.329106","236266.4641","237033.676695","237042.936573","Mapping"
"Blocked","m150","ball","5","m150lash.wav","space","575.405349722","113","230913.212028","237800.646902","238568.538429","224724.9194","225492.174351","226259.170219","227009.862754","227776.925094","231663.555823","232430.598685","233197.620523","233964.596295","234731.843517","235499.329106","236266.4641","237033.676695","237809.954392","Mapping"
"Blocked","m150","ball","5","m150park.wav","None","724.786148872","113","230913.212028","237800.646902","238568.538429","239335.371057","225492.174351","226259.170219","227009.862754","227776.925094","231663.555823","232430.598685","233197.620523","233964.596295","234731.843517","235499.329106","236266.4641","237033.676695","238577.92692","Mapping"
"Blocked","m150","ball","5","m150ball.wav","None","724.080628483","113","230913.212028","237800.646902","238568.538429","239335.371057","240102.556136","226259.170219","227009.862754","227776.925094","231663.555823","232430.598685","233197.620523","233964.596295","234731.843517","235499.329106","236266.4641","237033.676695","239344.544367","Mapping"
"Blocked","m150","ball","5","m150lash.wav","space","649.272590643","113","230913.212028","237800.646902","238568.538429","239335.371057","240102.556136","240869.901982","227009.862754","227776.925094","231663.555823","232430.598685","233197.620523","233964.596295","234731.843517","235499.329106","236266.4641","237033.676695","240112.046343","Mapping"
"Blocked","m150","ball","5","m150cave.wav","None","720.406790264","113","230913.212028","237800.646902","238568.538429","239335.371057","240102.556136","240869.901982","241620.451682","227776.925094","231663.555823","232430.598685","233197.620523","233964.596295","234731.843517","235499.329106","236266.4641","237033.676695","240879.582636","Mapping"
"Blocked","m150","ball","5","m150park.wav","None","736.352107255","113","230913.212028","237800.646902","238568.538429","239335.371057","240102.556136","240869.901982","241620.451682","242387.615428","231663.555823","232430.598685","233197.620523","233964.596295","234731.843517","235499.329106","236266.4641","237033.676695","241629.716506","Mapping"
"Blocked","m150","done","20","m150tile.wav","None","735.183763085","113","245523.243526","237800.646902","238568.538429","239335.371057","240102.556136","240869.901982","241620.451682","242387.615428","231663.555823","232430.598685","233197.620523","233964.596295","234731.843517","235499.329106","236266.4641","237033.676695","242396.979495","Mapping"
"Blocked","m150","done","20","m150done.wav","None","721.217118436","113","245523.243526","237800.646902","238568.538429","239335.371057","240102.556136","240869.901982","241620.451682","242387.615428","246273.978418","232430.598685","233197.620523","233964.596295","234731.843517","235499.329106","236266.4641","237033.676695","245532.72755","Mapping"
"Blocked","m150","done","20","m150cling.wav","space","430.363098625","113","245523.243526","237800.646902","238568.538429","239335.371057","240102.556136","240869.901982","241620.451682","242387.615428","246273.978418","247041.170607","233197.620523","233964.596295","234731.843517","235499.329106","236266.4641","237033.676695","246282.69818","Mapping"
"Blocked","m150","done","20","m150park.wav","None","734.834403731","113","245523.243526","237800.646902","238568.538429","239335.371057","240102.556136","240869.901982","241620.451682","242387.615428","246273.978418","247041.170607","247808.307147","233964.596295","234731.843517","235499.329106","236266.4641","237033.676695","247050.484589","Mapping"
"Blocked","m150","done","20","m150dime.wav","None","733.74520638","113","245523.243526","237800.646902","238568.538429","239335.371057","240102.556136","240869.901982","241620.451682","242387.615428","246273.978418","247041.170607","247808.307147","248575.545402","234731.843517","235499.329106","236266.4641","237033.676695","247817.669359","Mapping"
"Blocked","m150","done","20","m150priest.wav","None","732.634058222","113","245523.243526","237800.646902","238568.538429","239335.371057","240102.556136","240869.901982","241620.451682","242387.615428","246273.978418","247041.170607","247808.307147","248575.545402","249342.688744","235499.329106","236266.4641","237033.676695","248584.989853","Mapping"
"Blocked","m150","done","20","m150dime.wav","None","732.042620657","113","245523.243526","237800.646902","238568.538429","239335.371057","240102.556136","240869.901982","241620.451682","242387.615428","246273.978418","247041.170607","247808.307147","248575.545402","249342.688744","250109.640401","236266.4641","237033.676695","249352.021894","Mapping"
"Blocked","m150","done","20","m150priest.wav","None","731.759422924","113","245523.243526","237800.646902","238568.538429","239335.371057","240102.556136","240869.901982","241620.451682","242387.615428","246273.978418","247041.170607","247808.307147","248575.545402","249342.688744","250109.640401","250877.178549","237033.676695","250118.40221","Mapping"
"Blocked","m150","done","20","m150done.wav","None","729.562169174","113","245523.243526","237800.646902","238568.538429","239335.371057","240102.556136","240869.901982","241620.451682","242387.615428","246273.978418","247041.170607","247808.307147","248575.545402","249342.688744","250109.640401","250877.178549","251644.023235","250886.635985","Mapping"
"Blocked","m150","done","20","m150priest.wav","space","508.05845228","113","245523.243526","252412.203833","238568.538429","239335.371057","240102.556136","240869.901982","241620.451682","242387.615428","246273.978418","247041.170607","247808.307147","248575.545402","249342.688744","250109.640401","250877.178549","251644.023235","251652.829873","Mapping"
"Blocked","m150","done","20","m150jolt.wav","None","725.954802241","113","245523.243526","252412.203833","253178.898572","239335.371057","240102.556136","240869.901982","241620.451682","242387.615428","246273.978418","247041.170607","247808.307147","248575.545402","249342.688744","250109.640401","250877.178549","251644.023235","252421.640864","Mapping"
"Blocked","m150","done","20","m150done.wav","None","725.375731243","113","245523.243526","252412.203833","253178.898572","253946.018726","240102.556136","240869.901982","241620.451682","242387.615428","246273.978418","247041.170607","247808.307147","248575.545402","249342.688744","250109.640401","250877.178549","251644.023235","253188.232032","Mapping"
"Blocked","m150","done","20","m150tile.wav","space","557.402522536","113","245523.243526","252412.203833","253178.898572","253946.018726","254713.066225","240869.901982","241620.451682","242387.615428","246273.978418","247041.170607","247808.307147","248575.545402","249342.688744","250109.640401","250877.178549","251644.023235","253955.397015","Mapping"
"Blocked","m150","done","20","m150done.wav","None","722.250356339","113","245523.243526","252412.203833","253178.898572","253946.018726","254713.066225","255480.054055","241620.451682","242387.615428","246273.978418","247041.170607","247808.307147","248575.545402","249342.688744","250109.640401","250877.178549","251644.023235","254722.433075","Mapping"
"Blocked","m150","done","20","m150greet.wav","space","591.604493093","113","245523.243526","252412.203833","253178.898572","253946.018726","254713.066225","255480.054055","256231.761897","242387.615428","246273.978418","247041.170607","247808.307147","248575.545402","249342.688744","250109.640401","250877.178549","251644.023235","255489.12163","Mapping"
"Blocked","m150","done","20","m150cling.wav","None","734.891290311","113","245523.243526","252412.203833","253178.898572","253946.018726","254713.066225","255480.054055","256231.761897","256998.172511","246273.978418","247041.170607","247808.307147","248575.545402","249342.688744","250109.640401","250877.178549","251644.023235","256241.085154","Mapping"
"Blocked","m150","tile","14","m150cad.wav","None","734.908604063","113","260133.959521","252412.203833","253178.898572","253946.018726","254713.066225","255480.054055","256231.761897","256998.172511","246273.978418","247041.170607","247808.307147","248575.545402","249342.688744","250109.640401","250877.178549","251644.023235","257007.411365","Mapping"
"Blocked","m150","tile","14","m150bluff.wav","None","721.231649397","113","260133.959521","252412.203833","253178.898572","253946.018726","254713.066225","255480.054055","256231.761897","256998.172511","260901.606496","247041.170607","247808.307147","248575.545402","249342.688744","250109.640401","250877.178549","251644.023235","260143.233002","Mapping"
"Blocked","m150","tile","14","m150tile.wav","None","719.973337371","113","260133.959521","252412.203833","253178.898572","253946.018726","254713.066225","255480.054055","256231.761897","256998.172511","260901.606496","261651.601241","247808.307147","248575.545402","249342.688744","250109.640401","250877.178549","251644.023235","260910.789391","Mapping"
"Blocked","m150","tile","14","m150cave.wav","space","571.66009373","113","260133.959521","252412.203833","253178.898572","253946.018726","254713.066225","255480.054055","256231.761897","256998.172511","260901.606496","261651.601241","262418.785392","248575.545402","249342.688744","250109.640401","250877.178549","251644.023235","261660.858954","Mapping"
"Blocked","m150","tile","14","m150bluff.wav","None","734.364159871","113","260133.959521","252412.203833","253178.898572","253946.018726","254713.066225","255480.054055","256231.761897","256998.172511","260901.606496","261651.601241","262418.785392","263185.987166","249342.688744","250109.640401","250877.178549","251644.023235","262428.147913","Mapping"
"Blocked","m150","tile","14","m150gnash.wav","None","733.639780199","113","260133.959521","252412.203833","253178.898572","253946.018726","254713.066225","255480.054055","256231.761897","256998.172511","260901.606496","261651.601241","262418.785392","263185.987166","263953.445858","250109.640401","250877.178549","251644.023235","263195.687298","Mapping"
"Blocked","m150","tile","14","m150dime.wav","None","732.828215463","113","260133.959521","252412.203833","253178.898572","253946.018726","254713.066225","255480.054055","256231.761897","256998.172511","260901.606496","261651.601241","262418.785392","263185.987166","263953.445858","264720.386076","250877.178549","251644.023235","263962.736961","Mapping"
"Blocked","m150","tile","14","m150tile.wav","None","733.263214119","113","260133.959521","252412.203833","253178.898572","253946.018726","254713.066225","255480.054055","256231.761897","256998.172511","260901.606496","261651.601241","262418.785392","263185.987166","263953.445858","264720.386076","265487.456145","251644.023235","264729.144484","Mapping"
"Blocked","m150","tile","14","m150romp.wav","space","479.63977023","113","260133.959521","252412.203833","253178.898572","253946.018726","254713.066225","255480.054055","256231.761897","256998.172511","260901.606496","261651.601241","262418.785392","263185.987166","263953.445858","264720.386076","265487.456145","266254.955647","265496.745702","Mapping"
"Blocked","m150","tile","14","m150jolt.wav","None","729.600815102","113","260133.959521","267022.360853","253178.898572","253946.018726","254713.066225","255480.054055","256231.761897","256998.172511","260901.606496","261651.601241","262418.785392","263185.987166","263953.445858","264720.386076","265487.456145","266254.955647","266264.424831","Mapping"
"Blocked","m150","tile","14","m150tile.wav","None","721.077374881","113","260133.959521","267022.360853","267789.422265","253946.018726","254713.066225","255480.054055","256231.761897","256998.172511","260901.606496","261651.601241","262418.785392","263185.987166","263953.445858","264720.386076","265487.456145","266254.955647","267039.419791","Mapping"
"Blocked","m150","tile","14","m150priest.wav","space","625.319215469","113","260133.959521","267022.360853","267789.422265","268556.650936","254713.066225","255480.054055","256231.761897","256998.172511","260901.606496","261651.601241","262418.785392","263185.987166","263953.445858","264720.386076","265487.456145","266254.955647","267798.965958","Mapping"
"Blocked","m150","tile","14","m150lash.wav","None","725.690154592","113","260133.959521","267022.360853","267789.422265","268556.650936","269323.875589","255480.054055","256231.761897","256998.172511","260901.606496","261651.601241","262418.785392","263185.987166","263953.445858","264720.386076","265487.456145","266254.955647","268566.436399","Mapping"
"Blocked","m150","tile","14","m150tile.wav","None","725.188684883","113","260133.959521","267022.360853","267789.422265","268556.650936","269323.875589","270091.167639","256231.761897","256998.172511","260901.606496","261651.601241","262418.785392","263185.987166","263953.445858","264720.386076","265487.456145","266254.955647","269333.191116","Mapping"
"Blocked","m150","tile","14","m150park.wav","space","515.548964031","113","260133.959521","267022.360853","267789.422265","268556.650936","269323.875589","270091.167639","270858.253784","256998.172511","260901.606496","261651.601241","262418.785392","263185.987166","263953.445858","264720.386076","265487.456145","266254.955647","270100.67887","Mapping"
"Blocked","m150","tile","14","m150cling.wav","None","722.775013885","113","260133.959521","267022.360853","267789.422265","268556.650936","269323.875589","270091.167639","270858.253784","271625.28768","260901.606496","261651.601241","262418.785392","263185.987166","263953.445858","264720.386076","265487.456145","266254.955647","270867.284878","Mapping"
"Blocked","m150","ball","3","m150depth.wav","None","720.912588295","113","274744.415816","267022.360853","267789.422265","268556.650936","269323.875589","270091.167639","270858.253784","271625.28768","260901.606496","261651.601241","262418.785392","263185.987166","263953.445858","264720.386076","265487.456145","266254.955647","271635.487737","Mapping"
"Blocked","m150","ball","3","m150done.wav","None","720.97689542","113","274744.415816","267022.360853","267789.422265","268556.650936","269323.875589","270091.167639","270858.253784","271625.28768","275494.860089","261651.601241","262418.785392","263185.987166","263953.445858","264720.386076","265487.456145","266254.955647","274753.928283","Mapping"
"Blocked","m150","ball","3","m150knife.wav","None","737.430793","113","274744.415816","267022.360853","267789.422265","268556.650936","269323.875589","270091.167639","270858.253784","271625.28768","275494.860089","276262.407513","262418.785392","263185.987166","263953.445858","264720.386076","265487.456145","266254.955647","275503.786684","Mapping"
"Blocked","m150","ball","3","m150tile.wav","None","735.658026068","113","274744.415816","267022.360853","267789.422265","268556.650936","269323.875589","270091.167639","270858.253784","271625.28768","275494.860089","276262.407513","277029.525502","263185.987166","263953.445858","264720.386076","265487.456145","266254.955647","276271.72335","Mapping"
"Blocked","m150","ball","3","m150lash.wav","None","734.667762415","113","274744.415816","267022.360853","267789.422265","268556.650936","269323.875589","270091.167639","270858.253784","271625.28768","275494.860089","276262.407513","277029.525502","277796.712745","263953.445858","264720.386076","265487.456145","266254.955647","277039.08249","Mapping"
"Blocked","m150","ball","3","m150ball.wav","None","732.722170884","113","274744.415816","267022.360853","267789.422265","268556.650936","269323.875589","270091.167639","270858.253784","271625.28768","275494.860089","276262.407513","277029.525502","277796.712745","278563.806001","264720.386076","265487.456145","266254.955647","277807.482288","Mapping"
"Blocked","m150","ball","3","m150depth.wav","space","594.846424181","113","274744.415816","267022.360853","267789.422265","268556.650936","269323.875589","270091.167639","270858.253784","271625.28768","275494.860089","276262.407513","277029.525502","277796.712745","278563.806001","279331.16947","265487.456145","266254.955647","278573.053821","Mapping"
"Blocked","m150","ball","3","m150done.wav","None","731.15654639","113","274744.415816","267022.360853","267789.422265","268556.650936","269323.875589","270091.167639","270858.253784","271625.28768","275494.860089","276262.407513","277029.525502","277796.712745","278563.806001","279331.16947","280097.959741","266254.955647","279340.659368","Mapping"
"Blocked","m150","ball","3","m150ball.wav","None","730.745662702","113","274744.415816","267022.360853","267789.422265","268556.650936","269323.875589","270091.167639","270858.253784","271625.28768","275494.860089","276262.407513","277029.525502","277796.712745","278563.806001","279331.16947","280097.959741","280865.627122","280107.486122","Mapping"
"Blocked","m150","ball","3","m150gnash.wav","space","444.703835994","113","274744.415816","281632.548172","267789.422265","268556.650936","269323.875589","270091.167639","270858.253784","271625.28768","275494.860089","276262.407513","277029.525502","277796.712745","278563.806001","279331.16947","280097.959741","280865.627122","280875.101871","Mapping"
"Blocked","m150","ball","3","m150ball.wav","None","728.133815108","113","274744.415816","281632.548172","282399.795084","268556.650936","269323.875589","270091.167639","270858.253784","271625.28768","275494.860089","276262.407513","277029.525502","277796.712745","278563.806001","279331.16947","280097.959741","280865.627122","281641.924296","Mapping"
"Blocked","m150","ball","3","m150lash.wav","space","438.86025995","113","274744.415816","281632.548172","282399.795084","283167.250684","269323.875589","270091.167639","270858.253784","271625.28768","275494.860089","276262.407513","277029.525502","277796.712745","278563.806001","279331.16947","280097.959741","280865.627122","282408.918928","Mapping"
"Blocked","m150","ball","3","m150priest.wav","None","724.474198883","113","274744.415816","281632.548172","282399.795084","283167.250684","283934.352288","270091.167639","270858.253784","271625.28768","275494.860089","276262.407513","277029.525502","277796.712745","278563.806001","279331.16947","280097.959741","280865.627122","283177.204952","Mapping"
"Blocked","m150","ball","3","m150ball.wav","None","724.174615461","113","274744.415816","281632.548172","282399.795084","283167.250684","283934.352288","284701.749456","270858.253784","271625.28768","275494.860089","276262.407513","277029.525502","277796.712745","278563.806001","279331.16947","280097.959741","280865.627122","283943.786845","Mapping"
"Blocked","m150","ball","3","m150park.wav","space","432.439777302","113","274744.415816","281632.548172","282399.795084","283167.250684","283934.352288","284701.749456","285468.934844","271625.28768","275494.860089","276262.407513","277029.525502","277796.712745","278563.806001","279331.16947","280097.959741","280865.627122","284711.246774","Mapping"
"Blocked","m150","ball","3","m150dime.wav","None","721.180945868","113","274744.415816","281632.548172","282399.795084","283167.250684","283934.352288","284701.749456","285468.934844","286236.133217","275494.860089","276262.407513","277029.525502","277796.712745","278563.806001","279331.16947","280097.959741","280865.627122","285478.577161","Mapping"
"Blocked","m150","done","24","m150jaw.wav","None","720.183880534","113","289355.10244","281632.548172","282399.795084","283167.250684","283934.352288","284701.749456","285468.934844","286236.133217","275494.860089","276262.407513","277029.525502","277796.712745","278563.806001","279331.16947","280097.959741","280865.627122","286245.820364","Mapping"
"Blocked","m150","done","24","m150knife.wav","None","721.732809907","113","289355.10244","281632.548172","282399.795084","283167.250684","283934.352288","284701.749456","285468.934844","286236.133217","290122.121805","276262.407513","277029.525502","277796.712745","278563.806001","279331.16947","280097.959741","280865.627122","289364.726826","Mapping"
"Blocked","m150","done","24","m150cling.wav","None","721.532778349","113","289355.10244","281632.548172","282399.795084","283167.250684","283934.352288","284701.749456","285468.934844","286236.133217","290122.121805","290889.161575","277029.525502","277796.712745","278563.806001","279331.16947","280097.959741","280865.627122","290131.38632","Mapping"
"Blocked","m150","done","24","m150cave.wav","None","723.324095365","113","289355.10244","281632.548172","282399.795084","283167.250684","283934.352288","284701.749456","285468.934844","286236.133217","290122.121805","290889.161575","291656.570491","277796.712745","278563.806001","279331.16947","280097.959741","280865.627122","290898.277689","Mapping"
"Blocked","m150","done","24","m150done.wav","None","720.166876214","113","289355.10244","281632.548172","282399.795084","283167.250684","283934.352288","284701.749456","285468.934844","286236.133217","290122.121805","290889.161575","291656.570491","292424.003522","278563.806001","279331.16947","280097.959741","280865.627122","291667.635289","Mapping"
"Blocked","m150","done","24","m150park.wav","space","349.800216034","113","289355.10244","281632.548172","282399.795084","283167.250684","283934.352288","284701.749456","285468.934844","286236.133217","290122.121805","290889.161575","291656.570491","292424.003522","293174.379779","279331.16947","280097.959741","280865.627122","292433.594518","Mapping"
"Blocked","m150","done","24","m150bluff.wav","None","736.050668871","113","289355.10244","281632.548172","282399.795084","283167.250684","283934.352288","284701.749456","285468.934844","286236.133217","290122.121805","290889.161575","291656.570491","292424.003522","293174.379779","293941.639676","280097.959741","280865.627122","293184.026734","Mapping"
"Blocked","m150","done","24","m150cling.wav","None","734.81987277","113","289355.10244","281632.548172","282399.795084","283167.250684","283934.352288","284701.749456","285468.934844","286236.133217","290122.121805","290889.161575","291656.570491","292424.003522","293174.379779","293941.639676","294709.033753","280865.627122","293951.525618","Mapping"
"Blocked","m150","done","24","m150done.wav","None","734.404351562","113","289355.10244","281632.548172","282399.795084","283167.250684","283934.352288","284701.749456","285468.934844","286236.133217","290122.121805","290889.161575","291656.570491","292424.003522","293174.379779","293941.639676","294709.033753","295476.313746","294718.283118","Mapping"
"Blocked","m150","done","24","m150jaw.wav","space","464.842392597","113","289355.10244","296243.418132","282399.795084","283167.250684","283934.352288","284701.749456","285468.934844","286236.133217","290122.121805","290889.161575","291656.570491","292424.003522","293174.379779","293941.639676","294709.033753","295476.313746","295486.436819","Mapping"
"Blocked","m150","done","24","m150tile.wav","None","729.229505174","113","289355.10244","296243.418132","297010.486654","283167.250684","283934.352288","284701.749456","285468.934844","286236.133217","290122.121805","290889.161575","291656.570491","292424.003522","293174.379779","293941.639676","294709.033753","295476.313746","296255.304697","Mapping"
"Blocked","m150","done","24","m150park.wav","None","730.50142033","113","289355.10244","296243.418132","297010.486654","297777.831573","283934.352288","284701.749456","285468.934844","286236.133217","290122.121805","290889.161575","291656.570491","292424.003522","293174.379779","293941.639676","294709.033753","295476.313746","297020.513577","Mapping"
"Blocked","m150","done","24","m150done.wav","None","729.821869871","113","289355.10244","296243.418132","297010.486654","297777.831573","298545.325201","284701.749456","285468.934844","286236.133217","290122.121805","290889.161575","291656.570491","292424.003522","293174.379779","293941.639676","294709.033753","295476.313746","297787.417004","Mapping"
"Blocked","m150","done","24","m150cad.wav","space","420.208490221","113","289355.10244","296243.418132","297010.486654","297777.831573","298545.325201","299312.034162","285468.934844","286236.133217","290122.121805","290889.161575","291656.570491","292424.003522","293174.379779","293941.639676","294709.033753","295476.313746","298554.973702","Mapping"
"Blocked","m150","done","24","m150done.wav","None","728.931776481","113","289355.10244","296243.418132","297010.486654","297777.831573","298545.325201","299312.034162","300079.288803","286236.133217","290122.121805","290889.161575","291656.570491","292424.003522","293174.379779","293941.639676","294709.033753","295476.313746","299320.634585","Mapping"
"Blocked","m150","done","24","m150priest.wav","None","727.410672233","113","289355.10244","296243.418132","297010.486654","297777.831573","298545.325201","299312.034162","300079.288803","300846.669894","290122.121805","290889.161575","291656.570491","292424.003522","293174.379779","293941.639676","294709.033753","295476.313746","300088.693371","Mapping"
"Blocked","m150","done","19","m150park.wav","space","174.786334159","113","303982.324891","296243.418132","297010.486654","297777.831573","298545.325201","299312.034162","300079.288803","300846.669894","290122.121805","290889.161575","291656.570491","292424.003522","293174.379779","293941.639676","294709.033753","295476.313746","300856.307884","Mapping"
"Blocked","m150","done","19","m150priest.wav","None","720.948451664","113","303982.324891","296243.418132","297010.486654","297777.831573","298545.325201","299312.034162","300079.288803","300846.669894","304732.840582","290889.161575","291656.570491","292424.003522","293174.379779","293941.639676","294709.033753","295476.313746","303991.724512","Mapping"
"Blocked","m150","done","19","m150done.wav","None","736.606552033","113","303982.324891","296243.418132","297010.486654","297777.831573","298545.325201","299312.034162","300079.288803","300846.669894","304732.840582","305500.007729","291656.570491","292424.003522","293174.379779","293941.639676","294709.033753","295476.313746","304742.600693","Mapping"
"Blocked","m150","done","19","m150tile.wav","space","609.187779715","113","303982.324891","296243.418132","297010.486654","297777.831573","298545.325201","299312.034162","300079.288803","300846.669894","304732.840582","305500.007729","306267.024312","292424.003522","293174.379779","293941.639676","294709.033753","295476.313746","305509.698896","Mapping"
"Blocked","m150","done","19","m150ball.wav","None","734.448871808","113","303982.324891","296243.418132","297010.486654","297777.831573","298545.325201","299312.034162","300079.288803","300846.669894","304732.840582","305500.007729","306267.024312","307034.201043","293174.379779","293941.639676","294709.033753","295476.313746","306276.488549","Mapping"
"Blocked","m150","done","19","m150park.wav","None","733.775195666","113","303982.324891","296243.418132","297010.486654","297777.831573","298545.325201","299312.034162","300079.288803","300846.669894","304732.840582","305500.007729","306267.024312","307034.201043","307801.566676","293941.639676","294709.033753","295476.313746","307043.693105","Mapping"
"Blocked","m150","done","19","m150cling.wav","None","733.076786157","113","303982.324891","296243.418132","297010.486654","297777.831573","298545.325201","299312.034162","300079.288803","300846.669894","304732.840582","305500.007729","306267.024312","307034.201043","307801.566676","308569.062468","294709.033753","295476.313746","307810.956404","Mapping"
"Blocked","m150","done","19","m150done.wav","None","731.741182273","113","303982.324891","296243.418132","297010.486654","297777.831573","298545.325201","299312.034162","300079.288803","300846.669894","304732.840582","305500.007729","306267.024312","307034.201043","307801.566676","308569.062468","309336.115532","295476.313746","308579.189251","Mapping"
"Blocked","m150","done","19","m150cave.wav","space","388.860136271","113","303982.324891","296243.418132","297010.486654","297777.831573","298545.325201","299312.034162","300079.288803","300846.669894","304732.840582","305500.007729","306267.024312","307034.201043","307801.566676","308569.062468","309336.115532","310103.5127","309345.948297","Mapping"
"Blocked","m150","done","19","m150done.wav","None","729.877211154","113","303982.324891","310870.836286","297010.486654","297777.831573","298545.325201","299312.034162","300079.288803","300846.669894","304732.840582","305500.007729","306267.024312","307034.201043","307801.566676","308569.062468","309336.115532","310103.5127","310113.125029","Mapping"
"Blocked","m150","done","19","m150cad.wav","None","729.148193961","113","303982.324891","310870.836286","311638.046717","297777.831573","298545.325201","299312.034162","300079.288803","300846.669894","304732.840582","305500.007729","306267.024312","307034.201043","307801.566676","308569.062468","309336.115532","310103.5127","310880.371941","Mapping"
"Blocked","m150","done","19","m150cling.wav","space","198.714667","113","303982.324891","310870.836286","311638.046717","312405.075975","298545.325201","299312.034162","300079.288803","300846.669894","304732.840582","305500.007729","306267.024312","307034.201043","307801.566676","308569.062468","309336.115532","310103.5127","311647.990782","Mapping"
"Blocked","m150","done","19","m150cave.wav","None","726.767603541","113","303982.324891","310870.836286","311638.046717","312405.075975","313172.048346","299312.034162","300079.288803","300846.669894","304732.840582","305500.007729","306267.024312","307034.201043","307801.566676","308569.062468","309336.115532","310103.5127","312414.701598","Mapping"
"Blocked","m150","done","19","m150done.wav","None","726.455344586","113","303982.324891","310870.836286","311638.046717","312405.075975","313172.048346","313939.588968","300079.288803","300846.669894","304732.840582","305500.007729","306267.024312","307034.201043","307801.566676","308569.062468","309336.115532","310103.5127","313181.411795","Mapping"
"Blocked","m150","done","19","m150park.wav","space","417.624158785","113","303982.324891","310870.836286","311638.046717","312405.075975","313172.048346","313939.588968","314706.855358","300846.669894","304732.840582","305500.007729","306267.024312","307034.201043","307801.566676","308569.062468","309336.115532","310103.5127","313948.970039","Mapping"
"Blocked","m150","done","19","m150cave.wav","None","722.77315869","113","303982.324891","310870.836286","311638.046717","312405.075975","313172.048346","313939.588968","314706.855358","315473.97613","304732.840582","305500.007729","306267.024312","307034.201043","307801.566676","308569.062468","309336.115532","310103.5127","314716.922781","Mapping"
"Blocked","m150","cave","11","m150reek.wav","None","721.883992897","113","318592.912272","310870.836286","311638.046717","312405.075975","313172.048346","313939.588968","314706.855358","315473.97613","304732.840582","305500.007729","306267.024312","307034.201043","307801.566676","308569.062468","309336.115532","310103.5127","315484.236474","Mapping"
"Blocked","m150","cave","11","m150greet.wav","None","720.564465737","113","318592.912272","310870.836286","311638.046717","312405.075975","313172.048346","313939.588968","314706.855358","315473.97613","319343.562142","305500.007729","306267.024312","307034.201043","307801.566676","308569.062468","309336.115532","310103.5127","318602.490592","Mapping"
"Blocked","m150","cave","11","m150lash.wav","None","736.334484769","113","318592.912272","310870.836286","311638.046717","312405.075975","313172.048346","313939.588968","314706.855358","315473.97613","319343.562142","320110.808127","306267.024312","307034.201043","307801.566676","308569.062468","309336.115532","310103.5127","319353.182509","Mapping"
"Blocked","m150","cave","11","m150lash.wav","None","735.318250954","113","318592.912272","310870.836286","311638.046717","312405.075975","313172.048346","313939.588968","314706.855358","315473.97613","319343.562142","320110.808127","320877.948067","307034.201043","307801.566676","308569.062468","309336.115532","310103.5127","320120.649549","Mapping"
"Blocked","m150","cave","11","m150priest.wav","None","734.942612471","113","318592.912272","310870.836286","311638.046717","312405.075975","313172.048346","313939.588968","314706.855358","315473.97613","319343.562142","320110.808127","320877.948067","321644.987219","307801.566676","308569.062468","309336.115532","310103.5127","320887.44755","Mapping"
"Blocked","m150","cave","11","m150depth.wav","None","735.062260181","113","318592.912272","310870.836286","311638.046717","312405.075975","313172.048346","313939.588968","314706.855358","315473.97613","319343.562142","320110.808127","320877.948067","321644.987219","322412.417468","308569.062468","309336.115532","310103.5127","321654.118792","Mapping"
"Blocked","m150","cave","11","m150done.wav","None","733.919885941","113","318592.912272","310870.836286","311638.046717","312405.075975","313172.048346","313939.588968","314706.855358","315473.97613","319343.562142","320110.808127","320877.948067","321644.987219","322412.417468","323179.323368","309336.115532","310103.5127","322422.046801","Mapping"
"Blocked","m150","cave","11","m150cave.wav","None","733.803329756","113","318592.912272","310870.836286","311638.046717","312405.075975","313172.048346","313939.588968","314706.855358","315473.97613","319343.562142","320110.808127","320877.948067","321644.987219","322412.417468","323179.323368","323946.85286","310103.5127","323188.740612","Mapping"
"Blocked","m150","cave","11","m150jolt.wav","space","545.791425509","113","318592.912272","310870.836286","311638.046717","312405.075975","313172.048346","313939.588968","314706.855358","315473.97613","319343.562142","320110.808127","320877.948067","321644.987219","322412.417468","323179.323368","323946.85286","324714.131307","323956.466116","Mapping"
"Blocked","m150","cave","11","m150cave.wav","None","730.451026","113","318592.912272","325481.303401","311638.046717","312405.075975","313172.048346","313939.588968","314706.855358","315473.97613","319343.562142","320110.808127","320877.948067","321644.987219","322412.417468","323179.323368","323946.85286","324714.131307","324723.967164","Mapping"
"Blocked","m150","cave","11","m150jolt.wav","space","651.479737833","113","318592.912272","325481.303401","326248.167873","312405.075975","313172.048346","313939.588968","314706.855358","315473.97613","319343.562142","320110.808127","320877.948067","321644.987219","322412.417468","323179.323368","323946.85286","324714.131307","325490.702095","Mapping"
"Blocked","m150","cave","11","m150cave.wav","None","728.789868765","113","318592.912272","325481.303401","326248.167873","327015.720243","313172.048346","313939.588968","314706.855358","315473.97613","319343.562142","320110.808127","320877.948067","321644.987219","322412.417468","323179.323368","323946.85286","324714.131307","326257.636439","Mapping"
"Blocked","m150","cave","11","m150cling.wav","space","532.755993772","113","318592.912272","325481.303401","326248.167873","327015.720243","327783.111846","313939.588968","314706.855358","315473.97613","319343.562142","320110.808127","320877.948067","321644.987219","322412.417468","323179.323368","323946.85286","324714.131307","327025.396569","Mapping"
"Blocked","m150","cave","11","m150ball.wav","None","725.591530325","113","318592.912272","325481.303401","326248.167873","327015.720243","327783.111846","328549.979719","314706.855358","315473.97613","319343.562142","320110.808127","320877.948067","321644.987219","322412.417468","323179.323368","323946.85286","324714.131307","327792.88927","Mapping"
"Blocked","m150","cave","11","m150cave.wav","None","725.910900394","113","318592.912272","325481.303401","326248.167873","327015.720243","327783.111846","328549.979719","329317.325874","315473.97613","319343.562142","320110.808127","320877.948067","321644.987219","322412.417468","323179.323368","323946.85286","324714.131307","328559.196004","Mapping"
"Blocked","m150","cave","11","m150park.wav","space","535.42689234","113","318592.912272","325481.303401","326248.167873","327015.720243","327783.111846","328549.979719","329317.325874","330084.63091","319343.562142","320110.808127","320877.948067","321644.987219","322412.417468","323179.323368","323946.85286","324714.131307","329326.641402","Mapping"
"Blocked","m150","ball","4","m150cave.wav","None","722.282818984","113","333203.693192","325481.303401","326248.167873","327015.720243","327783.111846","328549.979719","329317.325874","330084.63091","319343.562142","320110.808127","320877.948067","321644.987219","322412.417468","323179.323368","323946.85286","324714.131307","330094.478515","Mapping"
"Blocked","m150","ball","4","m150ball.wav","None","721.439100802","113","333203.693192","325481.303401","326248.167873","327015.720243","327783.111846","328549.979719","329317.325874","330084.63091","333970.994518","320110.808127","320877.948067","321644.987219","322412.417468","323179.323368","323946.85286","324714.131307","333213.226992","Mapping"
"Blocked","m150","ball","4","m150greet.wav","space","689.234043472","113","333203.693192","325481.303401","326248.167873","327015.720243","327783.111846","328549.979719","329317.325874","330084.63091","333970.994518","334721.05697","320877.948067","321644.987219","322412.417468","323179.323368","323946.85286","324714.131307","333980.647966","Mapping"
"Blocked","m150","ball","4","m150dime.wav","None","736.31686205","113","333203.693192","325481.303401","326248.167873","327015.720243","327783.111846","328549.979719","329317.325874","330084.63091","333970.994518","334721.05697","335488.879243","321644.987219","322412.417468","323179.323368","323946.85286","324714.131307","334730.216986","Mapping"
"Blocked","m150","ball","4","m150dime.wav","None","734.809979331","113","333203.693192","325481.303401","326248.167873","327015.720243","327783.111846","328549.979719","329317.325874","330084.63091","333970.994518","334721.05697","335488.879243","336255.606135","322412.417468","323179.323368","323946.85286","324714.131307","335498.393875","Mapping"
"Blocked","m150","ball","4","m150ball.wav","None","734.747218434","113","333203.693192","325481.303401","326248.167873","327015.720243","327783.111846","328549.979719","329317.325874","330084.63091","333970.994518","334721.05697","335488.879243","336255.606135","337022.917664","323179.323368","323946.85286","324714.131307","336265.187857","Mapping"
"Blocked","m150","ball","4","m150cad.wav","space","588.866195874","113","333203.693192","325481.303401","326248.167873","327015.720243","327783.111846","328549.979719","329317.325874","330084.63091","333970.994518","334721.05697","335488.879243","336255.606135","337022.917664","337790.230738","323946.85286","324714.131307","337032.921708","Mapping"
"Blocked","m150","ball","4","m150priest.wav","None","732.29397391","113","333203.693192","325481.303401","326248.167873","327015.720243","327783.111846","328549.979719","329317.325874","330084.63091","333970.994518","334721.05697","335488.879243","336255.606135","337022.917664","337790.230738","338557.50733","324714.131307","337799.884495","Mapping"
"Blocked","m150","ball","4","m150done.wav","None","732.213590294","113","333203.693192","325481.303401","326248.167873","327015.720243","327783.111846","328549.979719","329317.325874","330084.63091","333970.994518","334721.05697","335488.879243","336255.606135","337022.917664","337790.230738","338557.50733","339324.795362","338567.084105","Mapping"
"Blocked","m150","ball","4","m150park.wav","None","731.551353354","113","333203.693192","340091.689205","326248.167873","327015.720243","327783.111846","328549.979719","329317.325874","330084.63091","333970.994518","334721.05697","335488.879243","336255.606135","337022.917664","337790.230738","338557.50733","339324.795362","339334.462104","Mapping"
"Blocked","m150","ball","4","m150ball.wav","None","731.450255495","113","333203.693192","340091.689205","340859.234155","327015.720243","327783.111846","328549.979719","329317.325874","330084.63091","333970.994518","334721.05697","335488.879243","336255.606135","337022.917664","337790.230738","338557.50733","339324.795362","340101.341416","Mapping"
"Blocked","m150","ball","4","m150cad.wav","space","520.866955165","113","333203.693192","340091.689205","340859.234155","341626.12336","327783.111846","328549.979719","329317.325874","330084.63091","333970.994518","334721.05697","335488.879243","336255.606135","337022.917664","337790.230738","338557.50733","339324.795362","340868.788051","Mapping"
"Blocked","m150","ball","4","m150park.wav","None","729.432628024","113","333203.693192","340091.689205","340859.234155","341626.12336","342393.83557","328549.979719","329317.325874","330084.63091","333970.994518","334721.05697","335488.879243","336255.606135","337022.917664","337790.230738","338557.50733","339324.795362","341635.272556","Mapping"
"Blocked","m150","ball","4","m150park.wav","None","728.094241582","113","333203.693192","340091.689205","340859.234155","341626.12336","342393.83557","343160.79743","329317.325874","330084.63091","333970.994518","334721.05697","335488.879243","336255.606135","337022.917664","337790.230738","338557.50733","339324.795362","342403.447589","Mapping"
"Blocked","m150","ball","4","m150ball.wav","None","728.519347031","113","333203.693192","340091.689205","340859.234155","341626.12336","342393.83557","343160.79743","343927.860697","330084.63091","333970.994518","334721.05697","335488.879243","336255.606135","337022.917664","337790.230738","338557.50733","339324.795362","343170.228586","Mapping"
"Blocked","m150","ball","4","m150priest.wav","space","580.072542885","113","333203.693192","340091.689205","340859.234155","341626.12336","342393.83557","343160.79743","343927.860697","344695.312896","333970.994518","334721.05697","335488.879243","336255.606135","337022.917664","337790.230738","338557.50733","339324.795362","343937.474262","Mapping"
"Blocked","m150","done","21","m150knife.wav","None","726.328894962","113","347830.895547","340091.689205","340859.234155","341626.12336","342393.83557","343160.79743","343927.860697","344695.312896","333970.994518","334721.05697","335488.879243","336255.606135","337022.917664","337790.230738","338557.50733","339324.795362","344704.817635","Mapping"
"Blocked","m150","done","21","m150done.wav","None","720.781501383","113","347830.895547","340091.689205","340859.234155","341626.12336","342393.83557","343160.79743","343927.860697","344695.312896","348598.335998","334721.05697","335488.879243","336255.606135","337022.917664","337790.230738","338557.50733","339324.795362","347840.530445","Mapping"
"Blocked","m150","done","21","m150reek.wav","None","720.596619183","113","347830.895547","340091.689205","340859.234155","341626.12336","342393.83557","343160.79743","343927.860697","344695.312896","348598.335998","349348.958662","335488.879243","336255.606135","337022.917664","337790.230738","338557.50733","339324.795362","348607.563104","Mapping"
"Blocked","m150","done","21","m150done.wav","space","102.707318496","113","347830.895547","340091.689205","340859.234155","341626.12336","342393.83557","343160.79743","343927.860697","344695.312896","348598.335998","349348.958662","350115.533135","336255.606135","337022.917664","337790.230738","338557.50733","339324.795362","349358.658176","Mapping"
"Blocked","m150","done","21","m150tile.wav","space","624.376872787","113","347830.895547","340091.689205","340859.234155","341626.12336","342393.83557","343160.79743","343927.860697","344695.312896","348598.335998","349348.958662","350115.533135","350883.007594","337022.917664","337790.230738","338557.50733","339324.795362","350124.924409","Mapping"
"Blocked","m150","done","21","m150priest.wav","None","732.831306988","113","347830.895547","340091.689205","340859.234155","341626.12336","342393.83557","343160.79743","343927.860697","344695.312896","348598.335998","349348.958662","350115.533135","350883.007594","351650.396724","337790.230738","338557.50733","339324.795362","350892.413399","Mapping"
"Blocked","m150","done","21","m150done.wav","None","732.121767476","113","347830.895547","340091.689205","340859.234155","341626.12336","342393.83557","343160.79743","343927.860697","344695.312896","348598.335998","349348.958662","350115.533135","350883.007594","351650.396724","352418.310511","338557.50733","339324.795362","351659.88755","Mapping"
"Blocked","m150","done","21","m150depth.wav","space","433.407780947","113","347830.895547","340091.689205","340859.234155","341626.12336","342393.83557","343160.79743","343927.860697","344695.312896","348598.335998","349348.958662","350115.533135","350883.007594","351650.396724","352418.310511","353184.782958","339324.795362","352427.826379","Mapping"
"Blocked","m150","done","21","m150done.wav","None","729.558150284","113","347830.895547","340091.689205","340859.234155","341626.12336","342393.83557","343160.79743","343927.860697","344695.312896","348598.335998","349348.958662","350115.533135","350883.007594","351650.396724","352418.310511","353184.782958","353951.953815","353194.423112","Mapping"
"Blocked","m150","done","21","m150greet.wav","space","715.309853898","113","347830.895547","354718.699876","340859.234155","341626.12336","342393.83557","343160.79743","343927.860697","344695.312896","348598.335998","349348.958662","350115.533135","350883.007594","351650.396724","352418.310511","353184.782958","353951.953815","353961.811623","Mapping"
"Blocked","m150","done","21","m150park.wav","None","729.989129817","113","347830.895547","354718.699876","355486.705177","341626.12336","342393.83557","343160.79743","343927.860697","344695.312896","348598.335998","349348.958662","350115.533135","350883.007594","351650.396724","352418.310511","353184.782958","353951.953815","354727.935639","Mapping"
"Blocked","m150","done","21","m150bluff.wav","None","728.4692619","113","347830.895547","354718.699876","355486.705177","356253.230183","342393.83557","343160.79743","343927.860697","344695.312896","348598.335998","349348.958662","350115.533135","350883.007594","351650.396724","352418.310511","353184.782958","353951.953815","355496.194148","Mapping"
"Blocked","m150","done","21","m150tile.wav","None","728.746894514","113","347830.895547","354718.699876","355486.705177","356253.230183","357020.921369","343160.79743","343927.860697","344695.312896","348598.335998","349348.958662","350115.533135","350883.007594","351650.396724","352418.310511","353184.782958","353951.953815","356262.769548","Mapping"
"Blocked","m150","done","21","m150jolt.wav","None","728.158239275","113","347830.895547","354718.699876","355486.705177","356253.230183","357020.921369","357788.333686","343927.860697","344695.312896","348598.335998","349348.958662","350115.533135","350883.007594","351650.396724","352418.310511","353184.782958","353951.953815","357030.461352","Mapping"
"Blocked","m150","done","21","m150cad.wav","None","727.564019384","113","347830.895547","354718.699876","355486.705177","356253.230183","357020.921369","357788.333686","358555.397571","344695.312896","348598.335998","349348.958662","350115.533135","350883.007594","351650.396724","352418.310511","353184.782958","353951.953815","357797.676111","Mapping"
"Blocked","m150","done","21","m150reek.wav","None","726.945065893","113","347830.895547","354718.699876","355486.705177","356253.230183","357020.921369","357788.333686","358555.397571","359322.196499","348598.335998","349348.958662","350115.533135","350883.007594","351650.396724","352418.310511","353184.782958","353951.953815","358565.144388","Mapping"
"Blocked","m150","tile","17","m150cave.wav","None","727.57174843","113","362458.066676","354718.699876","355486.705177","356253.230183","357020.921369","357788.333686","358555.397571","359322.196499","348598.335998","349348.958662","350115.533135","350883.007594","351650.396724","352418.310511","353184.782958","353951.953815","359331.330546","Mapping"
"Blocked","m150","tile","17","m150romp.wav","None","721.267821966","113","362458.066676","354718.699876","355486.705177","356253.230183","357020.921369","357788.333686","358555.397571","359322.196499","363225.459207","349348.958662","350115.533135","350883.007594","351650.396724","352418.310511","353184.782958","353951.953815","362467.502161","Mapping"
"Blocked","m150","tile","17","m150jaw.wav","None","720.465532038","113","362458.066676","354718.699876","355486.705177","356253.230183","357020.921369","357788.333686","358555.397571","359322.196499","363225.459207","363992.413956","350115.533135","350883.007594","351650.396724","352418.310511","353184.782958","353951.953815","363235.213752","Mapping"
"Blocked","m150","tile","17","m150done.wav","None","721.29564709","113","362458.066676","354718.699876","355486.705177","356253.230183","357020.921369","357788.333686","358555.397571","359322.196499","363225.459207","363992.413956","364759.707861","350883.007594","351650.396724","352418.310511","353184.782958","353951.953815","364001.502864","Mapping"
"Blocked","m150","tile","17","m150lash.wav","None","720.507269725","113","362458.066676","354718.699876","355486.705177","356253.230183","357020.921369","357788.333686","358555.397571","359322.196499","363225.459207","363992.413956","364759.707861","365510.463776","351650.396724","352418.310511","353184.782958","353951.953815","364769.355744","Mapping"
"Blocked","m150","tile","17","m150tile.wav","None","737.308980897","113","362458.066676","354718.699876","355486.705177","356253.230183","357020.921369","357788.333686","358555.397571","359322.196499","363225.459207","363992.413956","364759.707861","365510.463776","366294.320097","352418.310511","353184.782958","353951.953815","365519.407994","Mapping"
"Blocked","m150","tile","17","m150cave.wav","space","516.812531976","113","362458.066676","354718.699876","355486.705177","356253.230183","357020.921369","357788.333686","358555.397571","359322.196499","363225.459207","363992.413956","364759.707861","365510.463776","366294.320097","367044.763134","353184.782958","353951.953815","366303.910784","Mapping"
"Blocked","m150","tile","17","m150tile.wav","None","735.00228161","113","362458.066676","354718.699876","355486.705177","356253.230183","357020.921369","357788.333686","358555.397571","359322.196499","363225.459207","363992.413956","364759.707861","365510.463776","366294.320097","367044.763134","367811.983458","353951.953815","367054.558799","Mapping"
"Blocked","m150","tile","17","m150greet.wav","space","590.958332876","113","362458.066676","354718.699876","355486.705177","356253.230183","357020.921369","357788.333686","358555.397571","359322.196499","363225.459207","363992.413956","364759.707861","365510.463776","366294.320097","367044.763134","367811.983458","368578.902344","367821.704923","Mapping"
"Blocked","m150","tile","17","m150reek.wav","None","733.133982169","113","362458.066676","369346.255301","355486.705177","356253.230183","357020.921369","357788.333686","358555.397571","359322.196499","363225.459207","363992.413956","364759.707861","365510.463776","366294.320097","367044.763134","367811.983458","368578.902344","368588.672966","Mapping"
"Blocked","m150","tile","17","m150jaw.wav","None","733.236625558","113","362458.066676","369346.255301","370113.500976","356253.230183","357020.921369","357788.333686","358555.397571","359322.196499","363225.459207","363992.413956","364759.707861","365510.463776","366294.320097","367044.763134","367811.983458","368578.902344","369355.658014","Mapping"
"Blocked","m150","tile","17","m150tile.wav","None","733.61751996","113","362458.066676","369346.255301","370113.500976","370880.908347","357020.921369","357788.333686","358555.397571","359322.196499","363225.459207","363992.413956","364759.707861","365510.463776","366294.320097","367044.763134","367811.983458","368578.902344","370122.502081","Mapping"
