"Condition","Talker","Target","Trial","current_stimulus","response_response","response_time_response","subject_nr","time_Audio1","time_Audio10","time_Audio11","time_Audio12","time_Audio13","time_Audio14","time_Audio15","time_Audio16","time_Audio2","time_Audio3","time_Audio4","time_Audio5","time_Audio6","time_Audio7","time_Audio8","time_Audio9","time_response","title"
"Mixed","Both","tile","32","m160depth.wav","NA","NA","127","309836.240849","NA","NA","NA","NA","NA","NA","NA","NA","NA","NA","NA","NA","NA","NA","NA","NA","Mapping"
"Mixed","Both","tile","32","m160lash.wav","None","723.59977779","127","309836.240849","NA","NA","NA","NA","NA","NA","NA","310603.140952","NA","NA","NA","NA","NA","NA","NA","309849.211593","Mapping"
"Mixed","Both","tile","32","m150jaw.wav","None","731.544910464","127","309836.240849","NA","NA","NA","NA","NA","NA","NA","310603.140952","311369.243388","NA","NA","NA","NA","NA","NA","310612.220751","Mapping"
"Mixed","Both","tile","32","m150cling.wav","None","736.362447497","127","309836.240849","NA","NA","NA","NA","NA","NA","NA","310603.140952","311369.243388","312153.031768","NA","NA","NA","NA","NA","311378.35565","Mapping"
"Mixed","Both","tile","32","m160tile.wav","None","722.843849333","127","309836.240849","NA","NA","NA","NA","NA","NA","NA","310603.140952","311369.243388","312153.031768","312919.585906","NA","NA","NA","NA","312162.918508","Mapping"
"Mixed","Both","tile","32","m160knife.wav","space","426.965715364","127","309836.240849","NA","NA","NA","NA","NA","NA","NA","310603.140952","311369.243388","312153.031768","312919.585906","313686.42943","NA","NA","NA","312929.27694","Mapping"
"Mixed","Both","tile","32","m150dime.wav","None","732.106368989","127","309836.240849","NA","NA","NA","NA","NA","NA","NA","310603.140952","311369.243388","312153.031768","312919.585906","313686.42943","314469.994895","NA","NA","313695.611565","Mapping"
"Mixed","Both","tile","32","m160tile.wav","None","719.255894423","127","309836.240849","NA","NA","NA","NA","NA","NA","NA","310603.140952","311369.243388","312153.031768","312919.585906","313686.42943","314469.994895","315236.55027","NA","314479.627496","Mapping"
"Mixed","Both","tile","32","m160ball.wav","space","534.02281017","127","309836.240849","NA","NA","NA","NA","NA","NA","NA","310603.140952","311369.243388","312153.031768","312919.585906","313686.42943","314469.994895","315236.55027","316002.78225","315246.169885","Mapping"
"Mixed","Both","tile","32","m150tile.wav","None","725.307959598","127","309836.240849","316769.594547","NA","NA","NA","NA","NA","NA","310603.140952","311369.243388","312153.031768","312919.585906","313686.42943","314469.994895","315236.55027","316002.78225","316012.014471","Mapping"
"Mixed","Both","tile","32","m160greet.wav","space","553.02861426","127","309836.240849","316769.594547","317536.059643","NA","NA","NA","NA","NA","310603.140952","311369.243388","312153.031768","312919.585906","313686.42943","314469.994895","315236.55027","316002.78225","316779.142434","Mapping"
"Mixed","Both","tile","32","m150tile.wav","None","733.891844284","127","309836.240849","316769.594547","317536.059643","318302.784136","NA","NA","NA","NA","310603.140952","311369.243388","312153.031768","312919.585906","313686.42943","314469.994895","315236.55027","316002.78225","317545.13635","Mapping"
"Mixed","Both","tile","32","m150dime.wav","space","444.158218801","127","309836.240849","316769.594547","317536.059643","318302.784136","319069.849955","NA","NA","NA","310603.140952","311369.243388","312153.031768","312919.585906","313686.42943","314469.994895","315236.55027","316002.78225","318311.970599","Mapping"
"Mixed","Both","tile","32","m150reek.wav","None","735.493670916","127","309836.240849","316769.594547","317536.059643","318302.784136","319069.849955","319853.078422","NA","NA","310603.140952","311369.243388","312153.031768","312919.585906","313686.42943","314469.994895","315236.55027","316002.78225","319079.208009","Mapping"
"Mixed","Both","tile","32","m160gnash.wav","None","722.642886685","127","309836.240849","316769.594547","317536.059643","318302.784136","319069.849955","319853.078422","320619.324314","NA","310603.140952","311369.243388","312153.031768","312919.585906","313686.42943","314469.994895","315236.55027","316002.78225","319863.053586","Mapping"
"Mixed","Both","tile","32","m150bluff.wav","None","728.39629068","127","309836.240849","316769.594547","317536.059643","318302.784136","319069.849955","319853.078422","320619.324314","321386.161655","310603.140952","311369.243388","312153.031768","312919.585906","313686.42943","314469.994895","315236.55027","316002.78225","320628.220464","Mapping"
"Mixed","Both","done","41","m150knife.wav","None","732.503965963","127","324836.12089","316769.594547","317536.059643","318302.784136","319069.849955","319853.078422","320619.324314","321386.161655","310603.140952","311369.243388","312153.031768","312919.585906","313686.42943","314469.994895","315236.55027","316002.78225","321395.201879","Mapping"
"Mixed","Both","done","41","m160greet.wav","None","728.375885403","127","324836.12089","316769.594547","317536.059643","318302.784136","319069.849955","319853.078422","320619.324314","321386.161655","325602.732844","311369.243388","312153.031768","312919.585906","313686.42943","314469.994895","315236.55027","316002.78225","324845.857373","Mapping"
"Mixed","Both","done","41","m160lash.wav","None","730.071700411","127","324836.12089","316769.594547","317536.059643","318302.784136","319069.849955","319853.078422","320619.324314","321386.161655","325602.732844","326369.418071","312153.031768","312919.585906","313686.42943","314469.994895","315236.55027","316002.78225","325611.799038","Mapping"
"Mixed","Both","done","41","m150done.wav","None","731.010040967","127","324836.12089","316769.594547","317536.059643","318302.784136","319069.849955","319853.078422","320619.324314","321386.161655","325602.732844","326369.418071","327136.202852","312919.585906","313686.42943","314469.994895","315236.55027","316002.78225","326378.500961","Mapping"
"Mixed","Both","done","41","m150tile.wav","space","346.795868129","127","324836.12089","316769.594547","317536.059643","318302.784136","319069.849955","319853.078422","320619.324314","321386.161655","325602.732844","326369.418071","327136.202852","327919.30765","313686.42943","314469.994895","315236.55027","316002.78225","327145.257608","Mapping"
"Mixed","Both","done","41","m150bluff.wav","None","719.697084511","127","324836.12089","316769.594547","317536.059643","318302.784136","319069.849955","319853.078422","320619.324314","321386.161655","325602.732844","326369.418071","327136.202852","327919.30765","328686.330494","314469.994895","315236.55027","316002.78225","327928.703114","Mapping"
"Mixed","Both","done","41","m150done.wav","None","720.622749068","127","324836.12089","316769.594547","317536.059643","318302.784136","319069.849955","319853.078422","320619.324314","321386.161655","325602.732844","326369.418071","327136.202852","327919.30765","328686.330494","329453.042311","315236.55027","316002.78225","328695.745436","Mapping"
"Mixed","Both","done","41","m160reek.wav","space","517.637867248","127","324836.12089","316769.594547","317536.059643","318302.784136","319069.849955","319853.078422","320619.324314","321386.161655","325602.732844","326369.418071","327136.202852","327919.30765","328686.330494","329453.042311","330219.487929","316002.78225","329462.318434","Mapping"
"Mixed","Both","done","41","m160done.wav","None","725.980411517","127","324836.12089","316769.594547","317536.059643","318302.784136","319069.849955","319853.078422","320619.324314","321386.161655","325602.732844","326369.418071","327136.202852","327919.30765","328686.330494","329453.042311","330219.487929","330985.858109","330228.842582","Mapping"
"Mixed","Both","done","41","m150lash.wav","space","417.350119911","127","324836.12089","331752.483047","317536.059643","318302.784136","319069.849955","319853.078422","320619.324314","321386.161655","325602.732844","326369.418071","327136.202852","327919.30765","328686.330494","329453.042311","330219.487929","330985.858109","330994.577411","Mapping"
"Mixed","Both","done","41","m150cling.wav","None","734.868522501","127","324836.12089","331752.483047","332519.332445","318302.784136","319069.849955","319853.078422","320619.324314","321386.161655","325602.732844","326369.418071","327136.202852","327919.30765","328686.330494","329453.042311","330219.487929","330985.858109","331762.025369","Mapping"
"Mixed","Both","done","41","m160priest.wav","None","736.048945924","127","324836.12089","331752.483047","332519.332445","333303.064865","319069.849955","319853.078422","320619.324314","321386.161655","325602.732844","326369.418071","327136.202852","327919.30765","328686.330494","329453.042311","330219.487929","330985.858109","332528.444089","Mapping"
"Mixed","Both","done","41","m150gnash.wav","None","722.446252592","127","324836.12089","331752.483047","332519.332445","333303.064865","334069.017042","319853.078422","320619.324314","321386.161655","325602.732844","326369.418071","327136.202852","327919.30765","328686.330494","329453.042311","330219.487929","330985.858109","333313.153495","Mapping"
"Mixed","Both","done","41","m160done.wav","None","729.000724386","127","324836.12089","331752.483047","332519.332445","333303.064865","334069.017042","334835.914363","320619.324314","321386.161655","325602.732844","326369.418071","327136.202852","327919.30765","328686.330494","329453.042311","330219.487929","330985.858109","334077.868362","Mapping"
"Mixed","Both","done","41","m160reek.wav","space","366.972201969","127","324836.12089","331752.483047","332519.332445","333303.064865","334069.017042","334835.914363","335602.722332","321386.161655","325602.732844","326369.418071","327136.202852","327919.30765","328686.330494","329453.042311","330219.487929","330985.858109","334844.881313","Mapping"
"Mixed","Both","done","41","m160greet.wav","None","730.121786473","127","324836.12089","331752.483047","332519.332445","333303.064865","334069.017042","334835.914363","335602.722332","336369.251427","325602.732844","326369.418071","327136.202852","327919.30765","328686.330494","329453.042311","330219.487929","330985.858109","335611.727001","Mapping"
"Mixed","Both","tile","33","m150jaw.wav","None","730.552464724","127","339502.484052","331752.483047","332519.332445","333303.064865","334069.017042","334835.914363","335602.722332","336369.251427","325602.732844","326369.418071","327136.202852","327919.30765","328686.330494","329453.042311","330219.487929","330985.858109","336378.824047","Mapping"
"Mixed","Both","tile","33","m150done.wav","None","725.272095529","127","339502.484052","331752.483047","332519.332445","333303.064865","334069.017042","334835.914363","335602.722332","336369.251427","340268.98223","326369.418071","327136.202852","327919.30765","328686.330494","329453.042311","330219.487929","330985.858109","339511.454094","Mapping"
"Mixed","Both","tile","33","m160tile.wav","None","726.649153046","127","339502.484052","331752.483047","332519.332445","333303.064865","334069.017042","334835.914363","335602.722332","336369.251427","340268.98223","341035.830082","327136.202852","327919.30765","328686.330494","329453.042311","330219.487929","330985.858109","340277.732449","Mapping"
"Mixed","Both","tile","33","m160reek.wav","space","438.91773303","127","339502.484052","331752.483047","332519.332445","333303.064865","334069.017042","334835.914363","335602.722332","336369.251427","340268.98223","341035.830082","341802.463059","327919.30765","328686.330494","329453.042311","330219.487929","330985.858109","341044.814346","Mapping"
"Mixed","Both","tile","33","m160tile.wav","None","727.708998835","127","339502.484052","331752.483047","332519.332445","333303.064865","334069.017042","334835.914363","335602.722332","336369.251427","340268.98223","341035.830082","341802.463059","342569.195899","328686.330494","329453.042311","330219.487929","330985.858109","341811.719086","Mapping"
"Mixed","Both","tile","33","m160knife.wav","space","577.03467668","127","339502.484052","331752.483047","332519.332445","333303.064865","334069.017042","334835.914363","335602.722332","336369.251427","340268.98223","341035.830082","341802.463059","342569.195899","343335.705825","329453.042311","330219.487929","330985.858109","342578.634648","Mapping"
"Mixed","Both","tile","33","m150tile.wav","None","729.892070638","127","339502.484052","331752.483047","332519.332445","333303.064865","334069.017042","334835.914363","335602.722332","336369.251427","340268.98223","341035.830082","341802.463059","342569.195899","343335.705825","344102.305103","330219.487929","330985.858109","343344.664737","Mapping"
"Mixed","Both","tile","33","m150cling.wav","space","484.459872823","127","339502.484052","331752.483047","332519.332445","333303.064865","334069.017042","334835.914363","335602.722332","336369.251427","340268.98223","341035.830082","341802.463059","342569.195899","343335.705825","344102.305103","344869.064222","330985.858109","344111.222894","Mapping"
"Mixed","Both","tile","33","m150tile.wav","None","731.220897054","127","339502.484052","331752.483047","332519.332445","333303.064865","334069.017042","334835.914363","335602.722332","336369.251427","340268.98223","341035.830082","341802.463059","342569.195899","343335.705825","344102.305103","344869.064222","345635.760889","344878.643645","Mapping"
"Mixed","Both","tile","33","m150bluff.wav","space","326.871819561","127","339502.484052","346402.506714","332519.332445","333303.064865","334069.017042","334835.914363","335602.722332","336369.251427","340268.98223","341035.830082","341802.463059","342569.195899","343335.705825","344102.305103","344869.064222","345635.760889","345644.78009","Mapping"
"Mixed","Both","tile","33","m160jaw.wav","None","733.489919221","127","339502.484052","346402.506714","347186.034152","333303.064865","334069.017042","334835.914363","335602.722332","336369.251427","340268.98223","341035.830082","341802.463059","342569.195899","343335.705825","344102.305103","344869.064222","345635.760889","346411.585276","Mapping"
"Mixed","Both","tile","33","m160depth.wav","None","720.956037752","127","339502.484052","346402.506714","347186.034152","347952.909521","334069.017042","334835.914363","335602.722332","336369.251427","340268.98223","341035.830082","341802.463059","342569.195899","343335.705825","344102.305103","344869.064222","345635.760889","347195.595333","Mapping"
"Mixed","Both","tile","33","m150park.wav","None","721.69712605","127","339502.484052","346402.506714","347186.034152","347952.909521","348718.770492","334835.914363","335602.722332","336369.251427","340268.98223","341035.830082","341802.463059","342569.195899","343335.705825","344102.305103","344869.064222","345635.760889","347962.536247","Mapping"
"Mixed","Both","tile","33","m150greet.wav","None","727.935313713","127","339502.484052","346402.506714","347186.034152","347952.909521","348718.770492","349485.554346","335602.722332","336369.251427","340268.98223","341035.830082","341802.463059","342569.195899","343335.705825","344102.305103","344869.064222","345635.760889","348727.575127","Mapping"
"Mixed","Both","tile","33","m160jaw.wav","None","732.047626283","127","339502.484052","346402.506714","347186.034152","347952.909521","348718.770492","349485.554346","350252.507317","336369.251427","340268.98223","341035.830082","341802.463059","342569.195899","343335.705825","344102.305103","344869.064222","345635.760889","349494.581585","Mapping"
"Mixed","Both","tile","33","m160greet.wav","None","733.360066544","127","339502.484052","346402.506714","347186.034152","347952.909521","348718.770492","349485.554346","350252.507317","351018.696631","340268.98223","341035.830082","341802.463059","342569.195899","343335.705825","344102.305103","344869.064222","345635.760889","350261.476432","Mapping"
"Mixed","Both","done","48","m150ball.wav","None","740.833400982","127","354152.223898","346402.506714","347186.034152","347952.909521","348718.770492","349485.554346","350252.507317","351018.696631","340268.98223","341035.830082","341802.463059","342569.195899","343335.705825","344102.305103","344869.064222","345635.760889","351022.072184","Mapping"
"Mixed","Both","done","48","m160romp.wav","None","728.801307734","127","354152.223898","346402.506714","347186.034152","347952.909521","348718.770492","349485.554346","350252.507317","351018.696631","354919.00095","341035.830082","341802.463059","342569.195899","343335.705825","344102.305103","344869.064222","345635.760889","354161.54918","Mapping"
"Mixed","Both","done","48","m150done.wav","None","732.878993033","127","354152.223898","346402.506714","347186.034152","347952.909521","348718.770492","349485.554346","350252.507317","351018.696631","354919.00095","355685.466664","341802.463059","342569.195899","343335.705825","344102.305103","344869.064222","345635.760889","354928.474326","Mapping"
"Mixed","Both","done","48","m150cave.wav","space","429.036248475","127","354152.223898","346402.506714","347186.034152","347952.909521","348718.770492","349485.554346","350252.507317","351018.696631","354919.00095","355685.466664","356469.370675","342569.195899","343335.705825","344102.305103","344869.064222","345635.760889","355694.451238","Mapping"
"Mixed","Both","done","48","m160depth.wav","None","721.286543878","127","354152.223898","346402.506714","347186.034152","347952.909521","348718.770492","349485.554346","350252.507317","351018.696631","354919.00095","355685.466664","356469.370675","357235.899151","343335.705825","344102.305103","344869.064222","345635.760889","356478.837867","Mapping"
"Mixed","Both","done","48","m150cave.wav","None","722.55848255","127","354152.223898","346402.506714","347186.034152","347952.909521","348718.770492","349485.554346","350252.507317","351018.696631","354919.00095","355685.466664","356469.370675","357235.899151","358002.350953","344102.305103","344869.064222","345635.760889","357245.361088","Mapping"
"Mixed","Both","done","48","m160tile.wav","None","723.633786896","127","354152.223898","346402.506714","347186.034152","347952.909521","348718.770492","349485.554346","350252.507317","351018.696631","354919.00095","355685.466664","356469.370675","357235.899151","358002.350953","358768.677849","344869.064222","345635.760889","358011.826184","Mapping"
"Mixed","Both","done","48","m150done.wav","None","725.877456833","127","354152.223898","346402.506714","347186.034152","347952.909521","348718.770492","349485.554346","350252.507317","351018.696631","354919.00095","355685.466664","356469.370675","357235.899151","358002.350953","358768.677849","359535.437278","345635.760889","358777.494231","Mapping"
"Mixed","Both","done","48","m150jolt.wav","space","482.931320556","127","354152.223898","346402.506714","347186.034152","347952.909521","348718.770492","349485.554346","350252.507317","351018.696631","354919.00095","355685.466664","356469.370675","357235.899151","358002.350953","358768.677849","359535.437278","360302.321612","359544.460497","Mapping"
"Mixed","Both","done","48","m160done.wav","None","730.637796456","127","354152.223898","361068.797839","347186.034152","347952.909521","348718.770492","349485.554346","350252.507317","351018.696631","354919.00095","355685.466664","356469.370675","357235.899151","358002.350953","358768.677849","359535.437278","360302.321612","360311.899489","Mapping"
"Mixed","Both","done","48","m160dime.wav","space","509.458071785","127","354152.223898","361068.797839","361852.579107","347952.909521","348718.770492","349485.554346","350252.507317","351018.696631","354919.00095","355685.466664","356469.370675","357235.899151","358002.350953","358768.677849","359535.437278","360302.321612","361077.880729","Mapping"
"Mixed","Both","done","48","m160done.wav","None","719.403060852","127","354152.223898","361068.797839","361852.579107","362618.998755","348718.770492","349485.554346","350252.507317","351018.696631","354919.00095","355685.466664","356469.370675","357235.899151","358002.350953","358768.677849","359535.437278","360302.321612","361862.262721","Mapping"
"Mixed","Both","done","48","m150gnash.wav","space","567.145771813","127","354152.223898","361068.797839","361852.579107","362618.998755","363385.761275","349485.554346","350252.507317","351018.696631","354919.00095","355685.466664","356469.370675","357235.899151","358002.350953","358768.677849","359535.437278","360302.321612","362628.200058","Mapping"
"Mixed","Both","done","48","m160priest.wav","None","721.557998098","127","354152.223898","361068.797839","361852.579107","362618.998755","363385.761275","364152.59707","350252.507317","351018.696631","354919.00095","355685.466664","356469.370675","357235.899151","358002.350953","358768.677849","359535.437278","360302.321612","363395.274226","Mapping"
"Mixed","Both","done","48","m160bluff.wav","None","722.562192474","127","354152.223898","361068.797839","361852.579107","362618.998755","363385.761275","364152.59707","364918.720221","351018.696631","354919.00095","355685.466664","356469.370675","357235.899151","358002.350953","358768.677849","359535.437278","360302.321612","364162.037055","Mapping"
"Mixed","Both","done","48","m150romp.wav","None","727.992819855","127","354152.223898","361068.797839","361852.579107","362618.998755","363385.761275","364152.59707","364918.720221","365685.362782","354919.00095","355685.466664","356469.370675","357235.899151","358002.350953","358768.677849","359535.437278","360302.321612","364927.957388","Mapping"
"Mixed","Both","cave","15","m160lash.wav","None","732.905891025","127","368819.382872","361068.797839","361852.579107","362618.998755","363385.761275","364152.59707","364918.720221","365685.362782","354919.00095","355685.466664","356469.370675","357235.899151","358002.350953","358768.677849","359535.437278","360302.321612","365694.343027","Mapping"
"Mixed","Both","cave","15","m150knife.wav","None","722.9409297","127","368819.382872","361068.797839","361852.579107","362618.998755","363385.761275","364152.59707","364918.720221","365685.362782","369585.1514","355685.466664","356469.370675","357235.899151","358002.350953","358768.677849","359535.437278","360302.321612","368829.380915","Mapping"
"Mixed","Both","cave","15","m150dime.wav","None","725.872200914","127","368819.382872","361068.797839","361852.579107","362618.998755","363385.761275","364152.59707","364918.720221","365685.362782","369585.1514","370352.09015","356469.370675","357235.899151","358002.350953","358768.677849","359535.437278","360302.321612","369594.0998","Mapping"
"Mixed","Both","cave","15","m150cave.wav","None","726.398413535","127","368819.382872","361068.797839","361852.579107","362618.998755","363385.761275","364152.59707","364918.720221","365685.362782","369585.1514","370352.09015","371118.698702","357235.899151","358002.350953","358768.677849","359535.437278","360302.321612","370361.088636","Mapping"
"Mixed","Both","cave","15","m150park.wav","space","363.13041579","127","368819.382872","361068.797839","361852.579107","362618.998755","363385.761275","364152.59707","364918.720221","365685.362782","369585.1514","370352.09015","371118.698702","371885.124842","358002.350953","358768.677849","359535.437278","360302.321612","371128.069123","Mapping"
"Mixed","Both","cave","15","m160cave.wav","None","728.492443683","127","368819.382872","361068.797839","361852.579107","362618.998755","363385.761275","364152.59707","364918.720221","365685.362782","369585.1514","370352.09015","371118.698702","371885.124842","372652.110586","358768.677849","359535.437278","360302.321612","371894.115908","Mapping"
"Mixed","Both","cave","15","m150ball.wav","space","349.487839267","127","368819.382872","361068.797839","361852.579107","362618.998755","363385.761275","364152.59707","364918.720221","365685.362782","369585.1514","370352.09015","371118.698702","371885.124842","372652.110586","373418.499007","359535.437278","360302.321612","372661.676096","Mapping"
"Mixed","Both","cave","15","m160tile.wav","None","734.784736531","127","368819.382872","361068.797839","361852.579107","362618.998755","363385.761275","364152.59707","364918.720221","365685.362782","369585.1514","370352.09015","371118.698702","371885.124842","372652.110586","373418.499007","374185.469911","360302.321612","373428.015049","Mapping"
"Mixed","Both","cave","15","m150cave.wav","None","736.011535861","127","368819.382872","361068.797839","361852.579107","362618.998755","363385.761275","364152.59707","364918.720221","365685.362782","369585.1514","370352.09015","371118.698702","371885.124842","372652.110586","373418.499007","374185.469911","374968.825757","374194.5831","Mapping"
"Mixed","Both","cave","15","m150jolt.wav","space","400.050642667","127","368819.382872","375735.655059","361852.579107","362618.998755","363385.761275","364152.59707","364918.720221","365685.362782","369585.1514","370352.09015","371118.698702","371885.124842","372652.110586","373418.499007","374185.469911","374968.825757","374979.07423","Mapping"
"Mixed","Both","cave","15","m160tile.wav","None","720.072420547","127","368819.382872","375735.655059","376502.381406","362618.998755","363385.761275","364152.59707","364918.720221","365685.362782","369585.1514","370352.09015","371118.698702","371885.124842","372652.110586","373418.499007","374185.469911","374968.825757","375745.621257","Mapping"
"Mixed","Both","cave","15","m160jaw.wav","None","721.761743072","127","368819.382872","375735.655059","376502.381406","377269.013147","363385.761275","364152.59707","364918.720221","365685.362782","369585.1514","370352.09015","371118.698702","371885.124842","372652.110586","373418.499007","374185.469911","374968.825757","376511.798204","Mapping"
"Mixed","Both","cave","15","m150priest.wav","None","722.936291946","127","368819.382872","375735.655059","376502.381406","377269.013147","378034.783531","364152.59707","364918.720221","365685.362782","369585.1514","370352.09015","371118.698702","371885.124842","372652.110586","373418.499007","374185.469911","374968.825757","377278.513112","Mapping"
"Mixed","Both","cave","15","m160cave.wav","None","729.677813826","127","368819.382872","375735.655059","376502.381406","377269.013147","378034.783531","378801.76711","364918.720221","365685.362782","369585.1514","370352.09015","371118.698702","371885.124842","372652.110586","373418.499007","374185.469911","374968.825757","378043.675352","Mapping"
"Mixed","Both","cave","15","m160ball.wav","space","383.624888724","127","368819.382872","375735.655059","376502.381406","377269.013147","378034.783531","378801.76711","379568.51139","365685.362782","369585.1514","370352.09015","371118.698702","371885.124842","372652.110586","373418.499007","374185.469911","374968.825757","378811.434338","Mapping"
"Mixed","Both","cave","15","m160jolt.wav","None","730.81959039","127","368819.382872","375735.655059","376502.381406","377269.013147","378034.783531","378801.76711","379568.51139","380335.131381","369585.1514","370352.09015","371118.698702","371885.124842","372652.110586","373418.499007","374185.469911","374968.825757","379577.947047","Mapping"
"Mixed","Both","done","43","m150cave.wav","None","735.935788369","127","383485.038027","375735.655059","376502.381406","377269.013147","378034.783531","378801.76711","379568.51139","380335.131381","369585.1514","370352.09015","371118.698702","371885.124842","372652.110586","373418.499007","374185.469911","374968.825757","380344.220146","Mapping"
"Mixed","Both","done","43","m160cling.wav","None","725.147498772","127","383485.038027","375735.655059","376502.381406","377269.013147","378034.783531","378801.76711","379568.51139","380335.131381","384251.535586","370352.09015","371118.698702","371885.124842","372652.110586","373418.499007","374185.469911","374968.825757","383494.016416","Mapping"
"Mixed","Both","done","43","m160done.wav","None","731.056107907","127","383485.038027","375735.655059","376502.381406","377269.013147","378034.783531","378801.76711","379568.51139","380335.131381","384251.535586","385018.959428","371118.698702","371885.124842","372652.110586","373418.499007","374185.469911","374968.825757","384260.464817","Mapping"
"Mixed","Both","done","43","m160bluff.wav","space","358.416142873","127","383485.038027","375735.655059","376502.381406","377269.013147","378034.783531","378801.76711","379568.51139","380335.131381","384251.535586","385018.959428","385785.084743","371885.124842","372652.110586","373418.499007","374185.469911","374968.825757","385028.552763","Mapping"
"Mixed","Both","done","43","m160cad.wav","None","732.375968248","127","383485.038027","375735.655059","376502.381406","377269.013147","378034.783531","378801.76711","379568.51139","380335.131381","384251.535586","385018.959428","385785.084743","386568.317229","372652.110586","373418.499007","374185.469911","374968.825757","385794.399822","Mapping"
"Mixed","Both","done","43","m160cling.wav","None","720.668506576","127","383485.038027","375735.655059","376502.381406","377269.013147","378034.783531","378801.76711","379568.51139","380335.131381","384251.535586","385018.959428","385785.084743","386568.317229","387335.348112","373418.499007","374185.469911","374968.825757","386577.623651","Mapping"
"Mixed","Both","done","43","m150gnash.wav","None","721.203067107","127","383485.038027","375735.655059","376502.381406","377269.013147","378034.783531","378801.76711","379568.51139","380335.131381","384251.535586","385018.959428","385785.084743","386568.317229","387335.348112","388101.619666","374185.469911","374968.825757","387344.759035","Mapping"
"Mixed","Both","done","43","m150done.wav","None","722.708431538","127","383485.038027","375735.655059","376502.381406","377269.013147","378034.783531","378801.76711","379568.51139","380335.131381","384251.535586","385018.959428","385785.084743","386568.317229","387335.348112","388101.619666","388868.576347","374968.825757","388111.08222","Mapping"
"Mixed","Both","done","43","m150reek.wav","space","333.181426395","127","383485.038027","375735.655059","376502.381406","377269.013147","378034.783531","378801.76711","379568.51139","380335.131381","384251.535586","385018.959428","385785.084743","386568.317229","387335.348112","388101.619666","388868.576347","389634.777409","388877.680261","Mapping"
"Mixed","Both","done","43","m150romp.wav","None","725.049800007","127","383485.038027","390401.541476","376502.381406","377269.013147","378034.783531","378801.76711","379568.51139","380335.131381","384251.535586","385018.959428","385785.084743","386568.317229","387335.348112","388101.619666","388868.576347","389634.777409","389643.85257","Mapping"
"Mixed","Both","done","43","m160gnash.wav","None","726.042555179","127","383485.038027","390401.541476","391168.004408","377269.013147","378034.783531","378801.76711","379568.51139","380335.131381","384251.535586","385018.959428","385785.084743","386568.317229","387335.348112","388101.619666","388868.576347","389634.777409","390410.727012","Mapping"
"Mixed","Both","done","43","m160done.wav","None","728.148642927","127","383485.038027","390401.541476","391168.004408","391934.816396","378034.783531","378801.76711","379568.51139","380335.131381","384251.535586","385018.959428","385785.084743","386568.317229","387335.348112","388101.619666","388868.576347","389634.777409","391176.816771","Mapping"
"Mixed","Both","done","43","m150reek.wav","space","507.026424864","127","383485.038027","390401.541476","391168.004408","391934.816396","392701.683417","378801.76711","379568.51139","380335.131381","384251.535586","385018.959428","385785.084743","386568.317229","387335.348112","388101.619666","388868.576347","389634.777409","391943.774689","Mapping"
"Mixed","Both","done","43","m150done.wav","None","729.830236174","127","383485.038027","390401.541476","391168.004408","391934.816396","392701.683417","393468.310829","379568.51139","380335.131381","384251.535586","385018.959428","385785.084743","386568.317229","387335.348112","388101.619666","388868.576347","389634.777409","392710.89616","Mapping"
"Mixed","Both","done","43","m160depth.wav","space","437.113707419","127","383485.038027","390401.541476","391168.004408","391934.816396","392701.683417","393468.310829","394234.777162","380335.131381","384251.535586","385018.959428","385785.084743","386568.317229","387335.348112","388101.619666","388868.576347","389634.777409","393477.662082","Mapping"
"Mixed","Both","done","43","m150gnash.wav","None","731.79997853","127","383485.038027","390401.541476","391168.004408","391934.816396","392701.683417","393468.310829","394234.777162","395001.672936","384251.535586","385018.959428","385785.084743","386568.317229","387335.348112","388101.619666","388868.576347","389634.777409","394244.092241","Mapping"
"Mixed","Both","ball","10","m150park.wav","None","733.095105272","127","398134.726241","390401.541476","391168.004408","391934.816396","392701.683417","393468.310829","394234.777162","395001.672936","384251.535586","385018.959428","385785.084743","386568.317229","387335.348112","388101.619666","388868.576347","389634.777409","395010.744696","Mapping"
"Mixed","Both","ball","10","m150jolt.wav","None","724.57769257","127","398134.726241","390401.541476","391168.004408","391934.816396","392701.683417","393468.310829","394234.777162","395001.672936","398901.635619","385018.959428","385785.084743","386568.317229","387335.348112","388101.619666","388868.576347","389634.777409","398144.381102","Mapping"
"Mixed","Both","ball","10","m160knife.wav","None","726.155712502","127","398134.726241","390401.541476","391168.004408","391934.816396","392701.683417","393468.310829","394234.777162","395001.672936","398901.635619","399668.221911","385785.084743","386568.317229","387335.348112","388101.619666","388868.576347","389634.777409","398910.715727","Mapping"
"Mixed","Both","ball","10","m160park.wav","None","727.294706507","127","398134.726241","390401.541476","391168.004408","391934.816396","392701.683417","393468.310829","394234.777162","395001.672936","398901.635619","399668.221911","400434.671548","386568.317229","387335.348112","388101.619666","388868.576347","389634.777409","399677.636544","Mapping"
"Mixed","Both","ball","10","m150reek.wav","None","732.607229613","127","398134.726241","390401.541476","391168.004408","391934.816396","392701.683417","393468.310829","394234.777162","395001.672936","398901.635619","399668.221911","400434.671548","401201.244236","387335.348112","388101.619666","388868.576347","389634.777409","400443.70157","Mapping"
"Mixed","Both","ball","10","m160cave.wav","None","734.203800093","127","398134.726241","390401.541476","391168.004408","391934.816396","392701.683417","393468.310829","394234.777162","395001.672936","398901.635619","399668.221911","400434.671548","401201.244236","401967.678724","388101.619666","388868.576347","389634.777409","401210.450178","Mapping"
"Mixed","Both","ball","10","m160ball.wav","None","736.210334115","127","398134.726241","390401.541476","391168.004408","391934.816396","392701.683417","393468.310829","394234.777162","395001.672936","398901.635619","399668.221911","400434.671548","401201.244236","401967.678724","402751.95096","388868.576347","389634.777409","401976.525716","Mapping"
"Mixed","Both","ball","10","m150jolt.wav","space","369.243388297","127","398134.726241","390401.541476","391168.004408","391934.816396","392701.683417","393468.310829","394234.777162","395001.672936","398901.635619","399668.221911","400434.671548","401201.244236","401967.678724","402751.95096","403518.028353","389634.777409","402761.371467","Mapping"
"Mixed","Both","ball","10","m150jaw.wav","None","721.300765872","127","398134.726241","390401.541476","391168.004408","391934.816396","392701.683417","393468.310829","394234.777162","395001.672936","398901.635619","399668.221911","400434.671548","401201.244236","401967.678724","402751.95096","403518.028353","404285.053362","403527.104751","Mapping"
"Mixed","Both","ball","10","m150ball.wav","None","721.806573216","127","398134.726241","405051.860712","391168.004408","391934.816396","392701.683417","393468.310829","394234.777162","395001.672936","398901.635619","399668.221911","400434.671548","401201.244236","401967.678724","402751.95096","403518.028353","404285.053362","404294.766656","Mapping"
"Mixed","Both","ball","10","m160jolt.wav","space","381.449237","127","398134.726241","405051.860712","405818.336939","391934.816396","392701.683417","393468.310829","394234.777162","395001.672936","398901.635619","399668.221911","400434.671548","401201.244236","401967.678724","402751.95096","403518.028353","404285.053362","405061.133744","Mapping"
"Mixed","Both","ball","10","m160gnash.wav","None","723.942341516","127","398134.726241","405051.860712","405818.336939","406584.729379","392701.683417","393468.310829","394234.777162","395001.672936","398901.635619","399668.221911","400434.671548","401201.244236","401967.678724","402751.95096","403518.028353","404285.053362","405827.802585","Mapping"
"Mixed","Both","ball","10","m150ball.wav","None","725.625480525","127","398134.726241","405051.860712","405818.336939","406584.729379","407351.332057","393468.310829","394234.777162","395001.672936","398901.635619","399668.221911","400434.671548","401201.244236","401967.678724","402751.95096","403518.028353","404285.053362","406594.086815","Mapping"
"Mixed","Both","ball","10","m150park.wav","space","386.216687737","127","398134.726241","405051.860712","405818.336939","406584.729379","407351.332057","408117.694817","394234.777162","395001.672936","398901.635619","399668.221911","400434.671548","401201.244236","401967.678724","402751.95096","403518.028353","404285.053362","407360.285713","Mapping"
"Mixed","Both","ball","10","m160ball.wav","None","728.129474446","127","398134.726241","405051.860712","405818.336939","406584.729379","407351.332057","408117.694817","408884.841331","395001.672936","398901.635619","399668.221911","400434.671548","401201.244236","401967.678724","402751.95096","403518.028353","404285.053362","408126.707216","Mapping"
"Mixed","Both","ball","10","m160jolt.wav","space","420.079191681","127","398134.726241","405051.860712","405818.336939","406584.729379","407351.332057","408117.694817","408884.841331","409651.40629","398901.635619","399668.221911","400434.671548","401201.244236","401967.678724","402751.95096","403518.028353","404285.053362","408894.438376","Mapping"
"Mixed","Both","tile","29","m160reek.wav","None","730.046348181","127","412784.510608","405051.860712","405818.336939","406584.729379","407351.332057","408117.694817","408884.841331","409651.40629","398901.635619","399668.221911","400434.671548","401201.244236","401967.678724","402751.95096","403518.028353","404285.053362","409660.362419","Mapping"
"Mixed","Both","tile","29","m160bluff.wav","None","725.16852268","127","412784.510608","405051.860712","405818.336939","406584.729379","407351.332057","408117.694817","408884.841331","409651.40629","413551.167391","399668.221911","400434.671548","401201.244236","401967.678724","402751.95096","403518.028353","404285.053362","412793.547741","Mapping"
"Mixed","Both","tile","29","m150cad.wav","None","726.364095462","127","412784.510608","405051.860712","405818.336939","406584.729379","407351.332057","408117.694817","408884.841331","409651.40629","413551.167391","414317.941352","400434.671548","401201.244236","401967.678724","402751.95096","403518.028353","404285.053362","413560.457428","Mapping"
"Mixed","Both","tile","29","m160lash.wav","None","731.195544824","127","412784.510608","405051.860712","405818.336939","406584.729379","407351.332057","408117.694817","408884.841331","409651.40629","413551.167391","414317.941352","415084.405829","401201.244236","401967.678724","402751.95096","403518.028353","404285.053362","414327.326922","Mapping"
"Mixed","Both","tile","29","m150depth.wav","None","733.768175123","127","412784.510608","405051.860712","405818.336939","406584.729379","407351.332057","408117.694817","408884.841331","409651.40629","413551.167391","414317.941352","415084.405829","415868.166383","401967.678724","402751.95096","403518.028353","404285.053362","415093.348664","Mapping"
"Mixed","Both","tile","29","m160jolt.wav","None","721.151435282","127","412784.510608","405051.860712","405818.336939","406584.729379","407351.332057","408117.694817","408884.841331","409651.40629","413551.167391","414317.941352","415084.405829","415868.166383","416634.592833","402751.95096","403518.028353","404285.053362","415877.75539","Mapping"
"Mixed","Both","tile","29","m150park.wav","None","722.918050829","127","412784.510608","405051.860712","405818.336939","406584.729379","407351.332057","408117.694817","408884.841331","409651.40629","413551.167391","414317.941352","415084.405829","415868.166383","416634.592833","417401.101831","403518.028353","404285.053362","416644.089397","Mapping"
"Mixed","Both","tile","29","m150tile.wav","None","725.039288402","127","412784.510608","405051.860712","405818.336939","406584.729379","407351.332057","408117.694817","408884.841331","409651.40629","413551.167391","414317.941352","415084.405829","415868.166383","416634.592833","417401.101831","418167.80159","404285.053362","417410.190596","Mapping"
"Mixed","Both","tile","29","m150dime.wav","space","409.23308651","127","412784.510608","405051.860712","405818.336939","406584.729379","407351.332057","408117.694817","408884.841331","409651.40629","413551.167391","414317.941352","415084.405829","415868.166383","416634.592833","417401.101831","418167.80159","418934.289256","418177.108631","Mapping"
"Mixed","Both","tile","29","m160tile.wav","None","727.723220596","127","412784.510608","419701.22986","405818.336939","406584.729379","407351.332057","408117.694817","408884.841331","409651.40629","413551.167391","414317.941352","415084.405829","415868.166383","416634.592833","417401.101831","418167.80159","418934.289256","418943.089252","Mapping"
"Mixed","Both","tile","29","m160cad.wav","space","627.710019238","127","412784.510608","419701.22986","420467.882315","406584.729379","407351.332057","408117.694817","408884.841331","409651.40629","413551.167391","414317.941352","415084.405829","415868.166383","416634.592833","417401.101831","418167.80159","418934.289256","419710.578639","Mapping"
"Mixed","Both","tile","29","m150greet.wav","None","729.149127612","127","412784.510608","419701.22986","420467.882315","421234.393478","407351.332057","408117.694817","408884.841331","409651.40629","413551.167391","414317.941352","415084.405829","415868.166383","416634.592833","417401.101831","418167.80159","418934.289256","420477.275924","Mapping"
"Mixed","Both","tile","29","m160tile.wav","None","731.242539128","127","412784.510608","419701.22986","420467.882315","421234.393478","422000.825183","408117.694817","408884.841331","409651.40629","413551.167391","414317.941352","415084.405829","415868.166383","416634.592833","417401.101831","418167.80159","418934.289256","421243.386399","Mapping"
"Mixed","Both","tile","29","m150jaw.wav","space","472.513111308","127","412784.510608","419701.22986","420467.882315","421234.393478","422000.825183","422784.744343","408884.841331","409651.40629","413551.167391","414317.941352","415084.405829","415868.166383","416634.592833","417401.101831","418167.80159","418934.289256","422009.776057","Mapping"
"Mixed","Both","tile","29","m150tile.wav","None","727.02046996","127","412784.510608","419701.22986","420467.882315","421234.393478","422000.825183","422784.744343","423550.690647","409651.40629","413551.167391","414317.941352","415084.405829","415868.166383","416634.592833","417401.101831","418167.80159","418934.289256","422789.125636","Mapping"
"Mixed","Both","tile","29","m160jolt.wav","space","562.629678752","127","412784.510608","419701.22986","420467.882315","421234.393478","422000.825183","422784.744343","423550.690647","424317.429052","413551.167391","414317.941352","415084.405829","415868.166383","416634.592833","417401.101831","418167.80159","418934.289256","423559.617095","Mapping"
"Mixed","Both","ball","3","m160greet.wav","None","725.836645812","127","427450.916126","419701.22986","420467.882315","421234.393478","422000.825183","422784.744343","423550.690647","424317.429052","413551.167391","414317.941352","415084.405829","415868.166383","416634.592833","417401.101831","418167.80159","418934.289256","424326.259347","Mapping"
"Mixed","Both","ball","3","m160tile.wav","None","725.482024252","127","427450.916126","419701.22986","420467.882315","421234.393478","422000.825183","422784.744343","423550.690647","424317.429052","428217.588987","414317.941352","415084.405829","415868.166383","416634.592833","417401.101831","418167.80159","418934.289256","427460.011693","Mapping"
"Mixed","Both","ball","3","m160tile.wav","None","726.939775981","127","427450.916126","419701.22986","420467.882315","421234.393478","422000.825183","422784.744343","423550.690647","424317.429052","428217.588987","428983.973389","415084.405829","415868.166383","416634.592833","417401.101831","418167.80159","418934.289256","428226.602622","Mapping"
"Mixed","Both","ball","3","m150ball.wav","None","732.578476658","127","427450.916126","419701.22986","420467.882315","421234.393478","422000.825183","422784.744343","423550.690647","424317.429052","428217.588987","428983.973389","429750.781667","415868.166383","416634.592833","417401.101831","418167.80159","418934.289256","428992.759782","Mapping"
"Mixed","Both","ball","3","m160depth.wav","space","466.192683671","127","427450.916126","419701.22986","420467.882315","421234.393478","422000.825183","422784.744343","423550.690647","424317.429052","428217.588987","428983.973389","429750.781667","430517.279844","416634.592833","417401.101831","418167.80159","418934.289256","429759.955763","Mapping"
"Mixed","Both","ball","3","m160ball.wav","space","35.9454038553","127","427450.916126","419701.22986","420467.882315","421234.393478","422000.825183","422784.744343","423550.690647","424317.429052","428217.588987","428983.973389","429750.781667","430517.279844","431283.799974","417401.101831","418167.80159","418934.289256","430526.192999","Mapping"
"Mixed","Both","ball","3","m150greet.wav","space","517.350027105","127","427450.916126","419701.22986","420467.882315","421234.393478","422000.825183","422784.744343","423550.690647","424317.429052","428217.588987","428983.973389","429750.781667","430517.279844","431283.799974","432050.411618","418167.80159","418934.289256","431292.730132","Mapping"
"Mixed","Both","ball","3","m150tile.wav","None","735.973816831","127","427450.916126","419701.22986","420467.882315","421234.393478","422000.825183","422784.744343","423550.690647","424317.429052","428217.588987","428983.973389","429750.781667","430517.279844","431283.799974","432050.411618","432834.489383","418934.289256","432059.873554","Mapping"
"Mixed","Both","ball","3","m150cave.wav","None","719.931437867","127","427450.916126","419701.22986","420467.882315","421234.393478","422000.825183","422784.744343","423550.690647","424317.429052","428217.588987","428983.973389","429750.781667","430517.279844","431283.799974","432050.411618","432834.489383","433601.062381","432844.146408","Mapping"
"Mixed","Both","ball","3","m160ball.wav","None","721.654460067","127","427450.916126","434367.652383","420467.882315","421234.393478","422000.825183","422784.744343","423550.690647","424317.429052","428217.588987","428983.973389","429750.781667","430517.279844","431283.799974","432050.411618","432834.489383","433601.062381","433610.806593","Mapping"
"Mixed","Both","ball","3","m160romp.wav","space","401.124401018","127","427450.916126","434367.652383","435134.437164","421234.393478","422000.825183","422784.744343","423550.690647","424317.429052","428217.588987","428983.973389","429750.781667","430517.279844","431283.799974","432050.411618","432834.489383","433601.062381","434376.953549","Mapping"
"Mixed","Both","ball","3","m150ball.wav","None","724.09600066","127","427450.916126","434367.652383","435134.437164","435900.950182","422000.825183","422784.744343","423550.690647","424317.429052","428217.588987","428983.973389","429750.781667","430517.279844","431283.799974","432050.411618","432834.489383","433601.062381","435143.871584","Mapping"
"Mixed","Both","ball","3","m150done.wav","space","595.665762667","127","427450.916126","434367.652383","435134.437164","435900.950182","436667.559971","422784.744343","423550.690647","424317.429052","428217.588987","428983.973389","429750.781667","430517.279844","431283.799974","432050.411618","432834.489383","433601.062381","435910.328951","Mapping"
"Mixed","Both","ball","3","m150cad.wav","None","726.710678544","127","427450.916126","434367.652383","435134.437164","435900.950182","436667.559971","437433.984256","423550.690647","424317.429052","428217.588987","428983.973389","429750.781667","430517.279844","431283.799974","432050.411618","432834.489383","433601.062381","436676.835785","Mapping"
"Mixed","Both","ball","3","m150romp.wav","None","728.676092345","127","427450.916126","434367.652383","435134.437164","435900.950182","436667.559971","437433.984256","438200.925788","424317.429052","428217.588987","428983.973389","429750.781667","430517.279844","431283.799974","432050.411618","432834.489383","433601.062381","437442.979032","Mapping"
"Mixed","Both","ball","3","m160bluff.wav","None","729.936901014","127","427450.916126","434367.652383","435134.437164","435900.950182","436667.559971","437433.984256","438200.925788","438967.512698","428217.588987","428983.973389","429750.781667","430517.279844","431283.799974","432050.411618","432834.489383","433601.062381","438209.939733","Mapping"
"Mixed","Both","cave","14","m160romp.wav","None","730.872459011","127","442101.116022","434367.652383","435134.437164","435900.950182","436667.559971","437433.984256","438200.925788","438967.512698","428217.588987","428983.973389","429750.781667","430517.279844","431283.799974","432050.411618","432834.489383","433601.062381","438977.09985","Mapping"
"Mixed","Both","cave","14","m150ball.wav","None","723.203417845","127","442101.116022","434367.652383","435134.437164","435900.950182","436667.559971","437433.984256","438200.925788","438967.512698","442867.343364","428983.973389","429750.781667","430517.279844","431283.799974","432050.411618","432834.489383","433601.062381","442110.731309","Mapping"
"Mixed","Both","cave","14","m150cling.wav","None","725.615277886","127","442101.116022","434367.652383","435134.437164","435900.950182","436667.559971","437433.984256","438200.925788","438967.512698","442867.343364","443634.082697","429750.781667","430517.279844","431283.799974","432050.411618","432834.489383","433601.062381","442876.54776","Mapping"
"Mixed","Both","cave","14","m160jolt.wav","None","727.354067843","127","442101.116022","434367.652383","435134.437164","435900.950182","436667.559971","437433.984256","438200.925788","438967.512698","442867.343364","443634.082697","444400.585203","430517.279844","431283.799974","432050.411618","432834.489383","433601.062381","443643.034189","Mapping"
"Mixed","Both","cave","14","m150cave.wav","None","728.495844407","127","442101.116022","434367.652383","435134.437164","435900.950182","436667.559971","437433.984256","438200.925788","438967.512698","442867.343364","443634.082697","444400.585203","445167.07596","431283.799974","432050.411618","432834.489383","433601.062381","444409.903683","Mapping"
"Mixed","Both","cave","14","m150romp.wav","space","393.99022935","127","442101.116022","434367.652383","435134.437164","435900.950182","436667.559971","437433.984256","438200.925788","438967.512698","442867.343364","443634.082697","444400.585203","445167.07596","445933.864142","432050.411618","432834.489383","433601.062381","445175.84875","Mapping"
"Mixed","Both","cave","14","m160gnash.wav","None","731.60210764","127","442101.116022","434367.652383","435134.437164","435900.950182","436667.559971","437433.984256","438200.925788","438967.512698","442867.343364","443634.082697","444400.585203","445167.07596","445933.864142","446700.789597","432834.489383","433601.062381","445942.825528","Mapping"
"Mixed","Both","cave","14","m160cave.wav","None","732.944228686","127","442101.116022","434367.652383","435134.437164","435900.950182","436667.559971","437433.984256","438200.925788","438967.512698","442867.343364","443634.082697","444400.585203","445167.07596","445933.864142","446700.789597","447466.890487","433601.062381","446709.784682","Mapping"
"Mixed","Both","cave","14","m150reek.wav","space","541.93671653","127","442101.116022","434367.652383","435134.437164","435900.950182","436667.559971","437433.984256","438200.925788","438967.512698","442867.343364","443634.082697","444400.585203","445167.07596","445933.864142","446700.789597","447466.890487","448234.139647","447475.880626","Mapping"
"Mixed","Both","cave","14","m150cave.wav","None","736.076153116","127","442101.116022","449017.235478","435134.437164","435900.950182","436667.559971","437433.984256","438200.925788","438967.512698","442867.343364","443634.082697","444400.585203","445167.07596","445933.864142","446700.789597","447466.890487","448234.139647","448243.229029","Mapping"
"Mixed","Both","cave","14","m160cad.wav","space","590.97962454","127","442101.116022","449017.235478","449784.170208","435900.950182","436667.559971","437433.984256","438200.925788","438967.512698","442867.343364","443634.082697","444400.585203","445167.07596","445933.864142","446700.789597","447466.890487","448234.139647","449026.805007","Mapping"
"Mixed","Both","cave","14","m150ball.wav","None","721.238931175","127","442101.116022","449017.235478","449784.170208","450550.899338","436667.559971","437433.984256","438200.925788","438967.512698","442867.343364","443634.082697","444400.585203","445167.07596","445933.864142","446700.789597","447466.890487","448234.139647","449793.429637","Mapping"
"Mixed","Both","cave","14","m150lash.wav","None","722.240652191","127","442101.116022","449017.235478","449784.170208","450550.899338","451317.223451","437433.984256","438200.925788","438967.512698","442867.343364","443634.082697","444400.585203","445167.07596","445933.864142","446700.789597","447466.890487","448234.139647","450560.720843","Mapping"
"Mixed","Both","cave","14","m160knife.wav","None","724.47350109","127","442101.116022","449017.235478","449784.170208","450550.899338","451317.223451","452083.780372","438200.925788","438967.512698","442867.343364","443634.082697","444400.585203","445167.07596","445933.864142","446700.789597","447466.890487","448234.139647","451327.165843","Mapping"
"Mixed","Both","cave","14","m160cave.wav","None","728.072586469","127","442101.116022","449017.235478","449784.170208","450550.899338","451317.223451","452083.780372","452850.480749","438967.512698","442867.343364","443634.082697","444400.585203","445167.07596","445933.864142","446700.789597","447466.890487","448234.139647","452092.761235","Mapping"
"Mixed","Both","cave","14","m160ball.wav","space","478.2315786","127","442101.116022","449017.235478","449784.170208","450550.899338","451317.223451","452083.780372","452850.480749","453617.141861","442867.343364","443634.082697","444400.585203","445167.07596","445933.864142","446700.789597","447466.890487","448234.139647","452859.518191","Mapping"
"Mixed","Both","ball","4","m150tile.wav","None","729.850950651","127","456750.26071","449017.235478","449784.170208","450550.899338","451317.223451","452083.780372","452850.480749","453617.141861","442867.343364","443634.082697","444400.585203","445167.07596","445933.864142","446700.789597","447466.890487","448234.139647","453626.41953","Mapping"
"Mixed","Both","ball","4","m150ball.wav","None","725.55591655","127","456750.26071","449017.235478","449784.170208","450550.899338","451317.223451","452083.780372","452850.480749","453617.141861","457516.883794","443634.082697","444400.585203","445167.07596","445933.864142","446700.789597","447466.890487","448234.139647","456759.435734","Mapping"
"Mixed","Both","ball","4","m150romp.wav","space","347.815830493","127","456750.26071","449017.235478","449784.170208","450550.899338","451317.223451","452083.780372","452850.480749","453617.141861","457516.883794","458283.65157","444400.585203","445167.07596","445933.864142","446700.789597","447466.890487","448234.139647","457525.706051","Mapping"
"Mixed","Both","ball","4","m160done.wav","None","728.043524316","127","456750.26071","449017.235478","449784.170208","450550.899338","451317.223451","452083.780372","452850.480749","453617.141861","457516.883794","458283.65157","459050.311136","445167.07596","445933.864142","446700.789597","447466.890487","448234.139647","458292.733224","Mapping"
"Mixed","Both","ball","4","m150cave.wav","None","729.697910137","127","456750.26071","449017.235478","449784.170208","450550.899338","451317.223451","452083.780372","452850.480749","453617.141861","457516.883794","458283.65157","459050.311136","459817.002238","445933.864142","446700.789597","447466.890487","448234.139647","459059.395572","Mapping"
"Mixed","Both","ball","4","m160cad.wav","None","730.809078319","127","456750.26071","449017.235478","449784.170208","450550.899338","451317.223451","452083.780372","452850.480749","453617.141861","457516.883794","458283.65157","459050.311136","459817.002238","460600.046438","446700.789597","447466.890487","448234.139647","459826.490454","Mapping"
"Mixed","Both","ball","4","m150reek.wav","None","721.401865361","127","456750.26071","449017.235478","449784.170208","450550.899338","451317.223451","452083.780372","452850.480749","453617.141861","457516.883794","458283.65157","459050.311136","459817.002238","460600.046438","461367.754101","447466.890487","448234.139647","460608.683809","Mapping"
"Mixed","Both","ball","4","m160ball.wav","None","721.387025202","127","456750.26071","449017.235478","449784.170208","450550.899338","451317.223451","452083.780372","452850.480749","453617.141861","457516.883794","458283.65157","459050.311136","459817.002238","460600.046438","461367.754101","462134.073576","448234.139647","461377.213873","Mapping"
"Mixed","Both","ball","4","m150greet.wav","space","442.197133088","127","456750.26071","449017.235478","449784.170208","450550.899338","451317.223451","452083.780372","452850.480749","453617.141861","457516.883794","458283.65157","459050.311136","459817.002238","460600.046438","461367.754101","462134.073576","462900.246504","462143.368869","Mapping"
"Mixed","Both","ball","4","m150ball.wav","None","724.84945599","127","456750.26071","463666.972233","449784.170208","450550.899338","451317.223451","452083.780372","452850.480749","453617.141861","457516.883794","458283.65157","459050.311136","459817.002238","460600.046438","461367.754101","462134.073576","462900.246504","462909.437914","Mapping"
"Mixed","Both","ball","4","m160depth.wav","space","501.316923182","127","456750.26071","463666.972233","464433.563472","450550.899338","451317.223451","452083.780372","452850.480749","453617.141861","457516.883794","458283.65157","459050.311136","459817.002238","460600.046438","461367.754101","462134.073576","462900.246504","463676.189922","Mapping"
"Mixed","Both","ball","4","m150dime.wav","None","727.188351098","127","456750.26071","463666.972233","464433.563472","465200.180681","451317.223451","452083.780372","452850.480749","453617.141861","457516.883794","458283.65157","459050.311136","459817.002238","460600.046438","461367.754101","462134.073576","462900.246504","464442.558247","Mapping"
"Mixed","Both","ball","4","m160ball.wav","None","728.707628325","127","456750.26071","463666.972233","464433.563472","465200.180681","465966.894043","452083.780372","452850.480749","453617.141861","457516.883794","458283.65157","459050.311136","459817.002238","460600.046438","461367.754101","462134.073576","462900.246504","465209.350449","Mapping"
"Mixed","Both","ball","4","m160done.wav","space","721.456279978","127","456750.26071","463666.972233","464433.563472","465200.180681","465966.894043","466733.514344","452850.480749","453617.141861","457516.883794","458283.65157","459050.311136","459817.002238","460600.046438","461367.754101","462134.073576","462900.246504","465976.010633","Mapping"
"Mixed","Both","ball","4","m160tile.wav","None","730.494340183","127","456750.26071","463666.972233","464433.563472","465200.180681","465966.894043","466733.514344","467500.345192","453617.141861","457516.883794","458283.65157","459050.311136","459817.002238","460600.046438","461367.754101","462134.073576","462900.246504","466743.105206","Mapping"
"Mixed","Both","ball","4","m160lash.wav","None","732.687614858","127","456750.26071","463666.972233","464433.563472","465200.180681","465966.894043","466733.514344","467500.345192","468266.818945","457516.883794","458283.65157","459050.311136","459817.002238","460600.046438","461367.754101","462134.073576","462900.246504","467509.354499","Mapping"
"Mixed","Both","ball","7","m150knife.wav","None","734.774843091","127","471417.146065","463666.972233","464433.563472","465200.180681","465966.894043","466733.514344","467500.345192","468266.818945","457516.883794","458283.65157","459050.311136","459817.002238","460600.046438","461367.754101","462134.073576","462900.246504","468275.866589","Mapping"
"Mixed","Both","ball","7","m150ball.wav","None","723.796411883","127","471417.146065","463666.972233","464433.563472","465200.180681","465966.894043","466733.514344","467500.345192","468266.818945","472183.414836","458283.65157","459050.311136","459817.002238","460600.046438","461367.754101","462134.073576","462900.246504","471426.685914","Mapping"
"Mixed","Both","ball","7","m160priest.wav","space","424.593120348","127","471417.146065","463666.972233","464433.563472","465200.180681","465966.894043","466733.514344","467500.345192","468266.818945","472183.414836","472950.390377","459050.311136","459817.002238","460600.046438","461367.754101","462134.073576","462900.246504","472192.784949","Mapping"
"Mixed","Both","ball","7","m150dime.wav","None","726.974712452","127","471417.146065","463666.972233","464433.563472","465200.180681","465966.894043","466733.514344","467500.345192","468266.818945","472183.414836","472950.390377","473716.512291","459817.002238","460600.046438","461367.754101","462134.073576","462900.246504","472959.101332","Mapping"
"Mixed","Both","ball","7","m160jolt.wav","None","729.191793362","127","471417.146065","463666.972233","464433.563472","465200.180681","465966.894043","466733.514344","467500.345192","468266.818945","472183.414836","472950.390377","473716.512291","474483.511329","460600.046438","461367.754101","462134.073576","462900.246504","473725.332693","Mapping"
"Mixed","Both","ball","7","m150greet.wav","None","730.213301722","127","471417.146065","463666.972233","464433.563472","465200.180681","465966.894043","466733.514344","467500.345192","468266.818945","472183.414836","472950.390377","473716.512291","474483.511329","475249.987246","461367.754101","462134.073576","462900.246504","474492.725927","Mapping"
"Mixed","Both","ball","7","m160priest.wav","None","731.758240145","127","471417.146065","463666.972233","464433.563472","465200.180681","465966.894043","466733.514344","467500.345192","468266.818945","472183.414836","472950.390377","473716.512291","474483.511329","475249.987246","476016.700609","462134.073576","462900.246504","475259.684155","Mapping"
"Mixed","Both","ball","7","m150knife.wav","None","734.620874748","127","471417.146065","463666.972233","464433.563472","465200.180681","465966.894043","466733.514344","467500.345192","468266.818945","472183.414836","472950.390377","473716.512291","474483.511329","475249.987246","476016.700609","476783.789925","462900.246504","476025.778861","Mapping"
"Mixed","Both","ball","7","m160ball.wav","None","735.742555","127","471417.146065","463666.972233","464433.563472","465200.180681","465966.894043","466733.514344","467500.345192","468266.818945","472183.414836","472950.390377","473716.512291","474483.511329","475249.987246","476016.700609","476783.789925","477567.197404","476793.224346","Mapping"
"Mixed","Both","ball","7","m160greet.wav","space","384.330731118","127","471417.146065","478333.429074","464433.563472","465200.180681","465966.894043","466733.514344","467500.345192","468266.818945","472183.414836","472950.390377","473716.512291","474483.511329","475249.987246","476016.700609","476783.789925","477567.197404","477576.949036","Mapping"
"Mixed","Both","ball","7","m150ball.wav","None","722.334641032","127","471417.146065","478333.429074","479100.642987","465200.180681","465966.894043","466733.514344","467500.345192","468266.818945","472183.414836","472950.390377","473716.512291","474483.511329","475249.987246","476016.700609","476783.789925","477567.197404","478342.611827","Mapping"
"Mixed","Both","ball","7","m160greet.wav","space","440.49637136","127","471417.146065","478333.429074","479100.642987","479866.766138","465966.894043","466733.514344","467500.345192","468266.818945","472183.414836","472950.390377","473716.512291","474483.511329","475249.987246","476016.700609","476783.789925","477567.197404","479104.798584","Mapping"
"Mixed","Both","ball","7","m160cad.wav","None","724.617575761","127","471417.146065","478333.429074","479100.642987","479866.766138","480633.344701","466733.514344","467500.345192","468266.818945","472183.414836","472950.390377","473716.512291","474483.511329","475249.987246","476016.700609","476783.789925","477567.197404","479876.094821","Mapping"
"Mixed","Both","ball","7","m160ball.wav","None","726.962963818","127","471417.146065","478333.429074","479100.642987","479866.766138","480633.344701","481400.143394","467500.345192","468266.818945","472183.414836","472950.390377","473716.512291","474483.511329","475249.987246","476016.700609","476783.789925","477567.197404","480642.33082","Mapping"
"Mixed","Both","ball","7","m150jaw.wav","space","559.808473336","127","471417.146065","478333.429074","479100.642987","479866.766138","480633.344701","481400.143394","482166.736488","468266.818945","472183.414836","472950.390377","473716.512291","474483.511329","475249.987246","476016.700609","476783.789925","477567.197404","481409.41488","Mapping"
"Mixed","Both","ball","7","m150gnash.wav","None","728.565717814","127","471417.146065","478333.429074","479100.642987","479866.766138","480633.344701","481400.143394","482166.736488","482933.354007","472183.414836","472950.390377","473716.512291","474483.511329","475249.987246","476016.700609","476783.789925","477567.197404","482176.195333","Mapping"
"Mixed","Both","cave","22","m160dime.wav","None","730.235871393","127","486066.948983","478333.429074","479100.642987","479866.766138","480633.344701","481400.143394","482166.736488","482933.354007","472183.414836","472950.390377","473716.512291","474483.511329","475249.987246","476016.700609","476783.789925","477567.197404","482943.106257","Mapping"
"Mixed","Both","cave","22","m160done.wav","None","723.729012301","127","486066.948983","478333.429074","479100.642987","479866.766138","480633.344701","481400.143394","482166.736488","482933.354007","486833.185909","472950.390377","473716.512291","474483.511329","475249.987246","476016.700609","476783.789925","477567.197404","486076.694431","Mapping"
"Mixed","Both","cave","22","m160cave.wav","None","726.747779408","127","486066.948983","478333.429074","479100.642987","479866.766138","480633.344701","481400.143394","482166.736488","482933.354007","486833.185909","487599.806519","473716.512291","474483.511329","475249.987246","476016.700609","476783.789925","477567.197404","486842.225515","Mapping"
"Mixed","Both","cave","22","m150knife.wav","space","568.112556357","127","486066.948983","478333.429074","479100.642987","479866.766138","480633.344701","481400.143394","482166.736488","482933.354007","486833.185909","487599.806519","488366.498858","474483.511329","475249.987246","476016.700609","476783.789925","477567.197404","487608.972268","Mapping"
"Mixed","Both","cave","22","m160cave.wav","None","729.164895369","127","486066.948983","478333.429074","479100.642987","479866.766138","480633.344701","481400.143394","482166.736488","482933.354007","486833.185909","487599.806519","488366.498858","489132.987451","475249.987246","476016.700609","476783.789925","477567.197404","488376.060039","Mapping"
"Mixed","Both","cave","22","m150gnash.wav","None","731.454323046","127","486066.948983","478333.429074","479100.642987","479866.766138","480633.344701","481400.143394","482166.736488","482933.354007","486833.185909","487599.806519","488366.498858","489132.987451","489900.035029","476016.700609","476783.789925","477567.197404","489142.027675","Mapping"
"Mixed","Both","cave","22","m160cling.wav","space","0.0352459028363","127","486066.948983","478333.429074","479100.642987","479866.766138","480633.344701","481400.143394","482166.736488","482933.354007","486833.185909","487599.806519","488366.498858","489132.987451","489900.035029","490666.40861","476783.789925","477567.197404","489909.292911","Mapping"
"Mixed","Both","cave","22","m150cad.wav","None","734.185558977","127","486066.948983","478333.429074","479100.642987","479866.766138","480633.344701","481400.143394","482166.736488","482933.354007","486833.185909","487599.806519","488366.498858","489132.987451","489900.035029","490666.40861","491432.699023","477567.197404","490675.518398","Mapping"
"Mixed","Both","cave","22","m150priest.wav","None","736.180653563","127","486066.948983","478333.429074","479100.642987","479866.766138","480633.344701","481400.143394","482166.736488","482933.354007","486833.185909","487599.806519","488366.498858","489132.987451","489900.035029","490666.40861","491432.699023","492217.140995","491441.866318","Mapping"
"Mixed","Both","cave","22","m160ball.wav","None","720.459814882","127","486066.948983","492983.394307","479100.642987","479866.766138","480633.344701","481400.143394","482166.736488","482933.354007","486833.185909","487599.806519","488366.498858","489132.987451","489900.035029","490666.40861","491432.699023","492217.140995","492226.269024","Mapping"
"Mixed","Both","cave","22","m150gnash.wav","None","722.257656744","127","486066.948983","492983.394307","493749.562288","479866.766138","480633.344701","481400.143394","482166.736488","482933.354007","486833.185909","487599.806519","488366.498858","489132.987451","489900.035029","490666.40861","491432.699023","492217.140995","492992.949924","Mapping"
"Mixed","Both","cave","22","m150cave.wav","None","725.442450028","127","486066.948983","492983.394307","493749.562288","494516.531027","480633.344701","481400.143394","482166.736488","482933.354007","486833.185909","487599.806519","488366.498858","489132.987451","489900.035029","490666.40861","491432.699023","492217.140995","493758.293957","Mapping"
"Mixed","Both","cave","22","m160gnash.wav","space","424.814179307","127","486066.948983","492983.394307","493749.562288","494516.531027","495282.881729","481400.143394","482166.736488","482933.354007","486833.185909","487599.806519","488366.498858","489132.987451","489900.035029","490666.40861","491432.699023","492217.140995","494520.171851","Mapping"
"Mixed","Both","cave","22","m150cling.wav","None","727.891101735","127","486066.948983","492983.394307","493749.562288","494516.531027","495282.881729","496049.648269","482166.736488","482933.354007","486833.185909","487599.806519","488366.498858","489132.987451","489900.035029","490666.40861","491432.699023","492217.140995","495291.869085","Mapping"
"Mixed","Both","cave","22","m150cave.wav","None","729.405432241","127","486066.948983","492983.394307","493749.562288","494516.531027","495282.881729","496049.648269","496816.335661","482933.354007","486833.185909","487599.806519","488366.498858","489132.987451","489900.035029","490666.40861","491432.699023","492217.140995","496058.848336","Mapping"
"Mixed","Both","cave","22","m160ball.wav","space","535.552599002","127","486066.948983","492983.394307","493749.562288","494516.531027","495282.881729","496049.648269","496816.335661","497582.904021","486833.185909","487599.806519","488366.498858","489132.987451","489900.035029","490666.40861","491432.699023","492217.140995","496825.376194","Mapping"
"Mixed","Both","ball","1","m160cave.wav","None","732.283834601","127","500716.752828","492983.394307","493749.562288","494516.531027","495282.881729","496049.648269","496816.335661","497582.904021","486833.185909","487599.806519","488366.498858","489132.987451","489900.035029","490666.40861","491432.699023","492217.140995","497591.891067","Mapping"
"Mixed","Both","ball","1","m150cave.wav","None","723.413655534","127","500716.752828","492983.394307","493749.562288","494516.531027","495282.881729","496049.648269","496816.335661","497582.904021","501482.903804","487599.806519","488366.498858","489132.987451","489900.035029","490666.40861","491432.699023","492217.140995","500726.765402","Mapping"
"Mixed","Both","ball","1","m150gnash.wav","None","726.798483636","127","500716.752828","492983.394307","493749.562288","494516.531027","495282.881729","496049.648269","496816.335661","497582.904021","501482.903804","502249.572336","488366.498858","489132.987451","489900.035029","490666.40861","491432.699023","492217.140995","501491.924241","Mapping"
"Mixed","Both","ball","1","m160depth.wav","None","728.33816614","127","500716.752828","492983.394307","493749.562288","494516.531027","495282.881729","496049.648269","496816.335661","497582.904021","501482.903804","502249.572336","503016.004351","489132.987451","489900.035029","490666.40861","491432.699023","492217.140995","502258.900092","Mapping"
"Mixed","Both","ball","1","m150jaw.wav","None","730.94078619","127","500716.752828","492983.394307","493749.562288","494516.531027","495282.881729","496049.648269","496816.335661","497582.904021","501482.903804","502249.572336","503016.004351","503782.752649","489900.035029","490666.40861","491432.699023","492217.140995","503024.811149","Mapping"
"Mixed","Both","ball","1","m150cad.wav","None","733.051202493","127","500716.752828","492983.394307","493749.562288","494516.531027","495282.881729","496049.648269","496816.335661","497582.904021","501482.903804","502249.572336","503016.004351","503782.752649","504549.410669","490666.40861","491432.699023","492217.140995","503791.534405","Mapping"
"Mixed","Both","ball","1","m150ball.wav","None","734.379410511","127","500716.752828","492983.394307","493749.562288","494516.531027","495282.881729","496049.648269","496816.335661","497582.904021","501482.903804","502249.572336","503016.004351","503782.752649","504549.410669","505333.141543","491432.699023","492217.140995","504558.822211","Mapping"
"Mixed","Both","ball","1","m160lash.wav","space","434.262512019","127","500716.752828","492983.394307","493749.562288","494516.531027","495282.881729","496049.648269","496816.335661","497582.904021","501482.903804","502249.572336","503016.004351","503782.752649","504549.410669","505333.141543","506099.934362","492217.140995","505342.522167","Mapping"
"Mixed","Both","ball","1","m150knife.wav","None","720.70066072","127","500716.752828","492983.394307","493749.562288","494516.531027","495282.881729","496049.648269","496816.335661","497582.904021","501482.903804","502249.572336","503016.004351","503782.752649","504549.410669","505333.141543","506099.934362","506866.502722","506109.383623","Mapping"
"Mixed","Both","ball","1","m160ball.wav","None","722.615370294","127","500716.752828","507633.108801","493749.562288","494516.531027","495282.881729","496049.648269","496816.335661","497582.904021","501482.903804","502249.572336","503016.004351","503782.752649","504549.410669","505333.141543","506099.934362","506866.502722","506876.089874","Mapping"
"Mixed","Both","ball","1","m160lash.wav","space","461.606099037","127","500716.752828","507633.108801","508399.608525","494516.531027","495282.881729","496049.648269","496816.335661","497582.904021","501482.903804","502249.572336","503016.004351","503782.752649","504549.410669","505333.141543","506099.934362","506866.502722","507643.108081","Mapping"
"Mixed","Both","ball","1","m160ball.wav","None","726.169006899","127","500716.752828","507633.108801","508399.608525","509166.117833","495282.881729","496049.648269","496816.335661","497582.904021","501482.903804","502249.572336","503016.004351","503782.752649","504549.410669","505333.141543","506099.934362","506866.502722","508408.613503","Mapping"
"Mixed","Both","ball","1","m160dime.wav","space","497.488122433","127","500716.752828","507633.108801","508399.608525","509166.117833","509932.727931","496049.648269","496816.335661","497582.904021","501482.903804","502249.572336","503016.004351","503782.752649","504549.410669","505333.141543","506099.934362","506866.502722","509175.216181","Mapping"
"Mixed","Both","ball","1","m160bluff.wav","None","728.995159268","127","500716.752828","507633.108801","508399.608525","509166.117833","509932.727931","510699.265373","496816.335661","497582.904021","501482.903804","502249.572336","503016.004351","503782.752649","504549.410669","505333.141543","506099.934362","506866.502722","509942.105463","Mapping"
"Mixed","Both","ball","1","m150ball.wav","None","731.313030701","127","500716.752828","507633.108801","508399.608525","509166.117833","509932.727931","510699.265373","511466.095294","497582.904021","501482.903804","502249.572336","503016.004351","503782.752649","504549.410669","505333.141543","506099.934362","506866.502722","510708.475025","Mapping"
"Mixed","Both","ball","1","m150tile.wav","space","493.530705571","127","500716.752828","507633.108801","508399.608525","509166.117833","509932.727931","510699.265373","511466.095294","512232.656234","501482.903804","502249.572336","503016.004351","503782.752649","504549.410669","505333.141543","506099.934362","506866.502722","511475.145412","Mapping"
"Mixed","Both","cave","16","m150lash.wav","None","734.316957416","127","515366.221838","507633.108801","508399.608525","509166.117833","509932.727931","510699.265373","511466.095294","512232.656234","501482.903804","502249.572336","503016.004351","503782.752649","504549.410669","505333.141543","506099.934362","506866.502722","512241.640498","Mapping"
"Mixed","Both","cave","16","m160cad.wav","None","723.716027103","127","515366.221838","507633.108801","508399.608525","509166.117833","509932.727931","510699.265373","511466.095294","512232.656234","516132.605313","502249.572336","503016.004351","503782.752649","504549.410669","505333.141543","506099.934362","506866.502722","515376.181544","Mapping"
"Mixed","Both","cave","16","m150park.wav","None","726.36749642","127","515366.221838","507633.108801","508399.608525","509166.117833","509932.727931","510699.265373","511466.095294","512232.656234","516132.605313","516899.45502","503016.004351","503782.752649","504549.410669","505333.141543","506099.934362","506866.502722","516142.172059","Mapping"
"Mixed","Both","cave","16","m150cave.wav","None","728.749984875","127","515366.221838","507633.108801","508399.608525","509166.117833","509932.727931","510699.265373","511466.095294","512232.656234","516132.605313","516899.45502","517665.994318","503782.752649","504549.410669","505333.141543","506099.934362","506866.502722","516908.550278","Mapping"
"Mixed","Both","cave","16","m160priest.wav","space","421.424095053","127","515366.221838","507633.108801","508399.608525","509166.117833","509932.727931","510699.265373","511466.095294","512232.656234","516132.605313","516899.45502","517665.994318","518432.514447","504549.410669","505333.141543","506099.934362","506866.502722","517675.116473","Mapping"
"Mixed","Both","cave","16","m160cave.wav","None","737.280691974","127","515366.221838","507633.108801","508399.608525","509166.117833","509932.727931","510699.265373","511466.095294","512232.656234","516132.605313","516899.45502","517665.994318","518432.514447","519199.455979","505333.141543","506099.934362","506866.502722","518435.97966","Mapping"
"Mixed","Both","cave","16","m160knife.wav","space","504.034864716","127","515366.221838","507633.108801","508399.608525","509166.117833","509932.727931","510699.265373","511466.095294","512232.656234","516132.605313","516899.45502","517665.994318","518432.514447","519199.455979","519965.890158","506099.934362","506866.502722","519208.48229","Mapping"
"Mixed","Both","cave","16","m160cave.wav","None","734.269344946","127","515366.221838","507633.108801","508399.608525","509166.117833","509932.727931","510699.265373","511466.095294","512232.656234","516132.605313","516899.45502","517665.994318","518432.514447","519199.455979","519965.890158","520732.635674","506866.502722","519975.004274","Mapping"
"Mixed","Both","cave","16","m150reek.wav","space","434.136678698","127","515366.221838","507633.108801","508399.608525","509166.117833","509932.727931","510699.265373","511466.095294","512232.656234","516132.605313","516899.45502","517665.994318","518432.514447","519199.455979","519965.890158","520732.635674","521516.591934","520742.390397","Mapping"
"Mixed","Both","cave","16","m150ball.wav","space","0.0364824663848","127","515366.221838","522282.769808","508399.608525","509166.117833","509932.727931","510699.265373","511466.095294","512232.656234","516132.605313","516899.45502","517665.994318","518432.514447","519199.455979","519965.890158","520732.635674","521516.591934","521526.220206","Mapping"
"Mixed","Both","cave","16","m150depth.wav","None","720.653975615","127","515366.221838","522282.769808","523049.16163","509166.117833","509932.727931","510699.265373","511466.095294","512232.656234","516132.605313","516899.45502","517665.994318","518432.514447","519199.455979","519965.890158","520732.635674","521516.591934","522292.198663","Mapping"
"Mixed","Both","cave","16","m160gnash.wav","None","723.379646428","127","515366.221838","522282.769808","523049.16163","523815.98073","509932.727931","510699.265373","511466.095294","512232.656234","516132.605313","516899.45502","517665.994318","518432.514447","519199.455979","519965.890158","520732.635674","521516.591934","523058.075094","Mapping"
"Mixed","Both","cave","16","m160tile.wav","None","724.704762688","127","515366.221838","522282.769808","523049.16163","523815.98073","524582.464995","510699.265373","511466.095294","512232.656234","516132.605313","516899.45502","517665.994318","518432.514447","519199.455979","519965.890158","520732.635674","521516.591934","523825.395363","Mapping"
"Mixed","Both","cave","16","m150cave.wav","None","726.7873534","127","515366.221838","522282.769808","523049.16163","523815.98073","524582.464995","525349.317175","511466.095294","512232.656234","516132.605313","516899.45502","517665.994318","518432.514447","519199.455979","519965.890158","520732.635674","521516.591934","524592.070387","Mapping"
"Mixed","Both","cave","16","m150lash.wav","space","634.106812533","127","515366.221838","522282.769808","523049.16163","523815.98073","524582.464995","525349.317175","526115.848744","512232.656234","516132.605313","516899.45502","517665.994318","518432.514447","519199.455979","519965.890158","520732.635674","521516.591934","525358.296493","Mapping"
"Mixed","Both","cave","16","m160park.wav","None","730.007083388","127","515366.221838","522282.769808","523049.16163","523815.98073","524582.464995","525349.317175","526115.848744","526882.436581","516132.605313","516899.45502","517665.994318","518432.514447","519199.455979","519965.890158","520732.635674","521516.591934","526124.824969","Mapping"
"Mixed","Both","tile","36","m150priest.wav","None","732.172841439","127","530016.073914","522282.769808","523049.16163","523815.98073","524582.464995","525349.317175","526115.848744","526882.436581","516132.605313","516899.45502","517665.994318","518432.514447","519199.455979","519965.890158","520732.635674","521516.591934","526891.365503","Mapping"
"Mixed","Both","tile","36","m150jolt.wav","None","723.36418787","127","530016.073914","522282.769808","523049.16163","523815.98073","524582.464995","525349.317175","526115.848744","526882.436581","530782.321353","516899.45502","517665.994318","518432.514447","519199.455979","519965.890158","520732.635674","521516.591934","530026.173366","Mapping"
"Mixed","Both","tile","36","m160tile.wav","None","727.169800783","127","530016.073914","522282.769808","523049.16163","523815.98073","524582.464995","525349.317175","526115.848744","526882.436581","530782.321353","531549.222692","517665.994318","518432.514447","519199.455979","519965.890158","520732.635674","521516.591934","530791.310563","Mapping"
"Mixed","Both","tile","36","m150jolt.wav","None","728.788013337","127","530016.073914","522282.769808","523049.16163","523815.98073","524582.464995","525349.317175","526115.848744","526882.436581","530782.321353","531549.222692","532315.789815","518432.514447","519199.455979","519965.890158","520732.635674","521516.591934","531558.208811","Mapping"
"Mixed","Both","tile","36","m160gnash.wav","space","642.988431267","127","530016.073914","522282.769808","523049.16163","523815.98073","524582.464995","525349.317175","526115.848744","526882.436581","530782.321353","531549.222692","532315.789815","533082.232032","519199.455979","519965.890158","520732.635674","521516.591934","532325.337702","Mapping"
"Mixed","Both","tile","36","m160tile.wav","None","732.368547935","127","530016.073914","522282.769808","523049.16163","523815.98073","524582.464995","525349.317175","526115.848744","526882.436581","530782.321353","531549.222692","532315.789815","533082.232032","533848.868411","519965.890158","520732.635674","521516.591934","533091.632753","Mapping"
"Mixed","Both","tile","36","m150done.wav","space","430.333848344","127","530016.073914","522282.769808","523049.16163","523815.98073","524582.464995","525349.317175","526115.848744","526882.436581","530782.321353","531549.222692","532315.789815","533082.232032","533848.868411","534615.33598","520732.635674","521516.591934","533857.966759","Mapping"
"Mixed","Both","tile","36","m160cling.wav","None","736.453344347","127","530016.073914","522282.769808","523049.16163","523815.98073","524582.464995","525349.317175","526115.848744","526882.436581","530782.321353","531549.222692","532315.789815","533082.232032","533848.868411","534615.33598","535399.003782","521516.591934","534624.105987","Mapping"
"Mixed","Both","tile","36","m150tile.wav","None","720.824948512","127","530016.073914","522282.769808","523049.16163","523815.98073","524582.464995","525349.317175","526115.848744","526882.436581","530782.321353","531549.222692","532315.789815","533082.232032","533848.868411","534615.33598","535399.003782","536165.899247","535408.550432","Mapping"
"Mixed","Both","tile","36","m160jaw.wav","space","472.949663876","127","530016.073914","536932.771833","523049.16163","523815.98073","524582.464995","525349.317175","526115.848744","526882.436581","530782.321353","531549.222692","532315.789815","533082.232032","533848.868411","534615.33598","535399.003782","536165.899247","536175.253592","Mapping"
"Mixed","Both","tile","36","m150tile.wav","None","723.092115251","127","530016.073914","536932.771833","537698.752146","523815.98073","524582.464995","525349.317175","526115.848744","526882.436581","530782.321353","531549.222692","532315.789815","533082.232032","533848.868411","534615.33598","535399.003782","536165.899247","536942.619309","Mapping"
"Mixed","Both","tile","36","m160greet.wav","None","727.380038472","127","530016.073914","536932.771833","537698.752146","538465.60309","524582.464995","525349.317175","526115.848744","526882.436581","530782.321353","531549.222692","532315.789815","533082.232032","533848.868411","534615.33598","535399.003782","536165.899247","537707.546578","Mapping"
"Mixed","Both","tile","36","m160lash.wav","space","213.291788707","127","530016.073914","536932.771833","537698.752146","538465.60309","539232.069732","525349.317175","526115.848744","526882.436581","530782.321353","531549.222692","532315.789815","533082.232032","533848.868411","534615.33598","535399.003782","536165.899247","538474.868083","Mapping"
"Mixed","Both","tile","36","m160jaw.wav","None","730.657892767","127","530016.073914","536932.771833","537698.752146","538465.60309","539232.069732","539998.536992","526115.848744","526882.436581","530782.321353","531549.222692","532315.789815","533082.232032","533848.868411","534615.33598","535399.003782","536165.899247","539240.823044","Mapping"
"Mixed","Both","tile","36","m150reek.wav","None","732.765217312","127","530016.073914","536932.771833","537698.752146","538465.60309","539232.069732","539998.536992","540765.488109","526882.436581","530782.321353","531549.222692","532315.789815","533082.232032","533848.868411","534615.33598","535399.003782","536165.899247","540007.612153","Mapping"
"Mixed","Both","tile","36","m150greet.wav","None","735.053717392","127","530016.073914","536932.771833","537698.752146","538465.60309","539232.069732","539998.536992","540765.488109","541549.236605","530782.321353","531549.222692","532315.789815","533082.232032","533848.868411","534615.33598","535399.003782","536165.899247","540774.583675","Mapping"
"Mixed","Both","cave","19","m150done.wav","None","719.778087921","127","544682.077817","536932.771833","537698.752146","538465.60309","539232.069732","539998.536992","540765.488109","541549.236605","530782.321353","531549.222692","532315.789815","533082.232032","533848.868411","534615.33598","535399.003782","536165.899247","541558.781091","Mapping"
"Mixed","Both","cave","19","m160cave.wav","None","725.217371946","127","544682.077817","536932.771833","537698.752146","538465.60309","539232.069732","539998.536992","540765.488109","541549.236605","545448.621134","531549.222692","532315.789815","533082.232032","533848.868411","534615.33598","535399.003782","536165.899247","544691.051878","Mapping"
"Mixed","Both","cave","19","m160lash.wav","space","462.258145446","127","544682.077817","536932.771833","537698.752146","538465.60309","539232.069732","539998.536992","540765.488109","541549.236605","545448.621134","546215.571632","532315.789815","533082.232032","533848.868411","534615.33598","535399.003782","536165.899247","545457.768641","Mapping"
"Mixed","Both","cave","19","m150jolt.wav","None","727.329952409","127","544682.077817","536932.771833","537698.752146","538465.60309","539232.069732","539998.536992","540765.488109","541549.236605","545448.621134","546215.571632","546981.972111","533082.232032","533848.868411","534615.33598","535399.003782","536165.899247","546225.0178","Mapping"
"Mixed","Both","cave","19","m150cad.wav","None","730.177128455","127","544682.077817","536932.771833","537698.752146","538465.60309","539232.069732","539998.536992","540765.488109","541549.236605","545448.621134","546215.571632","546981.972111","547748.398251","533848.868411","534615.33598","535399.003782","536165.899247","546991.000896","Mapping"
"Mixed","Both","cave","19","m150cave.wav","None","733.079337282","127","544682.077817","536932.771833","537698.752146","538465.60309","539232.069732","539998.536992","540765.488109","541549.236605","545448.621134","546215.571632","546981.972111","547748.398251","548515.128308","534615.33598","535399.003782","536165.899247","547757.182789","Mapping"
"Mixed","Both","cave","19","m160knife.wav","space","435.240117833","127","544682.077817","536932.771833","537698.752146","538465.60309","539232.069732","539998.536992","540765.488109","541549.236605","545448.621134","546215.571632","546981.972111","547748.398251","548515.128308","549281.896085","535399.003782","536165.899247","548524.76771","Mapping"
"Mixed","Both","cave","19","m150cave.wav","None","735.44389382","127","544682.077817","536932.771833","537698.752146","538465.60309","539232.069732","539998.536992","540765.488109","541549.236605","545448.621134","546215.571632","546981.972111","547748.398251","548515.128308","549281.896085","550065.253168","536165.899247","549290.955478","Mapping"
"Mixed","Both","cave","19","m160ball.wav","space","501.337019494","127","544682.077817","536932.771833","537698.752146","538465.60309","539232.069732","539998.536992","540765.488109","541549.236605","545448.621134","546215.571632","546981.972111","547748.398251","548515.128308","549281.896085","550065.253168","550832.207376","550074.609986","Mapping"
"Mixed","Both","cave","19","m160cave.wav","None","721.12917481","127","544682.077817","551599.299166","537698.752146","538465.60309","539232.069732","539998.536992","540765.488109","541549.236605","545448.621134","546215.571632","546981.972111","547748.398251","548515.128308","549281.896085","550065.253168","550832.207376","550841.87955","Mapping"
"Mixed","Both","cave","19","m160tile.wav","space","495.010099141","127","544682.077817","551599.299166","552365.34997","538465.60309","539232.069732","539998.536992","540765.488109","541549.236605","545448.621134","546215.571632","546981.972111","547748.398251","548515.128308","549281.896085","550065.253168","550832.207376","551608.933931","Mapping"
"Mixed","Both","cave","19","m150gnash.wav","None","725.213352591","127","544682.077817","551599.299166","552365.34997","553131.94059","539232.069732","539998.536992","540765.488109","541549.236605","545448.621134","546215.571632","546981.972111","547748.398251","548515.128308","549281.896085","550065.253168","550832.207376","552374.556839","Mapping"
"Mixed","Both","cave","19","m150dime.wav","None","727.660767734","127","544682.077817","551599.299166","552365.34997","553131.94059","553898.822761","539998.536992","540765.488109","541549.236605","545448.621134","546215.571632","546981.972111","547748.398251","548515.128308","549281.896085","550065.253168","550832.207376","553140.909087","Mapping"
"Mixed","Both","cave","19","m160dime.wav","None","729.39739353","127","544682.077817","551599.299166","552365.34997","553131.94059","553898.822761","554665.364532","540765.488109","541549.236605","545448.621134","546215.571632","546981.972111","547748.398251","548515.128308","549281.896085","550065.253168","550832.207376","553907.922038","Mapping"
"Mixed","Both","cave","19","m160park.wav","None","731.784519972","127","544682.077817","551599.299166","552365.34997","553131.94059","553898.822761","554665.364532","555431.871985","541549.236605","545448.621134","546215.571632","546981.972111","547748.398251","548515.128308","549281.896085","550065.253168","550832.207376","554674.688577","Mapping"
"Mixed","Both","cave","19","m150knife.wav","None","734.09095197","127","544682.077817","551599.299166","552365.34997","553131.94059","553898.822761","554665.364532","555431.871985","556198.446219","545448.621134","546215.571632","546981.972111","547748.398251","548515.128308","549281.896085","550065.253168","550832.207376","555441.256319","Mapping"
"Mixed","Both","cave","18","m150reek.wav","None","736.720470013","127","559348.907212","551599.299166","552365.34997","553131.94059","553898.822761","554665.364532","555431.871985","556198.446219","545448.621134","546215.571632","546981.972111","547748.398251","548515.128308","549281.896085","550065.253168","550832.207376","556207.430792","Mapping"
"Mixed","Both","cave","18","m160reek.wav","None","723.562676925","127","559348.907212","551599.299166","552365.34997","553131.94059","553898.822761","554665.364532","555431.871985","556198.446219","560115.213393","546215.571632","546981.972111","547748.398251","548515.128308","549281.896085","550065.253168","550832.207376","559358.414597","Mapping"
"Mixed","Both","cave","18","m150cave.wav","None","726.609888021","127","559348.907212","551599.299166","552365.34997","553131.94059","553898.822761","554665.364532","555431.871985","556198.446219","560115.213393","560881.751145","546981.972111","547748.398251","548515.128308","549281.896085","550065.253168","550832.207376","560124.254545","Mapping"
"Mixed","Both","cave","18","m160depth.wav","space","524.680214468","127","559348.907212","551599.299166","552365.34997","553131.94059","553898.822761","554665.364532","555431.871985","556198.446219","560115.213393","560881.751145","561648.454922","547748.398251","548515.128308","549281.896085","550065.253168","550832.207376","560891.096214","Mapping"
"Mixed","Both","cave","18","m150dime.wav","None","729.677813826","127","559348.907212","551599.299166","552365.34997","553131.94059","553898.822761","554665.364532","555431.871985","556198.446219","560115.213393","560881.751145","561648.454922","562415.213733","548515.128308","549281.896085","550065.253168","550832.207376","561657.433621","Mapping"
"Mixed","Both","cave","18","m160bluff.wav","None","732.015472371","127","559348.907212","551599.299166","552365.34997","553131.94059","553898.822761","554665.364532","555431.871985","556198.446219","560115.213393","560881.751145","561648.454922","562415.213733","563181.725514","549281.896085","550065.253168","550832.207376","562424.485219","Mapping"
"Mixed","Both","cave","18","m150jaw.wav","None","734.838841949","127","559348.907212","551599.299166","552365.34997","553131.94059","553898.822761","554665.364532","555431.871985","556198.446219","560115.213393","560881.751145","561648.454922","562415.213733","563181.725514","563965.477102","550065.253168","550832.207376","563190.750589","Mapping"
"Mixed","Both","cave","18","m150cling.wav","None","718.743594363","127","559348.907212","551599.299166","552365.34997","553131.94059","553898.822761","554665.364532","555431.871985","556198.446219","560115.213393","560881.751145","561648.454922","562415.213733","563181.725514","563965.477102","564732.482633","550832.207376","563975.591394","Mapping"
"Mixed","Both","cave","18","m150cave.wav","None","721.238621976","127","559348.907212","551599.299166","552365.34997","553131.94059","553898.822761","554665.364532","555431.871985","556198.446219","560115.213393","560881.751145","561648.454922","562415.213733","563181.725514","563965.477102","564732.482633","565498.790978","564742.02681","Mapping"
"Mixed","Both","cave","18","m150reek.wav","space","459.179089405","127","559348.907212","566265.087575","552365.34997","553131.94059","553898.822761","554665.364532","555431.871985","556198.446219","560115.213393","560881.751145","561648.454922","562415.213733","563181.725514","563965.477102","564732.482633","565498.790978","565508.533026","Mapping"
"Mixed","Both","cave","18","m160cave.wav","None","731.014987687","127","559348.907212","566265.087575","567031.730755","553131.94059","553898.822761","554665.364532","555431.871985","556198.446219","560115.213393","560881.751145","561648.454922","562415.213733","563181.725514","563965.477102","564732.482633","565498.790978","566268.671201","Mapping"
"Mixed","Both","cave","18","m150jolt.wav","space","438.891453436","127","559348.907212","566265.087575","567031.730755","567798.513681","553898.822761","554665.364532","555431.871985","556198.446219","560115.213393","560881.751145","561648.454922","562415.213733","563181.725514","563965.477102","564732.482633","565498.790978","567040.783964","Mapping"
"Mixed","Both","cave","18","m160bluff.wav","None","728.113706456","127","559348.907212","566265.087575","567031.730755","567798.513681","568564.929618","554665.364532","555431.871985","556198.446219","560115.213393","560881.751145","561648.454922","562415.213733","563181.725514","563965.477102","564732.482633","565498.790978","567807.747447","Mapping"
"Mixed","Both","cave","18","m160lash.wav","None","730.870913249","127","559348.907212","566265.087575","567031.730755","567798.513681","568564.929618","569331.476954","555431.871985","556198.446219","560115.213393","560881.751145","561648.454922","562415.213733","563181.725514","563965.477102","564732.482633","565498.790978","568573.909245","Mapping"
