"Condition","Talker","Target","Trial","current_stimulus","response_response","response_time_response","subject_nr","time_Audio1","time_Audio10","time_Audio11","time_Audio12","time_Audio13","time_Audio14","time_Audio15","time_Audio16","time_Audio2","time_Audio3","time_Audio4","time_Audio5","time_Audio6","time_Audio7","time_Audio8","time_Audio9","time_response","title"
"Blocked","m150","done","24","m150bluff.wav","NA","NA","125","127037.527752","NA","NA","NA","NA","NA","NA","NA","NA","NA","NA","NA","NA","NA","NA","NA","NA","Mapping"
"Blocked","m150","done","24","m150done.wav","None","718.359292019","125","127037.527752","NA","NA","NA","NA","NA","NA","NA","127804.715386","NA","NA","NA","NA","NA","NA","NA","127051.520931","Mapping"
"Blocked","m150","done","24","m150greet.wav","space","614.122784231","125","127037.527752","NA","NA","NA","NA","NA","NA","NA","127804.715386","128570.671892","NA","NA","NA","NA","NA","NA","127814.339948","Mapping"
"Blocked","m150","done","24","m150priest.wav","None","722.574559273","125","127037.527752","NA","NA","NA","NA","NA","NA","NA","127804.715386","128570.671892","129337.350009","NA","NA","NA","NA","NA","128580.148669","Mapping"
"Blocked","m150","done","24","m150done.wav","None","722.042472335","125","127037.527752","NA","NA","NA","NA","NA","NA","NA","127804.715386","128570.671892","129337.350009","130104.305453","NA","NA","NA","NA","129346.885219","Mapping"
"Blocked","m150","done","24","m150cad.wav","space","386.468973244","125","127037.527752","NA","NA","NA","NA","NA","NA","NA","127804.715386","128570.671892","129337.350009","130104.305453","130870.905658","NA","NA","NA","130113.922286","Mapping"
"Blocked","m150","done","24","m150cling.wav","None","721.924677258","125","127037.527752","NA","NA","NA","NA","NA","NA","NA","127804.715386","128570.671892","129337.350009","130104.305453","130870.905658","131637.668488","NA","NA","130879.972781","Mapping"
"Blocked","m150","done","24","m150greet.wav","None","720.985409105","125","127037.527752","NA","NA","NA","NA","NA","NA","NA","127804.715386","128570.671892","129337.350009","130104.305453","130870.905658","131637.668488","132404.087826","NA","131647.368488","Mapping"
"Blocked","m150","done","24","m150jolt.wav","None","720.574827166","125","127037.527752","NA","NA","NA","NA","NA","NA","NA","127804.715386","128570.671892","129337.350009","130104.305453","130870.905658","131637.668488","132404.087826","133170.649075","132414.222215","Mapping"
"Blocked","m150","done","24","m150dime.wav","None","721.498945961","125","127037.527752","133937.615959","NA","NA","NA","NA","NA","NA","127804.715386","128570.671892","129337.350009","130104.305453","130870.905658","131637.668488","132404.087826","133170.649075","133179.752989","Mapping"
"Blocked","m150","done","24","m150cling.wav","space","297.23571334","125","127037.527752","133937.615959","134704.349727","NA","NA","NA","NA","NA","127804.715386","128570.671892","129337.350009","130104.305453","130870.905658","131637.668488","132404.087826","133170.649075","133947.095519","Mapping"
"Blocked","m150","done","24","m150done.wav","None","719.74562481","125","127037.527752","133937.615959","134704.349727","135471.117813","NA","NA","NA","NA","127804.715386","128570.671892","129337.350009","130104.305453","130870.905658","131637.668488","132404.087826","133170.649075","134714.378996","Mapping"
"Blocked","m150","done","24","m150cling.wav","space","563.606666168","125","127037.527752","133937.615959","134704.349727","135471.117813","136237.476244","NA","NA","NA","127804.715386","128570.671892","129337.350009","130104.305453","130870.905658","131637.668488","132404.087826","133170.649075","135480.65055","Mapping"
"Blocked","m150","done","24","m150gnash.wav","None","719.990489772","125","127037.527752","133937.615959","134704.349727","135471.117813","136237.476244","137004.148795","NA","NA","127804.715386","128570.671892","129337.350009","130104.305453","130870.905658","131637.668488","132404.087826","133170.649075","136247.147182","Mapping"
"Blocked","m150","done","24","m150done.wav","None","720.153423958","125","127037.527752","133937.615959","134704.349727","135471.117813","136237.476244","137004.148795","137771.496272","NA","127804.715386","128570.671892","129337.350009","130104.305453","130870.905658","131637.668488","132404.087826","133170.649075","137013.331858","Mapping"
"Blocked","m150","done","24","m150priest.wav","space","494.392989436","125","127037.527752","133937.615959","134704.349727","135471.117813","136237.476244","137004.148795","137771.496272","138521.152239","127804.715386","128570.671892","129337.350009","130104.305453","130870.905658","131637.668488","132404.087826","133170.649075","137781.92963","Mapping"
"Blocked","m150","done","19","m150jaw.wav","None","736.074607121","125","141687.485256","133937.615959","134704.349727","135471.117813","136237.476244","137004.148795","137771.496272","138521.152239","127804.715386","128570.671892","129337.350009","130104.305453","130870.905658","131637.668488","132404.087826","133170.649075","138530.013452","Mapping"
"Blocked","m150","done","19","m150romp.wav","None","723.336053081","125","141687.485256","133937.615959","134704.349727","135471.117813","136237.476244","137004.148795","137771.496272","138521.152239","142453.818335","128570.671892","129337.350009","130104.305453","130870.905658","131637.668488","132404.087826","133170.649075","141697.103016","Mapping"
"Blocked","m150","done","19","m150gnash.wav","None","724.075904582","125","141687.485256","133937.615959","134704.349727","135471.117813","136237.476244","137004.148795","137771.496272","138521.152239","142453.818335","143221.012153","129337.350009","130104.305453","130870.905658","131637.668488","132404.087826","133170.649075","142462.987485","Mapping"
"Blocked","m150","done","19","m150bluff.wav","None","722.297230968","125","141687.485256","133937.615959","134704.349727","135471.117813","136237.476244","137004.148795","137771.496272","138521.152239","142453.818335","143221.012153","143987.844856","130104.305453","130870.905658","131637.668488","132404.087826","133170.649075","143231.03493","Mapping"
"Blocked","m150","done","19","m150done.wav","None","722.384417895","125","141687.485256","133937.615959","134704.349727","135471.117813","136237.476244","137004.148795","137771.496272","138521.152239","142453.818335","143221.012153","143987.844856","144754.28058","130870.905658","131637.668488","132404.087826","133170.649075","143997.470036","Mapping"
"Blocked","m150","done","19","m150tile.wav","space","367.821191438","125","141687.485256","133937.615959","134704.349727","135471.117813","136237.476244","137004.148795","137771.496272","138521.152239","142453.818335","143221.012153","143987.844856","144754.28058","145520.894389","131637.668488","132404.087826","133170.649075","144764.329637","Mapping"
"Blocked","m150","done","19","m150bluff.wav","None","722.399876686","125","141687.485256","133937.615959","134704.349727","135471.117813","136237.476244","137004.148795","137771.496272","138521.152239","142453.818335","143221.012153","143987.844856","144754.28058","145520.894389","146287.541897","132404.087826","133170.649075","145530.347978","Mapping"
"Blocked","m150","done","19","m150done.wav","None","722.296922002","125","141687.485256","133937.615959","134704.349727","135471.117813","136237.476244","137004.148795","137771.496272","138521.152239","142453.818335","143221.012153","143987.844856","144754.28058","145520.894389","146287.541897","147054.25866","133170.649075","146297.025476","Mapping"
"Blocked","m150","done","19","m150tile.wav","space","404.086280381","125","141687.485256","133937.615959","134704.349727","135471.117813","136237.476244","137004.148795","137771.496272","138521.152239","142453.818335","143221.012153","143987.844856","144754.28058","145520.894389","146287.541897","147054.25866","147820.785591","147063.982775","Mapping"
"Blocked","m150","done","19","m150depth.wav","None","721.40310239","125","141687.485256","148587.439901","134704.349727","135471.117813","136237.476244","137004.148795","137771.496272","138521.152239","142453.818335","143221.012153","143987.844856","144754.28058","145520.894389","146287.541897","147054.25866","147820.785591","147830.413553","Mapping"
"Blocked","m150","done","19","m150priest.wav","None","721.218216466","125","141687.485256","148587.439901","149354.190673","135471.117813","136237.476244","137004.148795","137771.496272","138521.152239","142453.818335","143221.012153","143987.844856","144754.28058","145520.894389","146287.541897","147054.25866","147820.785591","148596.944812","Mapping"
"Blocked","m150","done","19","m150tile.wav","None","720.49227776","125","141687.485256","148587.439901","149354.190673","150120.783148","136237.476244","137004.148795","137771.496272","138521.152239","142453.818335","143221.012153","143987.844856","144754.28058","145520.894389","146287.541897","147054.25866","147820.785591","149363.941068","Mapping"
"Blocked","m150","done","19","m150done.wav","None","720.683965134","125","141687.485256","148587.439901","149354.190673","150120.783148","150887.366967","137004.148795","137771.496272","138521.152239","142453.818335","143221.012153","143987.844856","144754.28058","145520.894389","146287.541897","147054.25866","147820.785591","150130.345566","Mapping"
"Blocked","m150","done","19","m150cling.wav","space","355.305551318","125","141687.485256","148587.439901","149354.190673","150120.783148","150887.366967","151654.021586","137771.496272","138521.152239","142453.818335","143221.012153","143987.844856","144754.28058","145520.894389","146287.541897","147054.25866","147820.785591","150896.730586","Mapping"
"Blocked","m150","done","19","m150done.wav","None","719.593511429","125","141687.485256","148587.439901","149354.190673","150120.783148","150887.366967","151654.021586","152420.781324","138521.152239","142453.818335","143221.012153","143987.844856","144754.28058","145520.894389","146287.541897","147054.25866","147820.785591","151663.991803","Mapping"
"Blocked","m150","done","19","m150gnash.wav","space","573.672727216","125","141687.485256","148587.439901","149354.190673","150120.783148","150887.366967","151654.021586","152420.781324","153187.237454","142453.818335","143221.012153","143987.844856","144754.28058","145520.894389","146287.541897","147054.25866","147820.785591","152430.331066","Mapping"
"Blocked","m150","ball","4","m150cad.wav","None","719.745624578","125","156304.025157","148587.439901","149354.190673","150120.783148","150887.366967","151654.021586","152420.781324","153187.237454","142453.818335","143221.012153","143987.844856","144754.28058","145520.894389","146287.541897","147054.25866","147820.785591","153196.656107","Mapping"
"Blocked","m150","ball","4","m150ball.wav","None","722.17047005","125","156304.025157","148587.439901","149354.190673","150120.783148","150887.366967","151654.021586","152420.781324","153187.237454","157070.695235","143221.012153","143987.844856","144754.28058","145520.894389","146287.541897","147054.25866","147820.785591","156313.638588","Mapping"
"Blocked","m150","ball","4","m150jaw.wav","space","419.612958329","125","156304.025157","148587.439901","149354.190673","150120.783148","150887.366967","151654.021586","152420.781324","153187.237454","157070.695235","157837.062941","143987.844856","144754.28058","145520.894389","146287.541897","147054.25866","147820.785591","157080.320724","Mapping"
"Blocked","m150","ball","4","m150jolt.wav","None","722.043709131","125","156304.025157","148587.439901","149354.190673","150120.783148","150887.366967","151654.021586","152420.781324","153187.237454","157070.695235","157837.062941","158604.02055","144754.28058","145520.894389","146287.541897","147054.25866","147820.785591","157846.743773","Mapping"
"Blocked","m150","ball","4","m150ball.wav","None","721.731444122","125","156304.025157","148587.439901","149354.190673","150120.783148","150887.366967","151654.021586","152420.781324","153187.237454","157070.695235","157837.062941","158604.02055","159370.678261","145520.894389","146287.541897","147054.25866","147820.785591","158613.626562","Mapping"
"Blocked","m150","ball","4","m150jolt.wav","space","431.8302467","125","156304.025157","148587.439901","149354.190673","150120.783148","150887.366967","151654.021586","152420.781324","153187.237454","157070.695235","157837.062941","158604.02055","159370.678261","160137.237037","146287.541897","147054.25866","147820.785591","159380.055175","Mapping"
"Blocked","m150","ball","4","m150ball.wav","None","721.524916356","125","156304.025157","148587.439901","149354.190673","150120.783148","150887.366967","151654.021586","152420.781324","153187.237454","157070.695235","157837.062941","158604.02055","159370.678261","160137.237037","160903.602888","147054.25866","147820.785591","160146.611786","Mapping"
"Blocked","m150","ball","4","m150cling.wav","space","347.00796078","125","156304.025157","148587.439901","149354.190673","150120.783148","150887.366967","151654.021586","152420.781324","153187.237454","157070.695235","157837.062941","158604.02055","159370.678261","160137.237037","160903.602888","161670.637172","147820.785591","160912.847167","Mapping"
"Blocked","m150","ball","4","m150bluff.wav","None","720.903787529","125","156304.025157","148587.439901","149354.190673","150120.783148","150887.366967","151654.021586","152420.781324","153187.237454","157070.695235","157837.062941","158604.02055","159370.678261","160137.237037","160903.602888","161670.637172","162436.73528","161680.13992","Mapping"
"Blocked","m150","ball","4","m150lash.wav","None","721.462772693","125","156304.025157","163203.753796","149354.190673","150120.783148","150887.366967","151654.021586","152420.781324","153187.237454","157070.695235","157837.062941","158604.02055","159370.678261","160137.237037","160903.602888","161670.637172","162436.73528","162446.02748","Mapping"
"Blocked","m150","ball","4","m150romp.wav","None","720.322232693","125","156304.025157","163203.753796","163970.327721","150120.783148","150887.366967","151654.021586","152420.781324","153187.237454","157070.695235","157837.062941","158604.02055","159370.678261","160137.237037","160903.602888","161670.637172","162436.73528","163213.785848","Mapping"
"Blocked","m150","ball","4","m150knife.wav","None","721.425671829","125","156304.025157","163203.753796","163970.327721","164737.084058","150887.366967","151654.021586","152420.781324","153187.237454","157070.695235","157837.062941","158604.02055","159370.678261","160137.237037","160903.602888","161670.637172","162436.73528","163979.475847","Mapping"
"Blocked","m150","ball","4","m150jaw.wav","None","720.716737676","125","156304.025157","163203.753796","163970.327721","164737.084058","165503.826791","151654.021586","152420.781324","153187.237454","157070.695235","157837.062941","158604.02055","159370.678261","160137.237037","160903.602888","161670.637172","162436.73528","164746.663171","Mapping"
"Blocked","m150","ball","4","m150ball.wav","None","720.349439885","125","156304.025157","163203.753796","163970.327721","164737.084058","165503.826791","166270.345993","152420.781324","153187.237454","157070.695235","157837.062941","158604.02055","159370.678261","160137.237037","160903.602888","161670.637172","162436.73528","165513.586153","Mapping"
"Blocked","m150","ball","4","m150jolt.wav","space","362.997161923","125","156304.025157","163203.753796","163970.327721","164737.084058","165503.826791","166270.345993","167037.195082","153187.237454","157070.695235","157837.062941","158604.02055","159370.678261","160137.237037","160903.602888","161670.637172","162436.73528","166280.750908","Mapping"
"Blocked","m150","ball","4","m150cad.wav","None","720.154969953","125","156304.025157","163203.753796","163970.327721","164737.084058","165503.826791","166270.345993","167037.195082","167803.690168","157070.695235","157837.062941","158604.02055","159370.678261","160137.237037","160903.602888","161670.637172","162436.73528","167046.613734","Mapping"
"Blocked","m150","done","20","m150tile.wav","None","719.537860248","125","170920.41078","163203.753796","163970.327721","164737.084058","165503.826791","166270.345993","167037.195082","167803.690168","157070.695235","157837.062941","158604.02055","159370.678261","160137.237037","160903.602888","161670.637172","162436.73528","167813.658221","Mapping"
"Blocked","m150","done","20","m150park.wav","None","722.775212955","125","170920.41078","163203.753796","163970.327721","164737.084058","165503.826791","166270.345993","167037.195082","167803.690168","171686.83692","157837.062941","158604.02055","159370.678261","160137.237037","160903.602888","161670.637172","162436.73528","170930.086355","Mapping"
"Blocked","m150","done","20","m150cave.wav","None","722.317945678","125","170920.41078","163203.753796","163970.327721","164737.084058","165503.826791","166270.345993","167037.195082","167803.690168","171686.83692","172453.65942","158604.02055","159370.678261","160137.237037","160903.602888","161670.637172","162436.73528","171697.15774","Mapping"
"Blocked","m150","done","20","m150gnash.wav","None","722.565284232","125","170920.41078","163203.753796","163970.327721","164737.084058","165503.826791","166270.345993","167037.195082","167803.690168","171686.83692","172453.65942","173220.275084","159370.678261","160137.237037","160903.602888","161670.637172","162436.73528","172463.325721","Mapping"
"Blocked","m150","done","20","m150reek.wav","None","722.357210703","125","170920.41078","163203.753796","163970.327721","164737.084058","165503.826791","166270.345993","167037.195082","167803.690168","171686.83692","172453.65942","173220.275084","173986.967732","160137.237037","160903.602888","161670.637172","162436.73528","173230.047121","Mapping"
"Blocked","m150","done","20","m150done.wav","None","722.559409915","125","170920.41078","163203.753796","163970.327721","164737.084058","165503.826791","166270.345993","167037.195082","167803.690168","171686.83692","172453.65942","173220.275084","173986.967732","174753.597307","160903.602888","161670.637172","162436.73528","173996.882298","Mapping"
"Blocked","m150","done","20","m150romp.wav","space","376.42455427","125","170920.41078","163203.753796","163970.327721","164737.084058","165503.826791","166270.345993","167037.195082","167803.690168","171686.83692","172453.65942","173220.275084","173986.967732","174753.597307","175520.231831","161670.637172","162436.73528","174763.171474","Mapping"
"Blocked","m150","done","20","m150lash.wav","None","722.115746234","125","170920.41078","163203.753796","163970.327721","164737.084058","165503.826791","166270.345993","167037.195082","167803.690168","171686.83692","172453.65942","173220.275084","173986.967732","174753.597307","175520.231831","176286.874083","162436.73528","175530.041587","Mapping"
"Blocked","m150","done","20","m150done.wav","None","722.441305639","125","170920.41078","163203.753796","163970.327721","164737.084058","165503.826791","166270.345993","167037.195082","167803.690168","171686.83692","172453.65942","173220.275084","173986.967732","174753.597307","175520.231831","176286.874083","177053.558692","176296.312522","Mapping"
"Blocked","m150","done","20","m150tile.wav","space","427.638167283","125","170920.41078","177820.26247","163970.327721","164737.084058","165503.826791","166270.345993","167037.195082","167803.690168","171686.83692","172453.65942","173220.275084","173986.967732","174753.597307","175520.231831","176286.874083","177053.558692","177063.935163","Mapping"
"Blocked","m150","done","20","m150cave.wav","None","721.65847919","125","170920.41078","177820.26247","178586.942132","164737.084058","165503.826791","166270.345993","167037.195082","167803.690168","171686.83692","172453.65942","173220.275084","173986.967732","174753.597307","175520.231831","176286.874083","177053.558692","177829.821178","Mapping"
"Blocked","m150","done","20","m150done.wav","None","721.551196184","125","170920.41078","177820.26247","178586.942132","179353.579128","165503.826791","166270.345993","167037.195082","167803.690168","171686.83692","172453.65942","173220.275084","173986.967732","174753.597307","175520.231831","176286.874083","177053.558692","178596.409943","Mapping"
"Blocked","m150","done","20","m150reek.wav","space","384.510360891","125","170920.41078","177820.26247","178586.942132","179353.579128","180120.323717","166270.345993","167037.195082","167803.690168","171686.83692","172453.65942","173220.275084","173986.967732","174753.597307","175520.231831","176286.874083","177053.558692","179363.043847","Mapping"
"Blocked","m150","done","20","m150depth.wav","None","721.65353247","125","170920.41078","177820.26247","178586.942132","179353.579128","180120.323717","180886.824677","167037.195082","167803.690168","171686.83692","172453.65942","173220.275084","173986.967732","174753.597307","175520.231831","176286.874083","177053.558692","180129.954771","Mapping"
"Blocked","m150","done","20","m150done.wav","None","721.591079375","125","170920.41078","177820.26247","178586.942132","179353.579128","180120.323717","180886.824677","181653.656762","167803.690168","171686.83692","172453.65942","173220.275084","173986.967732","174753.597307","175520.231831","176286.874083","177053.558692","180896.618047","Mapping"
"Blocked","m150","done","20","m150knife.wav","space","348.23445091","125","170920.41078","177820.26247","178586.942132","179353.579128","180120.323717","180886.824677","181653.656762","182420.264696","171686.83692","172453.65942","173220.275084","173986.967732","174753.597307","175520.231831","176286.874083","177053.558692","181663.231547","Mapping"
"Blocked","m150","tile","17","m150lash.wav","None","721.195337828","125","185553.395912","177820.26247","178586.942132","179353.579128","180120.323717","180886.824677","181653.656762","182420.264696","171686.83692","172453.65942","173220.275084","173986.967732","174753.597307","175520.231831","176286.874083","177053.558692","182429.826186","Mapping"
"Blocked","m150","tile","17","m150tile.wav","None","723.329560366","125","185553.395912","177820.26247","178586.942132","179353.579128","180120.323717","180886.824677","181653.656762","182420.264696","186320.344555","172453.65942","173220.275084","173986.967732","174753.597307","175520.231831","176286.874083","177053.558692","185563.225456","Mapping"
"Blocked","m150","tile","17","m150park.wav","space","473.328091903","125","185553.395912","177820.26247","178586.942132","179353.579128","180120.323717","180886.824677","181653.656762","182420.264696","186320.344555","187086.629403","173220.275084","173986.967732","174753.597307","175520.231831","176286.874083","177053.558692","186330.052593","Mapping"
"Blocked","m150","tile","17","m150tile.wav","None","723.53887069","125","185553.395912","177820.26247","178586.942132","179353.579128","180120.323717","180886.824677","181653.656762","182420.264696","186320.344555","187086.629403","187853.406455","173986.967732","174753.597307","175520.231831","176286.874083","177053.558692","187096.027341","Mapping"
"Blocked","m150","tile","17","m150ball.wav","space","332.15558948","125","185553.395912","177820.26247","178586.942132","179353.579128","180120.323717","180886.824677","181653.656762","182420.264696","186320.344555","187086.629403","187853.406455","188620.120435","174753.597307","175520.231831","176286.874083","177053.558692","187863.243728","Mapping"
"Blocked","m150","tile","17","m150tile.wav","None","722.941857064","125","185553.395912","177820.26247","178586.942132","179353.579128","180120.323717","180886.824677","181653.656762","182420.264696","186320.344555","187086.629403","187853.406455","188620.120435","189386.721568","175520.231831","176286.874083","177053.558692","188630.216795","Mapping"
"Blocked","m150","tile","17","m150cling.wav","space","391.135014826","125","185553.395912","177820.26247","178586.942132","179353.579128","180120.323717","180886.824677","181653.656762","182420.264696","186320.344555","187086.629403","187853.406455","188620.120435","189386.721568","190153.27416","176286.874083","177053.558692","189396.215658","Mapping"
"Blocked","m150","tile","17","m150reek.wav","None","723.249484552","125","185553.395912","177820.26247","178586.942132","179353.579128","180120.323717","180886.824677","181653.656762","182420.264696","186320.344555","187086.629403","187853.406455","188620.120435","189386.721568","190153.27416","190920.205489","177053.558692","190162.868732","Mapping"
"Blocked","m150","tile","17","m150tile.wav","None","722.854051972","125","185553.395912","177820.26247","178586.942132","179353.579128","180120.323717","180886.824677","181653.656762","182420.264696","186320.344555","187086.629403","187853.406455","188620.120435","189386.721568","190153.27416","190920.205489","191686.287829","190930.003497","Mapping"
"Blocked","m150","tile","17","m150cave.wav","space","387.719887774","125","185553.395912","192453.224414","178586.942132","179353.579128","180120.323717","180886.824677","181653.656762","182420.264696","186320.344555","187086.629403","187853.406455","188620.120435","189386.721568","190153.27416","190920.205489","191686.287829","191695.610019","Mapping"
"Blocked","m150","tile","17","m150priest.wav","None","723.203108413","125","185553.395912","192453.224414","193220.249113","179353.579128","180120.323717","180886.824677","181653.656762","182420.264696","186320.344555","187086.629403","187853.406455","188620.120435","189386.721568","190153.27416","190920.205489","191686.287829","192462.754369","Mapping"
"Blocked","m150","tile","17","m150cave.wav","None","723.02440647","125","185553.395912","192453.224414","193220.249113","193986.572917","180120.323717","180886.824677","181653.656762","182420.264696","186320.344555","187086.629403","187853.406455","188620.120435","189386.721568","190153.27416","190920.205489","191686.287829","193230.17481","Mapping"
"Blocked","m150","tile","17","m150bluff.wav","None","723.639660981","125","185553.395912","192453.224414","193220.249113","193986.572917","194752.643508","180886.824677","181653.656762","182420.264696","186320.344555","187086.629403","187853.406455","188620.120435","189386.721568","190153.27416","190920.205489","191686.287829","193996.348974","Mapping"
"Blocked","m150","tile","17","m150depth.wav","None","725.337949581","125","185553.395912","192453.224414","193220.249113","193986.572917","194752.643508","195519.6039","181653.656762","182420.264696","186320.344555","187086.629403","187853.406455","188620.120435","189386.721568","190153.27416","190920.205489","191686.287829","194761.417844","Mapping"
"Blocked","m150","tile","17","m150depth.wav","None","724.817920243","125","185553.395912","192453.224414","193220.249113","193986.572917","194752.643508","195519.6039","196285.982736","182420.264696","186320.344555","187086.629403","187853.406455","188620.120435","189386.721568","190153.27416","190920.205489","191686.287829","195528.702867","Mapping"
"Blocked","m150","tile","17","m150cad.wav","None","717.499481514","125","185553.395912","192453.224414","193220.249113","193986.572917","194752.643508","195519.6039","196285.982736","197052.824405","186320.344555","187086.629403","187853.406455","188620.120435","189386.721568","190153.27416","190920.205489","191686.287829","196302.784445","Mapping"
"Blocked","m150","ball","6","m150cling.wav","None","724.837088957","125","200203.121536","192453.224414","193220.249113","193986.572917","194752.643508","195519.6039","196285.982736","197052.824405","186320.344555","187086.629403","187853.406455","188620.120435","189386.721568","190153.27416","190920.205489","191686.287829","197062.445257","Mapping"
"Blocked","m150","ball","6","m150priest.wav","None","721.437111264","125","200203.121536","192453.224414","193220.249113","193986.572917","194752.643508","195519.6039","196285.982736","197052.824405","200969.85685","187086.629403","187853.406455","188620.120435","189386.721568","190153.27416","190920.205489","191686.287829","200213.743491","Mapping"
"Blocked","m150","ball","6","m150ball.wav","None","722.136460943","125","200203.121536","192453.224414","193220.249113","193986.572917","194752.643508","195519.6039","196285.982736","197052.824405","200969.85685","201736.156847","187853.406455","188620.120435","189386.721568","190153.27416","190920.205489","191686.287829","200979.732769","Mapping"
"Blocked","m150","ball","6","m150dime.wav","space","545.637828996","125","200203.121536","192453.224414","193220.249113","193986.572917","194752.643508","195519.6039","196285.982736","197052.824405","200969.85685","201736.156847","202503.080447","188620.120435","189386.721568","190153.27416","190920.205489","191686.287829","201745.492332","Mapping"
"Blocked","m150","ball","6","m150done.wav","None","721.310350345","125","200203.121536","192453.224414","193220.249113","193986.572917","194752.643508","195519.6039","196285.982736","197052.824405","200969.85685","201736.156847","202503.080447","203269.47938","189386.721568","190153.27416","190920.205489","191686.287829","202513.626963","Mapping"
"Blocked","m150","ball","6","m150ball.wav","None","722.841994371","125","200203.121536","192453.224414","193220.249113","193986.572917","194752.643508","195519.6039","196285.982736","197052.824405","200969.85685","201736.156847","202503.080447","203269.47938","204036.247157","190153.27416","190920.205489","191686.287829","203278.936061","Mapping"
"Blocked","m150","ball","6","m150jolt.wav","space","349.000891205","125","200203.121536","192453.224414","193220.249113","193986.572917","194752.643508","195519.6039","196285.982736","197052.824405","200969.85685","201736.156847","202503.080447","203269.47938","204036.247157","204803.211568","190920.205489","191686.287829","204046.081338","Mapping"
"Blocked","m150","ball","6","m150reek.wav","None","721.722478047","125","200203.121536","192453.224414","193220.249113","193986.572917","194752.643508","195519.6039","196285.982736","197052.824405","200969.85685","201736.156847","202503.080447","203269.47938","204036.247157","204803.211568","205569.867424","191686.287829","204813.32215","Mapping"
"Blocked","m150","ball","6","m150ball.wav","None","721.969816601","125","200203.121536","192453.224414","193220.249113","193986.572917","194752.643508","195519.6039","196285.982736","197052.824405","200969.85685","201736.156847","202503.080447","203269.47938","204036.247157","204803.211568","205569.867424","206336.255535","205579.921118","Mapping"
"Blocked","m150","ball","6","m150dime.wav","space","344.564256025","125","200203.121536","207103.004453","193220.249113","193986.572917","194752.643508","195519.6039","196285.982736","197052.824405","200969.85685","201736.156847","202503.080447","203269.47938","204036.247157","204803.211568","205569.867424","206336.255535","206346.437227","Mapping"
"Blocked","m150","ball","6","m150lash.wav","None","721.923440695","125","200203.121536","207103.004453","207869.328875","193986.572917","194752.643508","195519.6039","196285.982736","197052.824405","200969.85685","201736.156847","202503.080447","203269.47938","204036.247157","204803.211568","205569.867424","206336.255535","207112.970651","Mapping"
"Blocked","m150","ball","6","m150cad.wav","None","722.72605449","125","200203.121536","207103.004453","207869.328875","208636.028942","194752.643508","195519.6039","196285.982736","197052.824405","200969.85685","201736.156847","202503.080447","203269.47938","204036.247157","204803.211568","205569.867424","206336.255535","207878.891911","Mapping"
"Blocked","m150","ball","6","m150cad.wav","None","722.86209045","125","200203.121536","207103.004453","207869.328875","208636.028942","209402.926881","195519.6039","196285.982736","197052.824405","200969.85685","201736.156847","202503.080447","203269.47938","204036.247157","204803.211568","205569.867424","206336.255535","208645.637118","Mapping"
"Blocked","m150","ball","6","m150ball.wav","None","721.978473477","125","200203.121536","207103.004453","207869.328875","208636.028942","209402.926881","210169.86192","196285.982736","197052.824405","200969.85685","201736.156847","202503.080447","203269.47938","204036.247157","204803.211568","205569.867424","206336.255535","209413.343544","Mapping"
"Blocked","m150","ball","6","m150dime.wav","space","383.06064764","125","200203.121536","207103.004453","207869.328875","208636.028942","209402.926881","210169.86192","210936.160681","197052.824405","200969.85685","201736.156847","202503.080447","203269.47938","204036.247157","204803.211568","205569.867424","206336.255535","210179.918706","Mapping"
"Blocked","m150","ball","6","m150reek.wav","None","722.579197027","125","200203.121536","207103.004453","207869.328875","208636.028942","209402.926881","210169.86192","210936.160681","211703.088919","200969.85685","201736.156847","202503.080447","203269.47938","204036.247157","204803.211568","205569.867424","206336.255535","210945.920661","Mapping"
"Blocked","m150","tile","15","m150gnash.wav","None","721.857277444","125","214836.188909","207103.004453","207869.328875","208636.028942","209402.926881","210169.86192","210936.160681","211703.088919","200969.85685","201736.156847","202503.080447","203269.47938","204036.247157","204803.211568","205569.867424","206336.255535","211713.552267","Mapping"
"Blocked","m150","tile","15","m150ball.wav","None","723.247320158","125","214836.188909","207103.004453","207869.328875","208636.028942","209402.926881","210169.86192","210936.160681","211703.088919","215602.635454","201736.156847","202503.080447","203269.47938","204036.247157","204803.211568","205569.867424","206336.255535","214845.874687","Mapping"
"Blocked","m150","tile","15","m150tile.wav","None","723.889473127","125","214836.188909","207103.004453","207869.328875","208636.028942","209402.926881","210169.86192","210936.160681","211703.088919","215602.635454","216369.680868","202503.080447","203269.47938","204036.247157","204803.211568","205569.867424","206336.255535","215612.072348","Mapping"
"Blocked","m150","tile","15","m150bluff.wav","space","399.070872692","125","214836.188909","207103.004453","207869.328875","208636.028942","209402.926881","210169.86192","210936.160681","211703.088919","215602.635454","216369.680868","217136.128651","203269.47938","204036.247157","204803.211568","205569.867424","206336.255535","216379.785576","Mapping"
"Blocked","m150","tile","15","m150lash.wav","None","723.333579721","125","214836.188909","207103.004453","207869.328875","208636.028942","209402.926881","210169.86192","210936.160681","211703.088919","215602.635454","216369.680868","217136.128651","217902.438542","204036.247157","204803.211568","205569.867424","206336.255535","217145.830506","Mapping"
"Blocked","m150","tile","15","m150greet.wav","None","723.873086739","125","214836.188909","207103.004453","207869.328875","208636.028942","209402.926881","210169.86192","210936.160681","211703.088919","215602.635454","216369.680868","217136.128651","217902.438542","218669.225487","204803.211568","205569.867424","206336.255535","217912.263448","Mapping"
"Blocked","m150","tile","15","m150knife.wav","None","723.857937381","125","214836.188909","207103.004453","207869.328875","208636.028942","209402.926881","210169.86192","210936.160681","211703.088919","215602.635454","216369.680868","217136.128651","217902.438542","218669.225487","219436.612538","205569.867424","206336.255535","218679.29093","Mapping"
"Blocked","m150","tile","15","m150depth.wav","None","723.907714244","125","214836.188909","207103.004453","207869.328875","208636.028942","209402.926881","210169.86192","210936.160681","211703.088919","215602.635454","216369.680868","217136.128651","217902.438542","218669.225487","219436.612538","220202.409201","206336.255535","219446.233389","Mapping"
"Blocked","m150","tile","15","m150bluff.wav","None","724.516785471","125","214836.188909","207103.004453","207869.328875","208636.028942","209402.926881","210169.86192","210936.160681","211703.088919","215602.635454","216369.680868","217136.128651","217902.438542","218669.225487","219436.612538","220202.409201","220969.122873","220212.611299","Mapping"
"Blocked","m150","tile","15","m150tile.wav","None","725.340731908","125","214836.188909","221735.497072","207869.328875","208636.028942","209402.926881","210169.86192","210936.160681","211703.088919","215602.635454","216369.680868","217136.128651","217902.438542","218669.225487","219436.612538","220202.409201","220969.122873","220978.727957","Mapping"
"Blocked","m150","tile","15","m150jaw.wav","space","378.150667995","125","214836.188909","221735.497072","222502.408305","208636.028942","209402.926881","210169.86192","210936.160681","211703.088919","215602.635454","216369.680868","217136.128651","217902.438542","218669.225487","219436.612538","220202.409201","220969.122873","221744.622937","Mapping"
"Blocked","m150","tile","15","m150tile.wav","None","725.462546339","125","214836.188909","221735.497072","222502.408305","223269.1093","209402.926881","210169.86192","210936.160681","211703.088919","215602.635454","216369.680868","217136.128651","217902.438542","218669.225487","219436.612538","220202.409201","220969.122873","222511.711635","Mapping"
"Blocked","m150","tile","15","m150priest.wav","None","725.908992346","125","214836.188909","221735.497072","222502.408305","223269.1093","224035.62541","210169.86192","210936.160681","211703.088919","215602.635454","216369.680868","217136.128651","217902.438542","218669.225487","219436.612538","220202.409201","220969.122873","223278.297618","Mapping"
"Blocked","m150","tile","15","m150tile.wav","space","69.4276245777","125","214836.188909","221735.497072","222502.408305","223269.1093","224035.62541","224802.354849","210936.160681","211703.088919","215602.635454","216369.680868","217136.128651","217902.438542","218669.225487","219436.612538","220202.409201","220969.122873","224045.323245","Mapping"
"Blocked","m150","tile","15","m150jolt.wav","space","582.916696556","125","214836.188909","221735.497072","222502.408305","223269.1093","224035.62541","224802.354849","225568.755018","211703.088919","215602.635454","216369.680868","217136.128651","217902.438542","218669.225487","219436.612538","220202.409201","220969.122873","224811.790506","Mapping"
"Blocked","m150","tile","15","m150park.wav","None","726.319574518","125","214836.188909","221735.497072","222502.408305","223269.1093","224035.62541","224802.354849","225568.755018","226335.62946","215602.635454","216369.680868","217136.128651","217902.438542","218669.225487","219436.612538","220202.409201","220969.122873","225577.81503","Mapping"
"Blocked","m150","tile","16","m150cave.wav","None","726.096042199","125","229469.357999","221735.497072","222502.408305","223269.1093","224035.62541","224802.354849","225568.755018","226335.62946","215602.635454","216369.680868","217136.128651","217902.438542","218669.225487","219436.612538","220202.409201","220969.122873","226344.993389","Mapping"
"Blocked","m150","tile","16","m150park.wav","None","722.770575201","125","229469.357999","221735.497072","222502.408305","223269.1093","224035.62541","224802.354849","225568.755018","226335.62946","230235.863287","216369.680868","217136.128651","217902.438542","218669.225487","219436.612538","220202.409201","220969.122873","229479.488677","Mapping"
"Blocked","m150","tile","16","m150depth.wav","None","723.686037119","125","229469.357999","221735.497072","222502.408305","223269.1093","224035.62541","224802.354849","225568.755018","226335.62946","230235.863287","231002.219864","217136.128651","217902.438542","218669.225487","219436.612538","220202.409201","220969.122873","230245.64831","Mapping"
"Blocked","m150","tile","16","m150greet.wav","None","724.707236281","125","229469.357999","221735.497072","222502.408305","223269.1093","224035.62541","224802.354849","225568.755018","226335.62946","230235.863287","231002.219864","231768.958269","217902.438542","218669.225487","219436.612538","220202.409201","220969.122873","231011.581319","Mapping"
"Blocked","m150","tile","16","m150tile.wav","None","725.013317773","125","229469.357999","221735.497072","222502.408305","223269.1093","224035.62541","224802.354849","225568.755018","226335.62946","230235.863287","231002.219864","231768.958269","232535.472523","218669.225487","219436.612538","220202.409201","220969.122873","231778.179669","Mapping"
"Blocked","m150","tile","16","m150done.wav","space","377.621982014","125","229469.357999","221735.497072","222502.408305","223269.1093","224035.62541","224802.354849","225568.755018","226335.62946","230235.863287","231002.219864","231768.958269","232535.472523","233301.946895","219436.612538","220202.409201","220969.122873","232544.918383","Mapping"
"Blocked","m150","tile","16","m150tile.wav","None","725.506139919","125","229469.357999","221735.497072","222502.408305","223269.1093","224035.62541","224802.354849","225568.755018","226335.62946","230235.863287","231002.219864","231768.958269","232535.472523","233301.946895","234069.456378","220202.409201","220969.122873","233311.015563","Mapping"
"Blocked","m150","tile","16","m150depth.wav","space","388.067707652","125","229469.357999","221735.497072","222502.408305","223269.1093","224035.62541","224802.354849","225568.755018","226335.62946","230235.863287","231002.219864","231768.958269","232535.472523","233301.946895","234069.456378","234835.478738","220969.122873","234078.504641","Mapping"
"Blocked","m150","tile","16","m150reek.wav","None","724.595006322","125","229469.357999","221735.497072","222502.408305","223269.1093","224035.62541","224802.354849","225568.755018","226335.62946","230235.863287","231002.219864","231768.958269","232535.472523","233301.946895","234069.456378","234835.478738","235602.129956","234845.218621","Mapping"
"Blocked","m150","tile","16","m150greet.wav","None","725.35062558","125","229469.357999","236368.896496","222502.408305","223269.1093","224035.62541","224802.354849","225568.755018","226335.62946","230235.863287","231002.219864","231768.958269","232535.472523","233301.946895","234069.456378","234835.478738","235602.129956","235611.493576","Mapping"
"Blocked","m150","tile","16","m150tile.wav","None","725.970827043","125","229469.357999","236368.896496","237135.39962","223269.1093","224035.62541","224802.354849","225568.755018","226335.62946","230235.863287","231002.219864","231768.958269","232535.472523","233301.946895","234069.456378","234835.478738","235602.129956","236378.031637","Mapping"
"Blocked","m150","tile","16","m150reek.wav","space","377.861900255","125","229469.357999","236368.896496","237135.39962","237902.17389","224035.62541","224802.354849","225568.755018","226335.62946","230235.863287","231002.219864","231768.958269","232535.472523","233301.946895","234069.456378","234835.478738","235602.129956","237144.62504","Mapping"
"Blocked","m150","tile","16","m150tile.wav","None","725.86261644","125","229469.357999","236368.896496","237135.39962","237902.17389","238668.883542","224802.354849","225568.755018","226335.62946","230235.863287","231002.219864","231768.958269","232535.472523","233301.946895","234069.456378","234835.478738","235602.129956","237911.499172","Mapping"
"Blocked","m150","tile","16","m150knife.wav","space","515.082550934","125","229469.357999","236368.896496","237135.39962","237902.17389","238668.883542","239435.646681","225568.755018","226335.62946","230235.863287","231002.219864","231768.958269","232535.472523","233301.946895","234069.456378","234835.478738","235602.129956","238679.354929","Mapping"
"Blocked","m150","tile","16","m150gnash.wav","None","725.878074998","125","229469.357999","236368.896496","237135.39962","237902.17389","238668.883542","239435.646681","240202.044377","226335.62946","230235.863287","231002.219864","231768.958269","232535.472523","233301.946895","234069.456378","234835.478738","235602.129956","239444.829434","Mapping"
"Blocked","m150","tile","16","m150jaw.wav","None","726.497658063","125","229469.357999","236368.896496","237135.39962","237902.17389","238668.883542","239435.646681","240202.044377","240968.802878","230235.863287","231002.219864","231768.958269","232535.472523","233301.946895","234069.456378","234835.478738","235602.129956","240211.292366","Mapping"
"Blocked","m150","cave","8","m150depth.wav","None","726.773749804","125","244102.391362","236368.896496","237135.39962","237902.17389","238668.883542","239435.646681","240202.044377","240968.802878","230235.863287","231002.219864","231768.958269","232535.472523","233301.946895","234069.456378","234835.478738","235602.129956","240978.058287","Mapping"
"Blocked","m150","cave","8","m150cave.wav","None","720.424568979","125","244102.391362","236368.896496","237135.39962","237902.17389","238668.883542","239435.646681","240202.044377","240968.802878","244869.215717","231002.219864","231768.958269","232535.472523","233301.946895","234069.456378","234835.478738","235602.129956","244113.978555","Mapping"
"Blocked","m150","cave","8","m150jaw.wav","space","459.00842594","125","244102.391362","236368.896496","237135.39962","237902.17389","238668.883542","239435.646681","240202.044377","240968.802878","244869.215717","245635.690089","231768.958269","232535.472523","233301.946895","234069.456378","234835.478738","235602.129956","244879.335884","Mapping"
"Blocked","m150","cave","8","m150tile.wav","None","721.600972814","125","244102.391362","236368.896496","237135.39962","237902.17389","238668.883542","239435.646681","240202.044377","240968.802878","244869.215717","245635.690089","246402.159822","232535.472523","233301.946895","234069.456378","234835.478738","235602.129956","245645.790468","Mapping"
"Blocked","m150","cave","8","m150lash.wav","None","720.214640256","125","244102.391362","236368.896496","237135.39962","237902.17389","238668.883542","239435.646681","240202.044377","240968.802878","244869.215717","245635.690089","246402.159822","247169.120523","233301.946895","234069.456378","234835.478738","235602.129956","246414.057116","Mapping"
"Blocked","m150","cave","8","m150cave.wav","None","720.953873591","125","244102.391362","236368.896496","237135.39962","237902.17389","238668.883542","239435.646681","240202.044377","240968.802878","244869.215717","245635.690089","246402.159822","247169.120523","247935.62643","234069.456378","234835.478738","235602.129956","247180.239319","Mapping"
"Blocked","m150","cave","8","m150lash.wav","space","479.74467231","125","244102.391362","236368.896496","237135.39962","237902.17389","238668.883542","239435.646681","240202.044377","240968.802878","244869.215717","245635.690089","246402.159822","247169.120523","247935.62643","248702.629796","234835.478738","235602.129956","247946.550137","Mapping"
"Blocked","m150","cave","8","m150greet.wav","None","722.235396272","125","244102.391362","236368.896496","237135.39962","237902.17389","238668.883542","239435.646681","240202.044377","240968.802878","244869.215717","245635.690089","246402.159822","247169.120523","247935.62643","248702.629796","249468.998121","235602.129956","248712.212929","Mapping"
"Blocked","m150","cave","8","m150cave.wav","None","718.321881955","125","244102.391362","236368.896496","237135.39962","237902.17389","238668.883542","239435.646681","240202.044377","240968.802878","244869.215717","245635.690089","246402.159822","247169.120523","247935.62643","248702.629796","249468.998121","250235.609456","249483.606246","Mapping"
"Blocked","m150","cave","8","m150cad.wav","space","379.418896744","125","244102.391362","251001.990148","237135.39962","237902.17389","238668.883542","239435.646681","240202.044377","240968.802878","244869.215717","245635.690089","246402.159822","247169.120523","247935.62643","248702.629796","249468.998121","250235.609456","250246.83739","Mapping"
"Blocked","m150","cave","8","m150depth.wav","None","724.370546639","125","244102.391362","251001.990148","251768.286126","237902.17389","238668.883542","239435.646681","240202.044377","240968.802878","244869.215717","245635.690089","246402.159822","247169.120523","247935.62643","248702.629796","249468.998121","250235.609456","251010.891553","Mapping"
"Blocked","m150","cave","8","m150lash.wav","None","724.921802292","125","244102.391362","251001.990148","251768.286126","252535.168297","238668.883542","239435.646681","240202.044377","240968.802878","244869.215717","245635.690089","246402.159822","247169.120523","247935.62643","248702.629796","249468.998121","250235.609456","251777.419721","Mapping"
"Blocked","m150","cave","8","m150cling.wav","None","725.269931369","125","244102.391362","251001.990148","251768.286126","252535.168297","253301.811786","239435.646681","240202.044377","240968.802878","244869.215717","245635.690089","246402.159822","247169.120523","247935.62643","248702.629796","249468.998121","250235.609456","252544.178222","Mapping"
"Blocked","m150","cave","8","m150bluff.wav","None","725.399784278","125","244102.391362","251001.990148","251768.286126","252535.168297","253301.811786","254068.710343","240202.044377","240968.802878","244869.215717","245635.690089","246402.159822","247169.120523","247935.62643","248702.629796","249468.998121","250235.609456","253311.091001","Mapping"
"Blocked","m150","cave","8","m150cave.wav","None","725.062476238","125","244102.391362","251001.990148","251768.286126","252535.168297","253301.811786","254068.710343","254835.160908","240968.802878","244869.215717","245635.690089","246402.159822","247169.120523","247935.62643","248702.629796","249468.998121","250235.609456","254078.555345","Mapping"
"Blocked","m150","cave","8","m150cling.wav","space","318.022046005","125","244102.391362","251001.990148","251768.286126","252535.168297","253301.811786","254068.710343","254835.160908","255601.788629","244869.215717","245635.690089","246402.159822","247169.120523","247935.62643","248702.629796","249468.998121","250235.609456","254844.180727","Mapping"
"Blocked","m150","tile","14","m150gnash.wav","None","725.4161702","125","258735.429672","251001.990148","251768.286126","252535.168297","253301.811786","254068.710343","254835.160908","255601.788629","244869.215717","245635.690089","246402.159822","247169.120523","247935.62643","248702.629796","249468.998121","250235.609456","255611.402679","Mapping"
"Blocked","m150","tile","14","m150knife.wav","None","723.108810605","125","258735.429672","251001.990148","251768.286126","252535.168297","253301.811786","254068.710343","254835.160908","255601.788629","259501.199128","245635.690089","246402.159822","247169.120523","247935.62643","248702.629796","249468.998121","250235.609456","258745.173575","Mapping"
"Blocked","m150","tile","14","m150priest.wav","None","728.773791343","125","258735.429672","251001.990148","251768.286126","252535.168297","253301.811786","254068.710343","254835.160908","255601.788629","259501.199128","260268.473021","246402.159822","247169.120523","247935.62643","248702.629796","249468.998121","250235.609456","259510.105171","Mapping"
"Blocked","m150","tile","14","m150done.wav","None","728.233974893","125","258735.429672","251001.990148","251768.286126","252535.168297","253301.811786","254068.710343","254835.160908","255601.788629","259501.199128","260268.473021","261034.998097","247169.120523","247935.62643","248702.629796","249468.998121","250235.609456","260277.761203","Mapping"
"Blocked","m150","tile","14","m150lash.wav","None","729.219618952","125","258735.429672","251001.990148","251768.286126","252535.168297","253301.811786","254068.710343","254835.160908","255601.788629","259501.199128","260268.473021","261034.998097","261801.657663","247935.62643","248702.629796","249468.998121","250235.609456","261044.101393","Mapping"
"Blocked","m150","tile","14","m150reek.wav","None","730.173109099","125","258735.429672","251001.990148","251768.286126","252535.168297","253301.811786","254068.710343","254835.160908","255601.788629","259501.199128","260268.473021","261034.998097","261801.657663","262568.419256","248702.629796","249468.998121","250235.609456","261810.59246","Mapping"
"Blocked","m150","tile","14","m150jaw.wav","None","730.973249534","125","258735.429672","251001.990148","251768.286126","252535.168297","253301.811786","254068.710343","254835.160908","255601.788629","259501.199128","260268.473021","261034.998097","261801.657663","262568.419256","263334.795001","249468.998121","250235.609456","262578.017847","Mapping"
"Blocked","m150","tile","14","m150tile.wav","None","732.240550453","125","258735.429672","251001.990148","251768.286126","252535.168297","253301.811786","254068.710343","254835.160908","255601.788629","259501.199128","260268.473021","261034.998097","261801.657663","262568.419256","263334.795001","264101.65924","250235.609456","263343.933543","Mapping"
"Blocked","m150","tile","14","m150reek.wav","space","395.110054873","125","258735.429672","251001.990148","251768.286126","252535.168297","253301.811786","254068.710343","254835.160908","255601.788629","259501.199128","260268.473021","261034.998097","261801.657663","262568.419256","263334.795001","264101.65924","264868.396408","264110.931035","Mapping"
"Blocked","m150","tile","14","m150greet.wav","None","736.419026274","125","258735.429672","265634.933851","251768.286126","252535.168297","253301.811786","254068.710343","254835.160908","255601.788629","259501.199128","260268.473021","261034.998097","261801.657663","262568.419256","263334.795001","264101.65924","264868.396408","264873.093986","Mapping"
"Blocked","m150","tile","14","m150tile.wav","None","732.54261259","125","258735.429672","265634.933851","266401.568683","252535.168297","253301.811786","254068.710343","254835.160908","255601.788629","259501.199128","260268.473021","261034.998097","261801.657663","262568.419256","263334.795001","264101.65924","264868.396408","265644.1333","Mapping"
"Blocked","m150","tile","14","m150reek.wav","space","438.605777221","125","258735.429672","265634.933851","266401.568683","267168.443125","253301.811786","254068.710343","254835.160908","255601.788629","259501.199128","260268.473021","261034.998097","261801.657663","262568.419256","263334.795001","264101.65924","264868.396408","266411.376894","Mapping"
"Blocked","m150","tile","14","m150tile.wav","None","732.209014473","125","258735.429672","265634.933851","266401.568683","267168.443125","267935.077647","254068.710343","254835.160908","255601.788629","259501.199128","260268.473021","261034.998097","261801.657663","262568.419256","263334.795001","264101.65924","264868.396408","267177.99534","Mapping"
"Blocked","m150","tile","14","m150depth.wav","space","368.394707795","125","258735.429672","265634.933851","266401.568683","267168.443125","267935.077647","268701.664867","254835.160908","255601.788629","259501.199128","260268.473021","261034.998097","261801.657663","262568.419256","263334.795001","264101.65924","264868.396408","267945.579643","Mapping"
"Blocked","m150","tile","14","m150tile.wav","None","732.680503745","125","258735.429672","265634.933851","266401.568683","267168.443125","267935.077647","268701.664867","269468.186232","255601.788629","259501.199128","260268.473021","261034.998097","261801.657663","262568.419256","263334.795001","264101.65924","264868.396408","268711.034361","Mapping"
"Blocked","m150","tile","14","m150done.wav","space","404.567044694","125","258735.429672","265634.933851","266401.568683","267168.443125","267935.077647","268701.664867","269468.186232","270234.880735","259501.199128","260268.473021","261034.998097","261801.657663","262568.419256","263334.795001","264101.65924","264868.396408","269477.370222","Mapping"
"Blocked","m150","ball","3","m150cling.wav","None","733.091085684","125","273368.570318","265634.933851","266401.568683","267168.443125","267935.077647","268701.664867","269468.186232","270234.880735","259501.199128","260268.473021","261034.998097","261801.657663","262568.419256","263334.795001","264101.65924","264868.396408","270244.200761","Mapping"
"Blocked","m150","ball","3","m150ball.wav","None","722.415953642","125","273368.570318","265634.933851","266401.568683","267168.443125","267935.077647","268701.664867","269468.186232","270234.880735","274135.101577","260268.473021","261034.998097","261801.657663","262568.419256","263334.795001","264101.65924","264868.396408","273378.469735","Mapping"
"Blocked","m150","ball","3","m150lash.wav","space","345.016885549","125","273368.570318","265634.933851","266401.568683","267168.443125","267935.077647","268701.664867","269468.186232","270234.880735","274135.101577","274901.920677","261034.998097","261801.657663","262568.419256","263334.795001","264101.65924","264868.396408","274144.807761","Mapping"
"Blocked","m150","ball","3","m150jolt.wav","None","722.453981871","125","273368.570318","265634.933851","266401.568683","267168.443125","267935.077647","268701.664867","269468.186232","270234.880735","274135.101577","274901.920677","275668.581789","261801.657663","262568.419256","263334.795001","264101.65924","264868.396408","274911.785775","Mapping"
"Blocked","m150","ball","3","m150ball.wav","None","722.693900345","125","273368.570318","265634.933851","266401.568683","267168.443125","267935.077647","268701.664867","269468.186232","270234.880735","274135.101577","274901.920677","275668.581789","276434.714523","262568.419256","263334.795001","264101.65924","264868.396408","275678.788833","Mapping"
"Blocked","m150","ball","3","m150gnash.wav","space","365.441176342","125","273368.570318","265634.933851","266401.568683","267168.443125","267935.077647","268701.664867","269468.186232","270234.880735","274135.101577","274901.920677","275668.581789","276434.714523","277201.724074","263334.795001","264101.65924","264868.396408","276444.308168","Mapping"
"Blocked","m150","ball","3","m150ball.wav","None","723.599777557","125","273368.570318","265634.933851","266401.568683","267168.443125","267935.077647","268701.664867","269468.186232","270234.880735","274135.101577","274901.920677","275668.581789","276434.714523","277201.724074","277968.249149","264101.65924","264868.396408","277211.467976","Mapping"
"Blocked","m150","ball","3","m150reek.wav","space","391.963908449","125","273368.570318","265634.933851","266401.568683","267168.443125","267935.077647","268701.664867","269468.186232","270234.880735","274135.101577","274901.920677","275668.581789","276434.714523","277201.724074","277968.249149","278735.056191","264868.396408","277977.816823","Mapping"
"Blocked","m150","ball","3","m150ball.wav","None","723.409636412","125","273368.570318","265634.933851","266401.568683","267168.443125","267935.077647","268701.664867","269468.186232","270234.880735","274135.101577","274901.920677","275668.581789","276434.714523","277201.724074","277968.249149","278735.056191","279501.322798","278745.149459","Mapping"
"Blocked","m150","ball","3","m150tile.wav","space","379.101993982","125","273368.570318","280268.482915","266401.568683","267168.443125","267935.077647","268701.664867","269468.186232","270234.880735","274135.101577","274901.920677","275668.581789","276434.714523","277201.724074","277968.249149","278735.056191","279501.322798","279510.645606","Mapping"
"Blocked","m150","ball","3","m150done.wav","None","723.702423275","125","273368.570318","280268.482915","281034.597409","267168.443125","267935.077647","268701.664867","269468.186232","270234.880735","274135.101577","274901.920677","275668.581789","276434.714523","277201.724074","277968.249149","278735.056191","279501.322798","280278.206721","Mapping"
"Blocked","m150","ball","3","m150priest.wav","None","725.212116027","125","273368.570318","280268.482915","281034.597409","281801.297167","267935.077647","268701.664867","269468.186232","270234.880735","274135.101577","274901.920677","275668.581789","276434.714523","277201.724074","277968.249149","278735.056191","279501.322798","281044.230936","Mapping"
"Blocked","m150","ball","3","m150done.wav","None","726.189103443","125","273368.570318","280268.482915","281034.597409","281801.297167","282568.187685","268701.664867","269468.186232","270234.880735","274135.101577","274901.920677","275668.581789","276434.714523","277201.724074","277968.249149","278735.056191","279501.322798","281810.61843","Mapping"
"Blocked","m150","ball","3","m150romp.wav","None","725.474913139","125","273368.570318","280268.482915","281034.597409","281801.297167","282568.187685","283334.625574","269468.186232","270234.880735","274135.101577","274901.920677","275668.581789","276434.714523","277201.724074","277968.249149","278735.056191","279501.322798","282578.605895","Mapping"
"Blocked","m150","ball","3","m150jolt.wav","None","727.271209471","125","273368.570318","280268.482915","281034.597409","281801.297167","282568.187685","283334.625574","284101.319768","270234.880735","274135.101577","274901.920677","275668.581789","276434.714523","277201.724074","277968.249149","278735.056191","279501.322798","283344.006508","Mapping"
"Blocked","m150","ball","3","m150bluff.wav","None","727.959428914","125","273368.570318","280268.482915","281034.597409","281801.297167","282568.187685","283334.625574","284101.319768","284868.012106","274135.101577","274901.920677","275668.581789","276434.714523","277201.724074","277968.249149","278735.056191","279501.322798","284110.672257","Mapping"
"Blocked","m150","done","23","m150gnash.wav","None","728.643629234","125","288001.395917","280268.482915","281034.597409","281801.297167","282568.187685","283334.625574","284101.319768","284868.012106","274135.101577","274901.920677","275668.581789","276434.714523","277201.724074","277968.249149","278735.056191","279501.322798","284877.290394","Mapping"
"Blocked","m150","done","23","m150jolt.wav","None","723.467760719","125","288001.395917","280268.482915","281034.597409","281801.297167","282568.187685","283334.625574","284101.319768","284868.012106","288767.937688","274901.920677","275668.581789","276434.714523","277201.724074","277968.249149","278735.056191","279501.322798","288011.257306","Mapping"
"Blocked","m150","done","23","m150depth.wav","None","724.811427528","125","288001.395917","280268.482915","281034.597409","281801.297167","282568.187685","283334.625574","284101.319768","284868.012106","288767.937688","289534.711957","275668.581789","276434.714523","277201.724074","277968.249149","278735.056191","279501.322798","288777.191242","Mapping"
"Blocked","m150","done","23","m150cling.wav","None","725.029703928","125","288001.395917","280268.482915","281034.597409","281801.297167","282568.187685","283334.625574","284101.319768","284868.012106","288767.937688","289534.711957","290301.133151","276434.714523","277201.724074","277968.249149","278735.056191","279501.322798","289544.453696","Mapping"
"Blocked","m150","done","23","m150done.wav","None","726.228368236","125","288001.395917","280268.482915","281034.597409","281801.297167","282568.187685","283334.625574","284101.319768","284868.012106","288767.937688","289534.711957","290301.133151","291067.6607","277201.724074","277968.249149","278735.056191","279501.322798","290310.499862","Mapping"
"Blocked","m150","done","23","m150cad.wav","space","468.986063264","125","288001.395917","280268.482915","281034.597409","281801.297167","282568.187685","283334.625574","284101.319768","284868.012106","288767.937688","289534.711957","290301.133151","291067.6607","291834.123632","277968.249149","278735.056191","279501.322798","291076.554376","Mapping"
"Blocked","m150","done","23","m150done.wav","None","731.648792746","125","288001.395917","280268.482915","281034.597409","281801.297167","282568.187685","283334.625574","284101.319768","284868.012106","288767.937688","289534.711957","290301.133151","291067.6607","291834.123632","292600.868529","278735.056191","279501.322798","291843.196938","Mapping"
"Blocked","m150","done","23","m150tile.wav","space","367.381547345","125","288001.395917","280268.482915","281034.597409","281801.297167","282568.187685","283334.625574","284101.319768","284868.012106","288767.937688","289534.711957","290301.133151","291067.6607","291834.123632","292600.868529","293367.519438","279501.322798","292610.092712","Mapping"
"Blocked","m150","done","23","m150ball.wav","None","731.811108766","125","288001.395917","280268.482915","281034.597409","281801.297167","282568.187685","283334.625574","284101.319768","284868.012106","288767.937688","289534.711957","290301.133151","291067.6607","291834.123632","292600.868529","293367.519438","294134.330499","293376.48237","Mapping"
"Blocked","m150","done","23","m150lash.wav","None","732.265593251","125","288001.395917","294901.068905","281034.597409","281801.297167","282568.187685","283334.625574","284101.319768","284868.012106","288767.937688","289534.711957","290301.133151","291067.6607","291834.123632","292600.868529","293367.519438","294134.330499","294143.44709","Mapping"
"Blocked","m150","done","23","m150depth.wav","None","730.511962902","125","288001.395917","294901.068905","295667.847502","281801.297167","282568.187685","283334.625574","284101.319768","284868.012106","288767.937688","289534.711957","290301.133151","291067.6607","291834.123632","292600.868529","293367.519438","294134.330499","294912.527791","Mapping"
"Blocked","m150","done","23","m150done.wav","None","738.853765186","125","288001.395917","294901.068905","295667.847502","296434.337332","282568.187685","283334.625574","284101.319768","284868.012106","288767.937688","289534.711957","290301.133151","291067.6607","291834.123632","292600.868529","293367.519438","294134.330499","295671.80832","Mapping"
"Blocked","m150","done","23","m150cad.wav","space","357.829332119","125","288001.395917","294901.068905","295667.847502","296434.337332","297200.965053","283334.625574","284101.319768","284868.012106","288767.937688","289534.711957","290301.133151","291067.6607","291834.123632","292600.868529","293367.519438","294134.330499","296443.561205","Mapping"
"Blocked","m150","done","23","m150done.wav","None","733.70263027","125","288001.395917","294901.068905","295667.847502","296434.337332","297200.965053","297967.430768","284101.319768","284868.012106","288767.937688","289534.711957","290301.133151","291067.6607","291834.123632","292600.868529","293367.519438","294134.330499","297210.895078","Mapping"
"Blocked","m150","done","23","m150cling.wav","space","640.748471254","125","288001.395917","294901.068905","295667.847502","296434.337332","297200.965053","297967.430768","298734.020151","284868.012106","288767.937688","289534.711957","290301.133151","291067.6607","291834.123632","292600.868529","293367.519438","294134.330499","297976.638255","Mapping"
"Blocked","m150","done","23","m150reek.wav","None","735.114624491","125","288001.395917","294901.068905","295667.847502","296434.337332","297200.965053","297967.430768","298734.020151","299500.8544","288767.937688","289534.711957","290301.133151","291067.6607","291834.123632","292600.868529","293367.519438","294134.330499","298743.211561","Mapping"
"Blocked","m150","done","21","m150lash.wav","None","735.094218981","125","302634.68002","294901.068905","295667.847502","296434.337332","297200.965053","297967.430768","298734.020151","299500.8544","288767.937688","289534.711957","290301.133151","291067.6607","291834.123632","292600.868529","293367.519438","294134.330499","299510.504314","Mapping"
"Blocked","m150","done","21","m150done.wav","None","722.693900345","125","302634.68002","294901.068905","295667.847502","296434.337332","297200.965053","297967.430768","298734.020151","299500.8544","303400.686921","289534.711957","290301.133151","291067.6607","291834.123632","292600.868529","293367.519438","294134.330499","302644.807915","Mapping"
"Blocked","m150","done","21","m150cling.wav","space","447.637035511","125","302634.68002","294901.068905","295667.847502","296434.337332","297200.965053","297967.430768","298734.020151","299500.8544","303400.686921","304168.011828","290301.133151","291067.6607","291834.123632","292600.868529","293367.519438","294134.330499","303409.694992","Mapping"
"Blocked","m150","done","21","m150cave.wav","None","723.469615681","125","302634.68002","294901.068905","295667.847502","296434.337332","297200.965053","297967.430768","298734.020151","299500.8544","303400.686921","304168.011828","304934.031096","291067.6607","291834.123632","292600.868529","293367.519438","294134.330499","304177.880946","Mapping"
"Blocked","m150","done","21","m150done.wav","None","725.610021967","125","302634.68002","294901.068905","295667.847502","296434.337332","297200.965053","297967.430768","298734.020151","299500.8544","303400.686921","304168.011828","304934.031096","305700.950986","291834.123632","292600.868529","293367.519438","294134.330499","304943.117387","Mapping"
"Blocked","m150","done","21","m150park.wav","space","354.944127612","125","302634.68002","294901.068905","295667.847502","296434.337332","297200.965053","297967.430768","298734.020151","299500.8544","303400.686921","304168.011828","304934.031096","305700.950986","306467.632194","292600.868529","293367.519438","294134.330499","305710.311205","Mapping"
"Blocked","m150","done","21","m150park.wav","None","726.255575661","125","302634.68002","294901.068905","295667.847502","296434.337332","297200.965053","297967.430768","298734.020151","299500.8544","303400.686921","304168.011828","304934.031096","305700.950986","306467.632194","307233.992171","293367.519438","294134.330499","306476.782484","Mapping"
"Blocked","m150","done","21","m150done.wav","None","728.966715513","125","302634.68002","294901.068905","295667.847502","296434.337332","297200.965053","297967.430768","298734.020151","299500.8544","303400.686921","304168.011828","304934.031096","305700.950986","306467.632194","307233.992171","308000.822401","294134.330499","307243.083718","Mapping"
"Blocked","m150","done","21","m150ball.wav","space","383.12897482","125","302634.68002","294901.068905","295667.847502","296434.337332","297200.965053","297967.430768","298734.020151","299500.8544","303400.686921","304168.011828","304934.031096","305700.950986","306467.632194","307233.992171","308000.822401","308767.609965","308010.096051","Mapping"
"Blocked","m150","done","21","m150cad.wav","None","728.256235365","125","302634.68002","309533.961285","295667.847502","296434.337332","297200.965053","297967.430768","298734.020151","299500.8544","303400.686921","304168.011828","304934.031096","305700.950986","306467.632194","307233.992171","308000.822401","308767.609965","308777.497323","Mapping"
"Blocked","m150","done","21","m150depth.wav","None","730.074173771","125","302634.68002","309533.961285","310300.539538","296434.337332","297200.965053","297967.430768","298734.020151","299500.8544","303400.686921","304168.011828","304934.031096","305700.950986","306467.632194","307233.992171","308000.822401","308767.609965","309543.103846","Mapping"
"Blocked","m150","done","21","m150tile.wav","None","731.937869685","125","302634.68002","309533.961285","310300.539538","311067.616488","297200.965053","297967.430768","298734.020151","299500.8544","303400.686921","304168.011828","304934.031096","305700.950986","306467.632194","307233.992171","308000.822401","308767.609965","310309.272135","Mapping"
"Blocked","m150","done","21","m150knife.wav","None","731.713410001","125","302634.68002","309533.961285","310300.539538","311067.616488","311834.111574","297967.430768","298734.020151","299500.8544","303400.686921","304168.011828","304934.031096","305700.950986","306467.632194","307233.992171","308000.822401","308767.609965","311076.87437","Mapping"
"Blocked","m150","done","21","m150done.wav","None","732.518806122","125","302634.68002","309533.961285","310300.539538","311067.616488","311834.111574","312600.738986","298734.020151","299500.8544","303400.686921","304168.011828","304934.031096","305700.950986","306467.632194","307233.992171","308000.822401","308767.609965","311843.528371","Mapping"
"Blocked","m150","done","21","m150depth.wav","space","302.655828651","125","302634.68002","309533.961285","310300.539538","311067.616488","311834.111574","312600.738986","313367.536752","299500.8544","303400.686921","304168.011828","304934.031096","305700.950986","306467.632194","307233.992171","308000.822401","308767.609965","312610.466193","Mapping"
"Blocked","m150","done","21","m150cad.wav","None","732.860442717","125","302634.68002","309533.961285","310300.539538","311067.616488","311834.111574","312600.738986","313367.536752","314134.038949","303400.686921","304168.011828","304934.031096","305700.950986","306467.632194","307233.992171","308000.822401","308767.609965","313377.144","Mapping"
"Blocked","m150","tile","18","m150ball.wav","None","734.385594027","125","317267.470682","309533.961285","310300.539538","311067.616488","311834.111574","312600.738986","313367.536752","314134.038949","303400.686921","304168.011828","304934.031096","305700.950986","306467.632194","307233.992171","308000.822401","308767.609965","314143.090922","Mapping"
"Blocked","m150","tile","18","m150tile.wav","None","728.939508088","125","317267.470682","309533.961285","310300.539538","311067.616488","311834.111574","312600.738986","313367.536752","314134.038949","318034.038733","304168.011828","304934.031096","305700.950986","306467.632194","307233.992171","308000.822401","308767.609965","317271.546512","Mapping"
"Blocked","m150","tile","18","m150cling.wav","space","565.118832281","125","317267.470682","309533.961285","310300.539538","311067.616488","311834.111574","312600.738986","313367.536752","314134.038949","318034.038733","318800.976245","304934.031096","305700.950986","306467.632194","307233.992171","308000.822401","308767.609965","318043.908778","Mapping"
"Blocked","m150","tile","18","m150dime.wav","None","722.723271698","125","317267.470682","309533.961285","310300.539538","311067.616488","311834.111574","312600.738986","313367.536752","314134.038949","318034.038733","318800.976245","319567.431448","305700.950986","306467.632194","307233.992171","308000.822401","308767.609965","318811.784322","Mapping"
"Blocked","m150","tile","18","m150tile.wav","None","725.149044534","125","317267.470682","309533.961285","310300.539538","311067.616488","311834.111574","312600.738986","313367.536752","314134.038949","318034.038733","318800.976245","319567.431448","320334.194587","306467.632194","307233.992171","308000.822401","308767.609965","319577.013035","Mapping"
"Blocked","m150","tile","18","m150greet.wav","space","553.233905463","125","317267.470682","309533.961285","310300.539538","311067.616488","311834.111574","312600.738986","313367.536752","314134.038949","318034.038733","318800.976245","319567.431448","320334.194587","321100.418528","307233.992171","308000.822401","308767.609965","320343.749275","Mapping"
"Blocked","m150","tile","18","m150greet.wav","None","726.474470226","125","317267.470682","309533.961285","310300.539538","311067.616488","311834.111574","312600.738986","313367.536752","314134.038949","318034.038733","318800.976245","319567.431448","320334.194587","321100.418528","321867.381084","308000.822401","308767.609965","321109.520278","Mapping"
"Blocked","m150","tile","18","m150jaw.wav","None","727.073029382","125","317267.470682","309533.961285","310300.539538","311067.616488","311834.111574","312600.738986","313367.536752","314134.038949","318034.038733","318800.976245","319567.431448","320334.194587","321100.418528","321867.381084","322633.870295","308767.609965","321876.802828","Mapping"
"Blocked","m150","tile","18","m150tile.wav","None","728.557370137","125","317267.470682","309533.961285","310300.539538","311067.616488","311834.111574","312600.738986","313367.536752","314134.038949","318034.038733","318800.976245","319567.431448","320334.194587","321100.418528","321867.381084","322633.870295","323400.555832","322642.937108","Mapping"
"Blocked","m150","tile","18","m150done.wav","space","502.448187908","125","317267.470682","324167.318971","310300.539538","311067.616488","311834.111574","312600.738986","313367.536752","314134.038949","318034.038733","318800.976245","319567.431448","320334.194587","321100.418528","321867.381084","322633.870295","323400.555832","323410.466997","Mapping"
"Blocked","m150","tile","18","m150romp.wav","None","728.89375058","125","317267.470682","324167.318971","324933.833225","311067.616488","311834.111574","312600.738986","313367.536752","314134.038949","318034.038733","318800.976245","319567.431448","320334.194587","321100.418528","321867.381084","322633.870295","323400.555832","324176.487193","Mapping"
"Blocked","m150","tile","18","m150ball.wav","None","730.539788492","125","317267.470682","324167.318971","324933.833225","325700.532984","311834.111574","312600.738986","313367.536752","314134.038949","318034.038733","318800.976245","319567.431448","320334.194587","321100.418528","321867.381084","322633.870295","323400.555832","324942.931265","Mapping"
"Blocked","m150","tile","18","m150tile.wav","None","731.364353327","125","317267.470682","324167.318971","324933.833225","325700.532984","326467.314982","312600.738986","313367.536752","314134.038949","318034.038733","318800.976245","319567.431448","320334.194587","321100.418528","321867.381084","322633.870295","323400.555832","325709.877435","Mapping"
"Blocked","m150","tile","18","m150cave.wav","space","371.960711665","125","317267.470682","324167.318971","324933.833225","325700.532984","326467.314982","327233.870975","313367.536752","314134.038949","318034.038733","318800.976245","319567.431448","320334.194587","321100.418528","321867.381084","322633.870295","323400.555832","326476.910482","Mapping"
"Blocked","m150","tile","18","m150cling.wav","None","732.088127872","125","317267.470682","324167.318971","324933.833225","325700.532984","326467.314982","327233.870975","328000.246102","314134.038949","318034.038733","318800.976245","319567.431448","320334.194587","321100.418528","321867.381084","322633.870295","323400.555832","327243.488117","Mapping"
"Blocked","m150","tile","18","m150jaw.wav","None","734.049522551","125","317267.470682","324167.318971","324933.833225","325700.532984","326467.314982","327233.870975","328000.246102","328766.997492","318034.038733","318800.976245","319567.431448","320334.194587","321100.418528","321867.381084","322633.870295","323400.555832","328009.262211","Mapping"
"Blocked","m150","tile","13","m150knife.wav","None","734.936849913","125","331900.841044","324167.318971","324933.833225","325700.532984","326467.314982","327233.870975","328000.246102","328766.997492","318034.038733","318800.976245","319567.431448","320334.194587","321100.418528","321867.381084","322633.870295","323400.555832","328776.151802","Mapping"
"Blocked","m150","tile","13","m150gnash.wav","None","722.21870115","125","331900.841044","324167.318971","324933.833225","325700.532984","326467.314982","327233.870975","328000.246102","328766.997492","332667.495972","318800.976245","319567.431448","320334.194587","321100.418528","321867.381084","322633.870295","323400.555832","331910.548155","Mapping"
"Blocked","m150","tile","13","m150priest.wav","None","723.519392777","125","331900.841044","324167.318971","324933.833225","325700.532984","326467.314982","327233.870975","328000.246102","328766.997492","332667.495972","333433.719604","319567.431448","320334.194587","321100.418528","321867.381084","322633.870295","323400.555832","332677.311912","Mapping"
"Blocked","m150","tile","13","m150reek.wav","None","725.60662101","125","331900.841044","324167.318971","324933.833225","325700.532984","326467.314982","327233.870975","328000.246102","328766.997492","332667.495972","333433.719604","334200.378243","320334.194587","321100.418528","321867.381084","322633.870295","323400.555832","333442.881334","Mapping"
"Blocked","m150","tile","13","m150gnash.wav","None","726.505078375","125","331900.841044","324167.318971","324933.833225","325700.532984","326467.314982","327233.870975","328000.246102","328766.997492","332667.495972","333433.719604","334200.378243","334967.60174","321100.418528","321867.381084","322633.870295","323400.555832","334209.728568","Mapping"
"Blocked","m150","tile","13","m150tile.wav","None","726.54372477","125","331900.841044","324167.318971","324933.833225","325700.532984","326467.314982","327233.870975","328000.246102","328766.997492","332667.495972","333433.719604","334200.378243","334967.60174","335733.660892","321867.381084","322633.870295","323400.555832","334977.29092","Mapping"
"Blocked","m150","tile","13","m150knife.wav","space","377.841185778","125","331900.841044","324167.318971","324933.833225","325700.532984","326467.314982","327233.870975","328000.246102","328766.997492","332667.495972","333433.719604","334200.378243","334967.60174","335733.660892","336500.264189","322633.870295","323400.555832","335742.863742","Mapping"
"Blocked","m150","tile","13","m150tile.wav","None","728.457506979","125","331900.841044","324167.318971","324933.833225","325700.532984","326467.314982","327233.870975","328000.246102","328766.997492","332667.495972","333433.719604","334200.378243","334967.60174","335733.660892","336500.264189","337267.070921","323400.555832","336509.640175","Mapping"
"Blocked","m150","tile","13","m150ball.wav","space","403.996310895","125","331900.841044","324167.318971","324933.833225","325700.532984","326467.314982","327233.870975","328000.246102","328766.997492","332667.495972","333433.719604","334200.378243","334967.60174","335733.660892","336500.264189","337267.070921","338033.441719","337276.72269","Mapping"
"Blocked","m150","tile","13","m150depth.wav","None","728.886639467","125","331900.841044","338800.289263","324933.833225","325700.532984","326467.314982","327233.870975","328000.246102","328766.997492","332667.495972","333433.719604","334200.378243","334967.60174","335733.660892","336500.264189","337267.070921","338033.441719","338043.255186","Mapping"
"Blocked","m150","tile","13","m150cave.wav","None","730.283793062","125","331900.841044","338800.289263","339567.028904","325700.532984","326467.314982","327233.870975","328000.246102","328766.997492","332667.495972","333433.719604","334200.378243","334967.60174","335733.660892","336500.264189","337267.070921","338033.441719","338809.555493","Mapping"
"Blocked","m150","tile","13","m150lash.wav","None","731.713101035","125","331900.841044","338800.289263","339567.028904","340333.567893","326467.314982","327233.870975","328000.246102","328766.997492","332667.495972","333433.719604","334200.378243","334967.60174","335733.660892","336500.264189","337267.070921","338033.441719","339576.39407","Mapping"
"Blocked","m150","tile","13","m150tile.wav","None","733.100360958","125","331900.841044","338800.289263","339567.028904","340333.567893","341100.129142","327233.870975","328000.246102","328766.997492","332667.495972","333433.719604","334200.378243","334967.60174","335733.660892","336500.264189","337267.070921","338033.441719","340342.626668","Mapping"
"Blocked","m150","tile","13","m150jaw.wav","space","498.594962526","125","331900.841044","338800.289263","339567.028904","340333.567893","341100.129142","341866.967719","328000.246102","328766.997492","332667.495972","333433.719604","334200.378243","334967.60174","335733.660892","336500.264189","337267.070921","338033.441719","341110.020211","Mapping"
"Blocked","m150","tile","13","m150tile.wav","None","734.212766169","125","331900.841044","338800.289263","339567.028904","340333.567893","341100.129142","341866.967719","342633.312547","328766.997492","332667.495972","333433.719604","334200.378243","334967.60174","335733.660892","336500.264189","337267.070921","338033.441719","341876.03546","Mapping"
"Blocked","m150","tile","13","m150cave.wav","space","518.008565996","125","331900.841044","338800.289263","339567.028904","340333.567893","341100.129142","341866.967719","342633.312547","343400.076922","332667.495972","333433.719604","334200.378243","334967.60174","335733.660892","336500.264189","337267.070921","338033.441719","342642.578158","Mapping"
"Blocked","m150","cave","9","m150cad.wav","None","734.763403656","125","346533.696633","338800.289263","339567.028904","340333.567893","341100.129142","341866.967719","342633.312547","343400.076922","332667.495972","333433.719604","334200.378243","334967.60174","335733.660892","336500.264189","337267.070921","338033.441719","343409.689426","Mapping"
"Blocked","m150","cave","9","m150gnash.wav","None","723.104791483","125","346533.696633","338800.289263","339567.028904","340333.567893","341100.129142","341866.967719","342633.312547","343400.076922","347300.510785","333433.719604","334200.378243","334967.60174","335733.660892","336500.264189","337267.070921","338033.441719","346543.467433","Mapping"
"Blocked","m150","cave","9","m150jolt.wav","None","723.16167946","125","346533.696633","338800.289263","339567.028904","340333.567893","341100.129142","341866.967719","342633.312547","343400.076922","347300.510785","348066.89426","334200.378243","334967.60174","335733.660892","336500.264189","337267.070921","338033.441719","347310.832223","Mapping"
"Blocked","m150","cave","9","m150cave.wav","None","725.649905158","125","346533.696633","338800.289263","339567.028904","340333.567893","341100.129142","341866.967719","342633.312547","343400.076922","347300.510785","348066.89426","348833.458291","334967.60174","335733.660892","336500.264189","337267.070921","338033.441719","348076.004357","Mapping"
"Blocked","m150","cave","9","m150depth.wav","space","356.931492919","125","346533.696633","338800.289263","339567.028904","340333.567893","341100.129142","341866.967719","342633.312547","343400.076922","347300.510785","348066.89426","348833.458291","349600.072099","335733.660892","336500.264189","337267.070921","338033.441719","348843.556506","Mapping"
"Blocked","m150","cave","9","m150cave.wav","None","726.034207502","125","346533.696633","338800.289263","339567.028904","340333.567893","341100.129142","341866.967719","342633.312547","343400.076922","347300.510785","348066.89426","348833.458291","349600.072099","350366.833383","336500.264189","337267.070921","338033.441719","349609.571446","Mapping"
"Blocked","m150","cave","9","m150gnash.wav","space","352.227422874","125","346533.696633","338800.289263","339567.028904","340333.567893","341100.129142","341866.967719","342633.312547","343400.076922","347300.510785","348066.89426","348833.458291","349600.072099","350366.833383","351133.40669","337267.070921","338033.441719","350376.193293","Mapping"
"Blocked","m150","cave","9","m150priest.wav","None","726.931428071","125","346533.696633","338800.289263","339567.028904","340333.567893","341100.129142","341866.967719","342633.312547","343400.076922","347300.510785","348066.89426","348833.458291","349600.072099","350366.833383","351133.40669","351899.929292","338033.441719","351142.660244","Mapping"
"Blocked","m150","cave","9","m150greet.wav","None","727.79340297","125","346533.696633","338800.289263","339567.028904","340333.567893","341100.129142","341866.967719","342633.312547","343400.076922","347300.510785","348066.89426","348833.458291","349600.072099","350366.833383","351133.40669","351899.929292","352666.41603","351909.430185","Mapping"
"Blocked","m150","cave","9","m150dime.wav","None","729.533429723","125","346533.696633","353433.433","339567.028904","340333.567893","341100.129142","341866.967719","342633.312547","343400.076922","347300.510785","348066.89426","348833.458291","349600.072099","350366.833383","351133.40669","351899.929292","352666.41603","352675.557354","Mapping"
"Blocked","m150","cave","9","m150cave.wav","None","730.312855681","125","346533.696633","353433.433","354200.009708","340333.567893","341100.129142","341866.967719","342633.312547","343400.076922","347300.510785","348066.89426","348833.458291","349600.072099","350366.833383","351133.40669","351899.929292","352666.41603","353442.406443","Mapping"
"Blocked","m150","cave","9","m150jolt.wav","space","422.229181975","125","346533.696633","353433.433","354200.009708","354966.241688","341100.129142","341866.967719","342633.312547","343400.076922","347300.510785","348066.89426","348833.458291","349600.072099","350366.833383","351133.40669","351899.929292","352666.41603","354210.11658","Mapping"
"Blocked","m150","cave","9","m150park.wav","None","734.418675536","125","346533.696633","353433.433","354200.009708","354966.241688","355733.088303","341866.967719","342633.312547","343400.076922","347300.510785","348066.89426","348833.458291","349600.072099","350366.833383","351133.40669","351899.929292","352666.41603","354975.05436","Mapping"
"Blocked","m150","cave","9","m150cave.wav","None","734.819364036","125","346533.696633","353433.433","354200.009708","354966.241688","355733.088303","356499.979131","342633.312547","343400.076922","347300.510785","348066.89426","348833.458291","349600.072099","350366.833383","351133.40669","351899.929292","352666.41603","355742.404619","Mapping"
"Blocked","m150","cave","9","m150cad.wav","space","419.148580171","125","346533.696633","353433.433","354200.009708","354966.241688","355733.088303","356499.979131","357266.559239","343400.076922","347300.510785","348066.89426","348833.458291","349600.072099","350366.833383","351133.40669","351899.929292","352666.41603","356509.228666","Mapping"
"Blocked","m150","cave","9","m150greet.wav","None","735.886629904","125","346533.696633","353433.433","354200.009708","354966.241688","355733.088303","356499.979131","357266.559239","358049.888806","347300.510785","348066.89426","348833.458291","349600.072099","350366.833383","351133.40669","351899.929292","352666.41603","357275.7692","Mapping"
"Blocked","m150","cave","12","m150bluff.wav","None","719.608042622","125","361183.701131","353433.433","354200.009708","354966.241688","355733.088303","356499.979131","357266.559239","358049.888806","347300.510785","348066.89426","348833.458291","349600.072099","350366.833383","351133.40669","351899.929292","352666.41603","358059.962287","Mapping"
"Blocked","m150","cave","12","m150cave.wav","None","722.756971605","125","361183.701131","353433.433","354200.009708","354966.241688","355733.088303","356499.979131","357266.559239","358049.888806","361949.837885","348066.89426","348833.458291","349600.072099","350366.833383","351133.40669","351899.929292","352666.41603","361193.623427","Mapping"
"Blocked","m150","cave","12","m150knife.wav","space","385.130562121","125","361183.701131","353433.433","354200.009708","354966.241688","355733.088303","356499.979131","357266.559239","358049.888806","361949.837885","362716.961211","348833.458291","349600.072099","350366.833383","351133.40669","351899.929292","352666.41603","361959.110299","Mapping"
"Blocked","m150","cave","12","m150romp.wav","None","723.046357743","125","361183.701131","353433.433","354200.009708","354966.241688","355733.088303","356499.979131","357266.559239","358049.888806","361949.837885","362716.961211","363482.997793","349600.072099","350366.833383","351133.40669","351899.929292","352666.41603","362727.206902","Mapping"
"Blocked","m150","cave","12","m150done.wav","None","725.917030824","125","361183.701131","353433.433","354200.009708","354966.241688","355733.088303","356499.979131","357266.559239","358049.888806","361949.837885","362716.961211","363482.997793","364249.632007","350366.833383","351133.40669","351899.929292","352666.41603","363492.146537","Mapping"
"Blocked","m150","cave","12","m150depth.wav","None","726.950287819","125","361183.701131","353433.433","354200.009708","354966.241688","355733.088303","356499.979131","357266.559239","358049.888806","361949.837885","362716.961211","363482.997793","364249.632007","365016.305795","351133.40669","351899.929292","352666.41603","364258.726336","Mapping"
"Blocked","m150","cave","12","m150cave.wav","None","728.10257622","125","361183.701131","353433.433","354200.009708","354966.241688","355733.088303","356499.979131","357266.559239","358049.888806","361949.837885","362716.961211","363482.997793","364249.632007","365016.305795","365783.177144","351899.929292","352666.41603","365025.269653","Mapping"
"Blocked","m150","cave","12","m150jaw.wav","space","399.265033426","125","361183.701131","353433.433","354200.009708","354966.241688","355733.088303","356499.979131","357266.559239","358049.888806","361949.837885","362716.961211","363482.997793","364249.632007","365016.305795","365783.177144","366549.757253","352666.41603","365792.895386","Mapping"
"Blocked","m150","cave","12","m150cave.wav","None","728.385160444","125","361183.701131","353433.433","354200.009708","354966.241688","355733.088303","356499.979131","357266.559239","358049.888806","361949.837885","362716.961211","363482.997793","364249.632007","365016.305795","365783.177144","366549.757253","367316.562749","366559.035541","Mapping"
"Blocked","m150","cave","12","m150lash.wav","space","602.265992202","125","361183.701131","368083.091225","354200.009708","354966.241688","355733.088303","356499.979131","357266.559239","358049.888806","361949.837885","362716.961211","363482.997793","364249.632007","365016.305795","365783.177144","366549.757253","367316.562749","367325.86206","Mapping"
"Blocked","m150","cave","12","m150romp.wav","None","728.900552262","125","361183.701131","368083.091225","368849.697304","354966.241688","355733.088303","356499.979131","357266.559239","358049.888806","361949.837885","362716.961211","363482.997793","364249.632007","365016.305795","365783.177144","366549.757253","367316.562749","368092.482052","Mapping"
"Blocked","m150","cave","12","m150tile.wav","None","729.506840929","125","361183.701131","368083.091225","368849.697304","369616.542992","355733.088303","356499.979131","357266.559239","358049.888806","361949.837885","362716.961211","363482.997793","364249.632007","365016.305795","365783.177144","366549.757253","367316.562749","368859.592392","Mapping"
"Blocked","m150","cave","12","m150tile.wav","None","731.003548251","125","361183.701131","368083.091225","368849.697304","369616.542992","370382.989538","356499.979131","357266.559239","358049.888806","361949.837885","362716.961211","363482.997793","364249.632007","365016.305795","365783.177144","366549.757253","367316.562749","369625.760991","Mapping"
"Blocked","m150","cave","12","m150cave.wav","None","732.456044061","125","361183.701131","368083.091225","368849.697304","369616.542992","370382.989538","371149.675384","357266.559239","358049.888806","361949.837885","362716.961211","363482.997793","364249.632007","365016.305795","365783.177144","366549.757253","367316.562749","370392.193315","Mapping"
"Blocked","m150","cave","12","m150ball.wav","space","337.128949584","125","361183.701131","368083.091225","368849.697304","369616.542992","370382.989538","371149.675384","371916.476551","358049.888806","361949.837885","362716.961211","363482.997793","364249.632007","365016.305795","365783.177144","366549.757253","367316.562749","371158.955527","Mapping"
"Blocked","m150","cave","12","m150cad.wav","None","733.318328159","125","361183.701131","368083.091225","368849.697304","369616.542992","370382.989538","371149.675384","371916.476551","372682.952159","361949.837885","362716.961211","363482.997793","364249.632007","365016.305795","365783.177144","366549.757253","367316.562749","371925.82533","Mapping"
"Blocked","m150","cave","10","m150jolt.wav","None","734.906241531","125","375816.880115","368083.091225","368849.697304","369616.542992","370382.989538","371149.675384","371916.476551","372682.952159","361949.837885","362716.961211","363482.997793","364249.632007","365016.305795","365783.177144","366549.757253","367316.562749","372692.035977","Mapping"
"Blocked","m150","cave","10","m150cad.wav","None","722.031651298","125","375816.880115","368083.091225","368849.697304","369616.542992","370382.989538","371149.675384","371916.476551","372682.952159","376582.949778","362716.961211","363482.997793","364249.632007","365016.305795","365783.177144","366549.757253","367316.562749","375827.077884","Mapping"
"Blocked","m150","cave","10","m150jaw.wav","None","724.492051406","125","375816.880115","368083.091225","368849.697304","369616.542992","370382.989538","371149.675384","371916.476551","372682.952159","376582.949778","377349.527723","363482.997793","364249.632007","365016.305795","365783.177144","366549.757253","367316.562749","376592.405841","Mapping"
"Blocked","m150","cave","10","m150cave.wav","None","725.616823649","125","375816.880115","368083.091225","368849.697304","369616.542992","370382.989538","371149.675384","371916.476551","372682.952159","376582.949778","377349.527723","378116.387942","364249.632007","365016.305795","365783.177144","366549.757253","367316.562749","377358.946066","Mapping"
"Blocked","m150","cave","10","m150done.wav","space","594.353941036","125","375816.880115","368083.091225","368849.697304","369616.542992","370382.989538","371149.675384","371916.476551","372682.952159","376582.949778","377349.527723","378116.387942","378882.883955","365016.305795","365783.177144","366549.757253","367316.562749","378125.612124","Mapping"
"Blocked","m150","cave","10","m150park.wav","None","726.746233413","125","375816.880115","368083.091225","368849.697304","369616.542992","370382.989538","371149.675384","371916.476551","372682.952159","376582.949778","377349.527723","378116.387942","378882.883955","379649.541975","365783.177144","366549.757253","367316.562749","378892.14462","Mapping"
"Blocked","m150","cave","10","m150cave.wav","None","727.834832389","125","375816.880115","368083.091225","368849.697304","369616.542992","370382.989538","371149.675384","371916.476551","372682.952159","376582.949778","377349.527723","378116.387942","378882.883955","379649.541975","380416.346853","366549.757253","367316.562749","379658.839432","Mapping"
"Blocked","m150","cave","10","m150tile.wav","space","541.651658947","125","375816.880115","368083.091225","368849.697304","369616.542992","370382.989538","371149.675384","371916.476551","372682.952159","376582.949778","377349.527723","378116.387942","378882.883955","379649.541975","380416.346853","381182.855851","367316.562749","380426.270076","Mapping"
"Blocked","m150","cave","10","m150bluff.wav","None","728.584577329","125","375816.880115","368083.091225","368849.697304","369616.542992","370382.989538","371149.675384","371916.476551","372682.952159","376582.949778","377349.527723","378116.387942","378882.883955","379649.541975","380416.346853","381182.855851","381949.525002","381192.056227","Mapping"
"Blocked","m150","cave","10","m150cave.wav","None","730.211755726","125","375816.880115","382715.824999","368849.697304","369616.542992","370382.989538","371149.675384","371916.476551","372682.952159","376582.949778","377349.527723","378116.387942","378882.883955","379649.541975","380416.346853","381182.855851","381949.525002","381958.882747","Mapping"
"Blocked","m150","cave","10","m150gnash.wav","space","314.973907312","125","375816.880115","382715.824999","383483.133211","369616.542992","370382.989538","371149.675384","371916.476551","372682.952159","376582.949778","377349.527723","378116.387942","378882.883955","379649.541975","380416.346853","381182.855851","381949.525002","382724.889958","Mapping"
"Blocked","m150","cave","10","m150greet.wav","None","730.262151221","125","375816.880115","382715.824999","383483.133211","384249.321597","370382.989538","371149.675384","371916.476551","372682.952159","376582.949778","377349.527723","378116.387942","378882.883955","379649.541975","380416.346853","381182.855851","381949.525002","383492.806313","Mapping"
"Blocked","m150","cave","10","m150ball.wav","None","731.755148387","125","375816.880115","382715.824999","383483.133211","384249.321597","385016.115962","371149.675384","371916.476551","372682.952159","376582.949778","377349.527723","378116.387942","378882.883955","379649.541975","380416.346853","381182.855851","381949.525002","384259.227197","Mapping"
