"Condition","Talker","Target","Trial","current_stimulus","response_response","response_time_response","subject_nr","time_Audio1","time_Audio10","time_Audio11","time_Audio12","time_Audio13","time_Audio14","time_Audio15","time_Audio16","time_Audio2","time_Audio3","time_Audio4","time_Audio5","time_Audio6","time_Audio7","time_Audio8","time_Audio9","time_response","title"
"Blocked","m160","tile","16","m160park.wav","NA","NA","118","532009.453898","NA","NA","NA","NA","NA","NA","NA","NA","NA","NA","NA","NA","NA","NA","NA","NA","Mapping"
"Blocked","m160","tile","16","m160cave.wav","None","716.824556235","118","532009.453898","NA","NA","NA","NA","NA","NA","NA","532776.187975","NA","NA","NA","NA","NA","NA","NA","532024.14519","Mapping"
"Blocked","m160","tile","16","m160romp.wav","None","720.17908562","118","532009.453898","NA","NA","NA","NA","NA","NA","NA","532776.187975","533525.59815","NA","NA","NA","NA","NA","NA","532785.773271","Mapping"
"Blocked","m160","tile","16","m160jaw.wav","None","734.828948509","118","532009.453898","NA","NA","NA","NA","NA","NA","NA","532776.187975","533525.59815","534292.471354","NA","NA","NA","NA","NA","533536.08685","Mapping"
"Blocked","m160","tile","16","m160tile.wav","None","733.852888457","118","532009.453898","NA","NA","NA","NA","NA","NA","NA","532776.187975","533525.59815","534292.471354","535058.947581","NA","NA","NA","NA","534301.950914","Mapping"
"Blocked","m160","tile","16","m160knife.wav","None","733.023376903","118","532009.453898","NA","NA","NA","NA","NA","NA","NA","532776.187975","533525.59815","534292.471354","535058.947581","535825.791723","NA","NA","NA","535067.690071","Mapping"
"Blocked","m160","tile","16","m160tile.wav","None","730.369434226","118","532009.453898","NA","NA","NA","NA","NA","NA","NA","532776.187975","533525.59815","534292.471354","535058.947581","535825.791723","536592.504776","NA","NA","535835.558504","Mapping"
"Blocked","m160","tile","16","m160jaw.wav","None","728.818003088","118","532009.453898","NA","NA","NA","NA","NA","NA","NA","532776.187975","533525.59815","534292.471354","535058.947581","535825.791723","536592.504776","537358.689452","NA","536601.920955","Mapping"
"Blocked","m160","tile","16","m160romp.wav","None","728.193163872","118","532009.453898","NA","NA","NA","NA","NA","NA","NA","532776.187975","533525.59815","534292.471354","535058.947581","535825.791723","536592.504776","537358.689452","538125.717862","537367.542317","Mapping"
"Blocked","m160","tile","16","m160cling.wav","None","725.538912229","118","532009.453898","538892.755856","NA","NA","NA","NA","NA","NA","532776.187975","533525.59815","534292.471354","535058.947581","535825.791723","536592.504776","537358.689452","538125.717862","538135.042525","Mapping"
"Blocked","m160","tile","16","m160jaw.wav","None","723.065835657","118","532009.453898","538892.755856","539659.624732","NA","NA","NA","NA","NA","532776.187975","533525.59815","534292.471354","535058.947581","535825.791723","536592.504776","537358.689452","538125.717862","538902.368669","Mapping"
"Blocked","m160","tile","16","m160tile.wav","None","721.325808903","118","532009.453898","538892.755856","539659.624732","540426.281206","NA","NA","NA","NA","532776.187975","533525.59815","534292.471354","535058.947581","535825.791723","536592.504776","537358.689452","538125.717862","539669.1383","Mapping"
"Blocked","m160","tile","16","m160ball.wav","None","719.646070851","118","532009.453898","538892.755856","539659.624732","540426.281206","541175.737448","NA","NA","NA","532776.187975","533525.59815","534292.471354","535058.947581","535825.791723","536592.504776","537358.689452","538125.717862","540435.851044","Mapping"
"Blocked","m160","tile","16","m160greet.wav","None","734.831112437","118","532009.453898","538892.755856","539659.624732","540426.281206","541175.737448","541942.464413","NA","NA","532776.187975","533525.59815","534292.471354","535058.947581","535825.791723","536592.504776","537358.689452","538125.717862","541185.421061","Mapping"
"Blocked","m160","tile","16","m160tile.wav","None","733.591018943","118","532009.453898","538892.755856","539659.624732","540426.281206","541175.737448","541942.464413","542709.283513","NA","532776.187975","533525.59815","534292.471354","535058.947581","535825.791723","536592.504776","537358.689452","538125.717862","541951.594298","Mapping"
"Blocked","m160","tile","16","m160cling.wav","None","731.642300263","118","532009.453898","538892.755856","539659.624732","540426.281206","541175.737448","541942.464413","542709.283513","543475.974305","532776.187975","533525.59815","534292.471354","535058.947581","535825.791723","536592.504776","537358.689452","538125.717862","542718.362693","Mapping"
"Blocked","m160","cave","7","m160jaw.wav","None","729.997807881","118","546642.832299","538892.755856","539659.624732","540426.281206","541175.737448","541942.464413","542709.283513","543475.974305","532776.187975","533525.59815","534292.471354","535058.947581","535825.791723","536592.504776","537358.689452","538125.717862","543484.921778","Mapping"
"Blocked","m160","cave","7","m160priest.wav","None","721.773800906","118","546642.832299","538892.755856","539659.624732","540426.281206","541175.737448","541942.464413","542709.283513","543475.974305","547409.613061","533525.59815","534292.471354","535058.947581","535825.791723","536592.504776","537358.689452","538125.717862","546652.46459","Mapping"
"Blocked","m160","cave","7","m160cave.wav","None","720.194234978","118","546642.832299","538892.755856","539659.624732","540426.281206","541175.737448","541942.464413","542709.283513","543475.974305","547409.613061","548159.701561","534292.471354","535058.947581","535825.791723","536592.504776","537358.689452","538125.717862","547419.370258","Mapping"
"Blocked","m160","cave","7","m160knife.wav","None","736.099031987","118","546642.832299","538892.755856","539659.624732","540426.281206","541175.737448","541942.464413","542709.283513","543475.974305","547409.613061","548159.701561","548925.819765","535058.947581","535825.791723","536592.504776","537358.689452","538125.717862","548168.32131","Mapping"
"Blocked","m160","cave","7","m160priest.wav","None","734.611908672","118","546642.832299","538892.755856","539659.624732","540426.281206","541175.737448","541942.464413","542709.283513","543475.974305","547409.613061","548159.701561","548925.819765","549692.112342","535825.791723","536592.504776","537358.689452","538125.717862","548934.651607","Mapping"
"Blocked","m160","cave","7","m160romp.wav","None","733.623172855","118","546642.832299","538892.755856","539659.624732","540426.281206","541175.737448","541942.464413","542709.283513","543475.974305","547409.613061","548159.701561","548925.819765","549692.112342","550458.752431","536592.504776","537358.689452","538125.717862","549700.818969","Mapping"
"Blocked","m160","cave","7","m160gnash.wav","None","731.648792978","118","546642.832299","538892.755856","539659.624732","540426.281206","541175.737448","541942.464413","542709.283513","543475.974305","547409.613061","548159.701561","548925.819765","549692.112342","550458.752431","551226.098361","537358.689452","538125.717862","550467.515945","Mapping"
"Blocked","m160","cave","7","m160romp.wav","None","728.789868299","118","546642.832299","538892.755856","539659.624732","540426.281206","541175.737448","541942.464413","542709.283513","543475.974305","547409.613061","548159.701561","548925.819765","549692.112342","550458.752431","551226.098361","551992.339307","538125.717862","551235.175686","Mapping"
"Blocked","m160","cave","7","m160cave.wav","None","727.287286427","118","546642.832299","538892.755856","539659.624732","540426.281206","541175.737448","541942.464413","542709.283513","543475.974305","547409.613061","548159.701561","548925.819765","549692.112342","550458.752431","551226.098361","551992.339307","552759.167063","552001.471046","Mapping"
"Blocked","m160","cave","7","m160knife.wav","None","724.998168182","118","546642.832299","553526.002857","539659.624732","540426.281206","541175.737448","541942.464413","542709.283513","543475.974305","547409.613061","548159.701561","548925.819765","549692.112342","550458.752431","551226.098361","551992.339307","552759.167063","552768.66981","Mapping"
"Blocked","m160","cave","7","m160cave.wav","None","722.900737077","118","546642.832299","553526.002857","554292.663351","540426.281206","541175.737448","541942.464413","542709.283513","543475.974305","547409.613061","548159.701561","548925.819765","549692.112342","550458.752431","551226.098361","551992.339307","552759.167063","553535.830237","Mapping"
"Blocked","m160","cave","7","m160greet.wav","space","678.172650514","118","546642.832299","553526.002857","554292.663351","555059.504092","541175.737448","541942.464413","542709.283513","543475.974305","547409.613061","548159.701561","548925.819765","549692.112342","550458.752431","551226.098361","551992.339307","552759.167063","554302.574825","Mapping"
"Blocked","m160","cave","7","m160tile.wav","None","718.878084561","118","546642.832299","553526.002857","554292.663351","555059.504092","555808.770193","541942.464413","542709.283513","543475.974305","547409.613061","548159.701561","548925.819765","549692.112342","550458.752431","551226.098361","551992.339307","552759.167063","555069.216459","Mapping"
"Blocked","m160","cave","7","m160cave.wav","None","735.217269976","118","546642.832299","553526.002857","554292.663351","555059.504092","555808.770193","556575.579398","542709.283513","543475.974305","547409.613061","548159.701561","548925.819765","549692.112342","550458.752431","551226.098361","551992.339307","552759.167063","555817.768369","Mapping"
"Blocked","m160","cave","7","m160reek.wav","None","733.442615718","118","546642.832299","553526.002857","554292.663351","555059.504092","555808.770193","556575.579398","557342.590494","543475.974305","547409.613061","548159.701561","548925.819765","549692.112342","550458.752431","551226.098361","551992.339307","552759.167063","556584.592106","Mapping"
"Blocked","m160","cave","7","m160romp.wav","space","476.854212349","118","546642.832299","553526.002857","554292.663351","555059.504092","555808.770193","556575.579398","557342.590494","558108.632332","547409.613061","548159.701561","548925.819765","549692.112342","550458.752431","551226.098361","551992.339307","552759.167063","557351.80602","Mapping"
"Blocked","m160","done","24","m160cad.wav","None","732.351234416","118","561242.566162","553526.002857","554292.663351","555059.504092","555808.770193","556575.579398","557342.590494","558108.632332","547409.613061","548159.701561","548925.819765","549692.112342","550458.752431","551226.098361","551992.339307","552759.167063","558117.33463","Mapping"
"Blocked","m160","done","24","m160done.wav","None","721.041678684","118","561242.566162","553526.002857","554292.663351","555059.504092","555808.770193","556575.579398","557342.590494","558108.632332","561992.097224","548159.701561","548925.819765","549692.112342","550458.752431","551226.098361","551992.339307","552759.167063","561251.957607","Mapping"
"Blocked","m160","done","24","m160gnash.wav","None","736.811057897","118","561242.566162","553526.002857","554292.663351","555059.504092","555808.770193","556575.579398","557342.590494","558108.632332","561992.097224","562758.969501","548925.819765","549692.112342","550458.752431","551226.098361","551992.339307","552759.167063","562000.994301","Mapping"
"Blocked","m160","done","24","m160reek.wav","None","734.484838787","118","561242.566162","553526.002857","554292.663351","555059.504092","555808.770193","556575.579398","557342.590494","558108.632332","561992.097224","562758.969501","563525.463969","549692.112342","550458.752431","551226.098361","551992.339307","552759.167063","562768.196157","Mapping"
"Blocked","m160","done","24","m160priest.wav","None","733.112418791","118","561242.566162","553526.002857","554292.663351","555059.504092","555808.770193","556575.579398","557342.590494","558108.632332","561992.097224","562758.969501","563525.463969","564291.788391","550458.752431","551226.098361","551992.339307","552759.167063","563534.464928","Mapping"
"Blocked","m160","done","24","m160ball.wav","None","732.084108749","118","561242.566162","553526.002857","554292.663351","555059.504092","555808.770193","556575.579398","557342.590494","558108.632332","561992.097224","562758.969501","563525.463969","564291.788391","565058.468671","551226.098361","551992.339307","552759.167063","564300.493781","Mapping"
"Blocked","m160","done","24","m160done.wav","space","537.103721173","118","561242.566162","553526.002857","554292.663351","555059.504092","555808.770193","556575.579398","557342.590494","558108.632332","561992.097224","562758.969501","563525.463969","564291.788391","565058.468671","565825.464927","551992.339307","552759.167063","565067.428511","Mapping"
"Blocked","m160","done","24","m160jolt.wav","space","113.753786078","118","561242.566162","553526.002857","554292.663351","555059.504092","555808.770193","556575.579398","557342.590494","558108.632332","561992.097224","562758.969501","563525.463969","564291.788391","565058.468671","565825.464927","566591.872826","552759.167063","565834.772586","Mapping"
"Blocked","m160","done","24","m160reek.wav","None","726.401505293","118","561242.566162","553526.002857","554292.663351","555059.504092","555808.770193","556575.579398","557342.590494","558108.632332","561992.097224","562758.969501","563525.463969","564291.788391","565058.468671","565825.464927","566591.872826","567358.802918","566600.602022","Mapping"
"Blocked","m160","done","24","m160jaw.wav","None","724.393425509","118","561242.566162","568125.813396","554292.663351","555059.504092","555808.770193","556575.579398","557342.590494","558108.632332","561992.097224","562758.969501","563525.463969","564291.788391","565058.468671","565825.464927","566591.872826","567358.802918","567367.58251","Mapping"
"Blocked","m160","done","24","m160done.wav","None","721.656624228","118","561242.566162","568125.813396","568892.302917","555059.504092","555808.770193","556575.579398","557342.590494","558108.632332","561992.097224","562758.969501","563525.463969","564291.788391","565058.468671","565825.464927","566591.872826","567358.802918","568135.198967","Mapping"
"Blocked","m160","done","24","m160cling.wav","None","719.943804666","118","561242.566162","568125.813396","568892.302917","569641.830886","555808.770193","556575.579398","557342.590494","558108.632332","561992.097224","562758.969501","563525.463969","564291.788391","565058.468671","565825.464927","566591.872826","567358.802918","568901.897179","Mapping"
"Blocked","m160","done","24","m160done.wav","None","736.009989865","118","561242.566162","568125.813396","568892.302917","569641.830886","570408.628344","556575.579398","557342.590494","558108.632332","561992.097224","562758.969501","563525.463969","564291.788391","565058.468671","565825.464927","566591.872826","567358.802918","569650.906357","Mapping"
"Blocked","m160","done","24","m160cave.wav","None","733.516508015","118","561242.566162","568125.813396","568892.302917","569641.830886","570408.628344","571175.328102","557342.590494","558108.632332","561992.097224","562758.969501","563525.463969","564291.788391","565058.468671","565825.464927","566591.872826","567358.802918","570418.308866","Mapping"
"Blocked","m160","done","24","m160jaw.wav","None","732.405339833","118","561242.566162","568125.813396","568892.302917","569641.830886","570408.628344","571175.328102","571941.998799","558108.632332","561992.097224","562758.969501","563525.463969","564291.788391","565058.468671","565825.464927","566591.872826","567358.802918","571184.399244","Mapping"
"Blocked","m160","done","24","m160gnash.wav","None","730.477644829","118","561242.566162","568125.813396","568892.302917","569641.830886","570408.628344","571175.328102","571941.998799","572708.741841","561992.097224","562758.969501","563525.463969","564291.788391","565058.468671","565825.464927","566591.872826","567358.802918","571951.307694","Mapping"
"Blocked","m160","done","19","m160jaw.wav","None","728.899933863","118","575842.234791","568125.813396","568892.302917","569641.830886","570408.628344","571175.328102","571941.998799","572708.741841","561992.097224","562758.969501","563525.463969","564291.788391","565058.468671","565825.464927","566591.872826","567358.802918","572717.861832","Mapping"
"Blocked","m160","done","19","m160done.wav","None","721.957758768","118","575842.234791","568125.813396","568892.302917","569641.830886","570408.628344","571175.328102","571941.998799","572708.741841","576608.946916","562758.969501","563525.463969","564291.788391","565058.468671","565825.464927","566591.872826","567358.802918","575851.897381","Mapping"
"Blocked","m160","done","19","m160cave.wav","None","720.463215839","118","575842.234791","568125.813396","568892.302917","569641.830886","570408.628344","571175.328102","571941.998799","572708.741841","576608.946916","577358.620815","563525.463969","564291.788391","565058.468671","565825.464927","566591.872826","567358.802918","576618.41349","Mapping"
"Blocked","m160","done","19","m160done.wav","None","736.794362543","118","575842.234791","568125.813396","568892.302917","569641.830886","570408.628344","571175.328102","571941.998799","572708.741841","576608.946916","577358.620815","578125.212363","564291.788391","565058.468671","565825.464927","566591.872826","567358.802918","577367.346301","Mapping"
"Blocked","m160","done","19","m160knife.wav","None","734.979206463","118","575842.234791","568125.813396","568892.302917","569641.830886","570408.628344","571175.328102","571941.998799","572708.741841","576608.946916","577358.620815","578125.212363","578891.586562","565058.468671","565825.464927","566591.872826","567358.802918","578134.224144","Mapping"
"Blocked","m160","done","19","m160jolt.wav","None","734.207201051","118","575842.234791","568125.813396","568892.302917","569641.830886","570408.628344","571175.328102","571941.998799","572708.741841","576608.946916","577358.620815","578125.212363","578891.586562","579658.186767","565825.464927","566591.872826","567358.802918","578900.321633","Mapping"
"Blocked","m160","done","19","m160done.wav","space","273.41515501","118","575842.234791","568125.813396","568892.302917","569641.830886","570408.628344","571175.328102","571941.998799","572708.741841","576608.946916","577358.620815","578125.212363","578891.586562","579658.186767","580425.235273","566591.872826","567358.802918","579666.864022","Mapping"
"Blocked","m160","done","19","m160depth.wav","None","729.558472987","118","575842.234791","568125.813396","568892.302917","569641.830886","570408.628344","571175.328102","571941.998799","572708.741841","576608.946916","577358.620815","578125.212363","578891.586562","579658.186767","580425.235273","581191.748909","567358.802918","580434.82799","Mapping"
"Blocked","m160","done","19","m160bluff.wav","None","728.222535225","118","575842.234791","568125.813396","568892.302917","569641.830886","570408.628344","571175.328102","571941.998799","572708.741841","576608.946916","577358.620815","578125.212363","578891.586562","579658.186767","580425.235273","581191.748909","581958.311395","581201.253203","Mapping"
"Blocked","m160","done","19","m160ball.wav","None","727.448365651","118","575842.234791","582724.865224","568892.302917","569641.830886","570408.628344","571175.328102","571941.998799","572708.741841","576608.946916","577358.620815","578125.212363","578891.586562","579658.186767","580425.235273","581191.748909","581958.311395","581967.124995","Mapping"
"Blocked","m160","done","19","m160priest.wav","None","726.070689969","118","575842.234791","582724.865224","583492.104489","569641.830886","570408.628344","571175.328102","571941.998799","572708.741841","576608.946916","577358.620815","578125.212363","578891.586562","579658.186767","580425.235273","581191.748909","581958.311395","582733.729528","Mapping"
"Blocked","m160","done","19","m160cave.wav","None","723.306990694","118","575842.234791","582724.865224","583492.104489","584258.806103","570408.628344","571175.328102","571941.998799","572708.741841","576608.946916","577358.620815","578125.212363","578891.586562","579658.186767","580425.235273","581191.748909","581958.311395","583501.577247","Mapping"
"Blocked","m160","done","19","m160park.wav","None","720.888947137","118","575842.234791","582724.865224","583492.104489","584258.806103","585025.612217","571175.328102","571941.998799","572708.741841","576608.946916","577358.620815","578125.212363","578891.586562","579658.186767","580425.235273","581191.748909","581958.311395","584269.24379","Mapping"
"Blocked","m160","done","19","m160lash.wav","None","720.431370893","118","575842.234791","582724.865224","583492.104489","584258.806103","585025.612217","585775.058874","571941.998799","572708.741841","576608.946916","577358.620815","578125.212363","578891.586562","579658.186767","580425.235273","581191.748909","581958.311395","585035.062714","Mapping"
"Blocked","m160","done","19","m160done.wav","None","736.848158529","118","575842.234791","582724.865224","583492.104489","584258.806103","585025.612217","585775.058874","586541.61023","572708.741841","576608.946916","577358.620815","578125.212363","578891.586562","579658.186767","580425.235273","581191.748909","581958.311395","585783.795181","Mapping"
"Blocked","m160","done","19","m160knife.wav","None","734.948907746","118","575842.234791","582724.865224","583492.104489","584258.806103","585025.612217","585775.058874","586541.61023","587307.998651","576608.946916","577358.620815","578125.212363","578891.586562","579658.186767","580425.235273","581191.748909","581958.311395","586550.87615","Mapping"
"Blocked","m160","ball","4","m160reek.wav","None","734.233171679","118","590442.051513","582724.865224","583492.104489","584258.806103","585025.612217","585775.058874","586541.61023","587307.998651","576608.946916","577358.620815","578125.212363","578891.586562","579658.186767","580425.235273","581191.748909","581958.311395","587316.866356","Mapping"
"Blocked","m160","ball","4","m160ball.wav","None","721.479158849","118","590442.051513","582724.865224","583492.104489","584258.806103","585025.612217","585775.058874","586541.61023","587307.998651","591208.715098","577358.620815","578125.212363","578891.586562","579658.186767","580425.235273","581191.748909","581958.311395","590451.390398","Mapping"
"Blocked","m160","ball","4","m160dime.wav","None","719.487155788","118","590442.051513","582724.865224","583492.104489","584258.806103","585025.612217","585775.058874","586541.61023","587307.998651","591208.715098","591957.787965","578125.212363","578891.586562","579658.186767","580425.235273","581191.748909","581958.311395","591218.498884","Mapping"
"Blocked","m160","ball","4","m160ball.wav","None","736.440668348","118","590442.051513","582724.865224","583492.104489","584258.806103","585025.612217","585775.058874","586541.61023","587307.998651","591208.715098","591957.787965","592724.965396","578891.586562","579658.186767","580425.235273","581191.748909","581958.311395","591966.702356","Mapping"
"Blocked","m160","ball","4","m160bluff.wav","None","734.224514803","118","590442.051513","582724.865224","583492.104489","584258.806103","585025.612217","585775.058874","586541.61023","587307.998651","591208.715098","591957.787965","592724.965396","593491.646604","579658.186767","580425.235273","581191.748909","581958.311395","592733.992944","Mapping"
"Blocked","m160","ball","4","m160cad.wav","None","732.481705258","118","590442.051513","582724.865224","583492.104489","584258.806103","585025.612217","585775.058874","586541.61023","587307.998651","591208.715098","591957.787965","592724.965396","593491.646604","594258.409434","580425.235273","581191.748909","581958.311395","593500.973741","Mapping"
"Blocked","m160","ball","4","m160tile.wav","None","731.089807814","118","590442.051513","582724.865224","583492.104489","584258.806103","585025.612217","585775.058874","586541.61023","587307.998651","591208.715098","591957.787965","592724.965396","593491.646604","594258.409434","595024.937601","581191.748909","581958.311395","594267.582293","Mapping"
"Blocked","m160","ball","4","m160tile.wav","None","729.32690219","118","590442.051513","582724.865224","583492.104489","584258.806103","585025.612217","585775.058874","586541.61023","587307.998651","591208.715098","591957.787965","592724.965396","593491.646604","594258.409434","595024.937601","595791.607061","581958.311395","595034.515169","Mapping"
"Blocked","m160","ball","4","m160priest.wav","None","728.319615824","118","590442.051513","582724.865224","583492.104489","584258.806103","585025.612217","585775.058874","586541.61023","587307.998651","591208.715098","591957.787965","592724.965396","593491.646604","594258.409434","595024.937601","595791.607061","596558.353504","595800.665835","Mapping"
"Blocked","m160","ball","4","m160ball.wav","None","726.582989795","118","590442.051513","597324.864667","583492.104489","584258.806103","585025.612217","585775.058874","586541.61023","587307.998651","591208.715098","591957.787965","592724.965396","593491.646604","594258.409434","595024.937601","595791.607061","596558.353504","596567.468858","Mapping"
"Blocked","m160","ball","4","m160cave.wav","None","725.451106904","118","590442.051513","597324.864667","598091.345222","584258.806103","585025.612217","585775.058874","586541.61023","587307.998651","591208.715098","591957.787965","592724.965396","593491.646604","594258.409434","595024.937601","595791.607061","596558.353504","597333.837182","Mapping"
"Blocked","m160","ball","4","m160ball.wav","None","724.070648663","118","590442.051513","597324.864667","598091.345222","598858.569956","585025.612217","585775.058874","586541.61023","587307.998651","591208.715098","591957.787965","592724.965396","593491.646604","594258.409434","595024.937601","595791.607061","596558.353504","598100.435532","Mapping"
"Blocked","m160","ball","4","m160romp.wav","None","721.703927498","118","590442.051513","597324.864667","598091.345222","598858.569956","599625.165523","585775.058874","586541.61023","587307.998651","591208.715098","591957.787965","592724.965396","593491.646604","594258.409434","595024.937601","595791.607061","596558.353504","598868.015198","Mapping"
"Blocked","m160","ball","4","m160cave.wav","None","720.192998415","118","590442.051513","597324.864667","598091.345222","598858.569956","599625.165523","600374.955672","586541.61023","587307.998651","591208.715098","591957.787965","592724.965396","593491.646604","594258.409434","595024.937601","595791.607061","596558.353504","599634.631789","Mapping"
"Blocked","m160","ball","4","m160lash.wav","None","735.392570961","118","590442.051513","597324.864667","598091.345222","598858.569956","599625.165523","600374.955672","601141.361098","587307.998651","591208.715098","591957.787965","592724.965396","593491.646604","594258.409434","595024.937601","595791.607061","596558.353504","600384.535713","Mapping"
"Blocked","m160","ball","4","m160cad.wav","None","734.287586063","118","590442.051513","597324.864667","598091.345222","598858.569956","599625.165523","600374.955672","601141.361098","601908.200603","591208.715098","591957.787965","592724.965396","593491.646604","594258.409434","595024.937601","595791.607061","596558.353504","601150.803247","Mapping"
"Blocked","m160","ball","3","m160cad.wav","None","733.240725705","118","605058.34562","597324.864667","598091.345222","598858.569956","599625.165523","600374.955672","601141.361098","601908.200603","591208.715098","591957.787965","592724.965396","593491.646604","594258.409434","595024.937601","595791.607061","596558.353504","601917.285348","Mapping"
"Blocked","m160","ball","3","m160knife.wav","None","721.068885876","118","605058.34562","597324.864667","598091.345222","598858.569956","599625.165523","600374.955672","601141.361098","601908.200603","605825.221298","591957.787965","592724.965396","593491.646604","594258.409434","595024.937601","595791.607061","596558.353504","605068.31893","Mapping"
"Blocked","m160","ball","3","m160ball.wav","space","169.083112851","118","605058.34562","597324.864667","598091.345222","598858.569956","599625.165523","600374.955672","601141.361098","601908.200603","605825.221298","606574.253973","592724.965396","593491.646604","594258.409434","595024.937601","595791.607061","596558.353504","605834.717863","Mapping"
"Blocked","m160","ball","3","m160done.wav","None","735.932078445","118","605058.34562","597324.864667","598091.345222","598858.569956","599625.165523","600374.955672","601141.361098","601908.200603","605825.221298","606574.253973","607341.308662","593491.646604","594258.409434","595024.937601","595791.607061","596558.353504","606583.275647","Mapping"
"Blocked","m160","ball","3","m160bluff.wav","None","733.623791253","118","605058.34562","597324.864667","598091.345222","598858.569956","599625.165523","600374.955672","601141.361098","601908.200603","605825.221298","606574.253973","607341.308662","608108.061289","594258.409434","595024.937601","595791.607061","596558.353504","607350.731952","Mapping"
"Blocked","m160","ball","3","m160dime.wav","None","732.33732162","118","605058.34562","597324.864667","598091.345222","598858.569956","599625.165523","600374.955672","601141.361098","601908.200603","605825.221298","606574.253973","607341.308662","608108.061289","608874.53566","595024.937601","595791.607061","596558.353504","608117.196739","Mapping"
"Blocked","m160","ball","3","m160tile.wav","None","731.099701254","118","605058.34562","597324.864667","598091.345222","598858.569956","599625.165523","600374.955672","601141.361098","601908.200603","605825.221298","606574.253973","607341.308662","608108.061289","608874.53566","609641.086088","595791.607061","596558.353504","608883.626589","Mapping"
"Blocked","m160","ball","3","m160ball.wav","None","730.310691288","118","605058.34562","597324.864667","598091.345222","598858.569956","599625.165523","600374.955672","601141.361098","601908.200603","605825.221298","606574.253973","607341.308662","608108.061289","608874.53566","609641.086088","610407.945689","596558.353504","609649.85424","Mapping"
"Blocked","m160","ball","3","m160greet.wav","None","728.283442557","118","605058.34562","597324.864667","598091.345222","598858.569956","599625.165523","600374.955672","601141.361098","601908.200603","605825.221298","606574.253973","607341.308662","608108.061289","608874.53566","609641.086088","610407.945689","611174.323908","610417.067535","Mapping"
"Blocked","m160","ball","3","m160dime.wav","None","727.58100112","118","605058.34562","611941.331912","598091.345222","598858.569956","599625.165523","600374.955672","601141.361098","601908.200603","605825.221298","606574.253973","607341.308662","608108.061289","608874.53566","609641.086088","610407.945689","611174.323908","611183.214801","Mapping"
"Blocked","m160","ball","3","m160cad.wav","None","725.409986684","118","605058.34562","611941.331912","612708.298487","598858.569956","599625.165523","600374.955672","601141.361098","601908.200603","605825.221298","606574.253973","607341.308662","608108.061289","608874.53566","609641.086088","610407.945689","611174.323908","611950.463342","Mapping"
"Blocked","m160","ball","3","m160greet.wav","None","728.314978303","118","605058.34562","611941.331912","612708.298487","613475.094398","599625.165523","600374.955672","601141.361098","601908.200603","605825.221298","606574.253973","607341.308662","608108.061289","608874.53566","609641.086088","610407.945689","611174.323908","612712.775006","Mapping"
"Blocked","m160","ball","3","m160ball.wav","None","721.834708005","118","605058.34562","611941.331912","612708.298487","613475.094398","614241.557021","600374.955672","601141.361098","601908.200603","605825.221298","606574.253973","607341.308662","608108.061289","608874.53566","609641.086088","610407.945689","611174.323908","613484.488626","Mapping"
"Blocked","m160","ball","3","m160romp.wav","None","721.199047752","118","605058.34562","611941.331912","612708.298487","613475.094398","614241.557021","615008.253379","601141.361098","601908.200603","605825.221298","606574.253973","607341.308662","608108.061289","608874.53566","609641.086088","610407.945689","611174.323908","614251.028542","Mapping"
"Blocked","m160","ball","3","m160ball.wav","None","719.770977041","118","605058.34562","611941.331912","612708.298487","613475.094398","614241.557021","615008.253379","615757.297802","601908.200603","605825.221298","606574.253973","607341.308662","608108.061289","608874.53566","609641.086088","610407.945689","611174.323908","615017.592883","Mapping"
"Blocked","m160","ball","3","m160cad.wav","None","736.376051093","118","605058.34562","611941.331912","612708.298487","613475.094398","614241.557021","615008.253379","615757.297802","616524.53243","605825.221298","606574.253973","607341.308662","608108.061289","608874.53566","609641.086088","610407.945689","611174.323908","615766.259187","Mapping"
"Blocked","m160","tile","13","m160ball.wav","None","734.291605419","118","619658.331151","611941.331912","612708.298487","613475.094398","614241.557021","615008.253379","615757.297802","616524.53243","605825.221298","606574.253973","607341.308662","608108.061289","608874.53566","609641.086088","610407.945689","611174.323908","616533.535244","Mapping"
"Blocked","m160","tile","13","m160tile.wav","None","721.101658186","118","619658.331151","611941.331912","612708.298487","613475.094398","614241.557021","615008.253379","615757.297802","616524.53243","620424.782644","606574.253973","607341.308662","608108.061289","608874.53566","609641.086088","610407.945689","611174.323908","619668.35331","Mapping"
"Blocked","m160","tile","13","m160jaw.wav","None","720.483311918","118","619658.331151","611941.331912","612708.298487","613475.094398","614241.557021","615008.253379","615757.297802","616524.53243","620424.782644","621191.319159","607341.308662","608108.061289","608874.53566","609641.086088","610407.945689","611174.323908","620434.395457","Mapping"
"Blocked","m160","tile","13","m160cling.wav","None","720.232572407","118","619658.331151","611941.331912","612708.298487","613475.094398","614241.557021","615008.253379","615757.297802","616524.53243","620424.782644","621191.319159","621940.878664","608108.061289","608874.53566","609641.086088","610407.945689","611174.323908","621200.106479","Mapping"
"Blocked","m160","tile","13","m160tile.wav","None","735.786766978","118","619658.331151","611941.331912","612708.298487","613475.094398","614241.557021","615008.253379","615757.297802","616524.53243","620424.782644","621191.319159","621940.878664","622707.860698","608874.53566","609641.086088","610407.945689","611174.323908","621950.028026","Mapping"
"Blocked","m160","tile","13","m160knife.wav","None","733.975939453","118","619658.331151","611941.331912","612708.298487","613475.094398","614241.557021","615008.253379","615757.297802","616524.53243","620424.782644","621191.319159","621940.878664","622707.860698","623474.51037","609641.086088","610407.945689","611174.323908","622717.49237","Mapping"
"Blocked","m160","tile","13","m160romp.wav","None","733.153229579","118","619658.331151","611941.331912","612708.298487","613475.094398","614241.557021","615008.253379","615757.297802","616524.53243","620424.782644","621191.319159","621940.878664","622707.860698","623474.51037","624240.761827","610407.945689","611174.323908","623483.587077","Mapping"
"Blocked","m160","tile","13","m160knife.wav","None","732.633200241","118","619658.331151","611941.331912","612708.298487","613475.094398","614241.557021","615008.253379","615757.297802","616524.53243","620424.782644","621191.319159","621940.878664","622707.860698","623474.51037","624240.761827","625007.440562","611174.323908","624249.524414","Mapping"
"Blocked","m160","tile","13","m160lash.wav","None","731.536562787","118","619658.331151","611941.331912","612708.298487","613475.094398","614241.557021","615008.253379","615757.297802","616524.53243","620424.782644","621191.319159","621940.878664","622707.860698","623474.51037","624240.761827","625007.440562","625774.456914","625016.443995","Mapping"
"Blocked","m160","tile","13","m160tile.wav","None","730.138172628","118","619658.331151","626541.501092","612708.298487","613475.094398","614241.557021","615008.253379","615757.297802","616524.53243","620424.782644","621191.319159","621940.878664","622707.860698","623474.51037","624240.761827","625007.440562","625774.456914","625783.420154","Mapping"
"Blocked","m160","tile","13","m160cad.wav","None","728.220371297","118","619658.331151","626541.501092","627307.824586","613475.094398","614241.557021","615008.253379","615757.297802","616524.53243","620424.782644","621191.319159","621940.878664","622707.860698","623474.51037","624240.761827","625007.440562","625774.456914","626550.824519","Mapping"
"Blocked","m160","tile","13","m160lash.wav","None","727.331189206","118","619658.331151","626541.501092","627307.824586","628074.300813","614241.557021","615008.253379","615757.297802","616524.53243","620424.782644","621191.319159","621940.878664","622707.860698","623474.51037","624240.761827","625007.440562","625774.456914","627317.150177","Mapping"
"Blocked","m160","tile","13","m160reek.wav","None","724.669208052","118","619658.331151","626541.501092","627307.824586","628074.300813","628841.024377","615008.253379","615757.297802","616524.53243","620424.782644","621191.319159","621940.878664","622707.860698","623474.51037","624240.761827","625007.440562","625774.456914","628085.36303","Mapping"
"Blocked","m160","tile","13","m160reek.wav","None","725.232212339","118","619658.331151","626541.501092","627307.824586","628074.300813","628841.024377","629607.370751","615757.297802","616524.53243","620424.782644","621191.319159","621940.878664","622707.860698","623474.51037","624240.761827","625007.440562","625774.456914","628850.295245","Mapping"
"Blocked","m160","tile","13","m160tile.wav","None","725.221391302","118","619658.331151","626541.501092","627307.824586","628074.300813","628841.024377","629607.370751","630374.446464","616524.53243","620424.782644","621191.319159","621940.878664","622707.860698","623474.51037","624240.761827","625007.440562","625774.456914","629616.170438","Mapping"
"Blocked","m160","tile","13","m160reek.wav","None","723.551546922","118","619658.331151","626541.501092","627307.824586","628074.300813","628841.024377","629607.370751","630374.446464","631141.317814","620424.782644","621191.319159","621940.878664","622707.860698","623474.51037","624240.761827","625007.440562","625774.456914","630383.199466","Mapping"
"Blocked","m160","tile","18","m160jolt.wav","None","721.930242609","118","634257.98834","626541.501092","627307.824586","628074.300813","628841.024377","629607.370751","630374.446464","631141.317814","620424.782644","621191.319159","621940.878664","622707.860698","623474.51037","624240.761827","625007.440562","625774.456914","631150.470886","Mapping"
"Blocked","m160","tile","18","m160jaw.wav","None","721.037968528","118","634257.98834","626541.501092","627307.824586","628074.300813","628841.024377","629607.370751","630374.446464","631141.317814","635024.553917","621191.319159","621940.878664","622707.860698","623474.51037","624240.761827","625007.440562","625774.456914","634267.824376","Mapping"
"Blocked","m160","tile","18","m160lash.wav","None","720.240920084","118","634257.98834","626541.501092","627307.824586","628074.300813","628841.024377","629607.370751","630374.446464","631141.317814","635024.553917","635774.063337","621940.878664","622707.860698","623474.51037","624240.761827","625007.440562","625774.456914","635034.041515","Mapping"
"Blocked","m160","tile","18","m160priest.wav","None","736.851559486","118","634257.98834","626541.501092","627307.824586","628074.300813","628841.024377","629607.370751","630374.446464","631141.317814","635024.553917","635774.063337","636540.680546","622707.860698","623474.51037","624240.761827","625007.440562","625774.456914","635782.867971","Mapping"
"Blocked","m160","tile","18","m160tile.wav","None","735.44884054","118","634257.98834","626541.501092","627307.824586","628074.300813","628841.024377","629607.370751","630374.446464","631141.317814","635024.553917","635774.063337","636540.680546","637307.738636","623474.51037","624240.761827","625007.440562","625774.456914","636549.696036","Mapping"
"Blocked","m160","tile","18","m160romp.wav","space","229.811221827","118","634257.98834","626541.501092","627307.824586","628074.300813","628841.024377","629607.370751","630374.446464","631141.317814","635024.553917","635774.063337","636540.680546","637307.738636","638074.147463","624240.761827","625007.440562","625774.456914","637317.417612","Mapping"
"Blocked","m160","tile","18","m160bluff.wav","None","731.894276338","118","634257.98834","626541.501092","627307.824586","628074.300813","628841.024377","629607.370751","630374.446464","631141.317814","635024.553917","635774.063337","636540.680546","637307.738636","638074.147463","638840.765909","625007.440562","625774.456914","638083.529014","Mapping"
"Blocked","m160","tile","18","m160priest.wav","None","730.725910747","118","634257.98834","626541.501092","627307.824586","628074.300813","628841.024377","629607.370751","630374.446464","631141.317814","635024.553917","635774.063337","636540.680546","637307.738636","638074.147463","638840.765909","639607.61036","625774.456914","638850.178377","Mapping"
"Blocked","m160","tile","18","m160tile.wav","None","734.498133184","118","634257.98834","626541.501092","627307.824586","628074.300813","628841.024377","629607.370751","630374.446464","631141.317814","635024.553917","635774.063337","636540.680546","637307.738636","638074.147463","638840.765909","639607.61036","640374.249212","639612.069565","Mapping"
"Blocked","m160","tile","18","m160priest.wav","space","435.996973887","118","634257.98834","641140.497886","627307.824586","628074.300813","628841.024377","629607.370751","630374.446464","631141.317814","635024.553917","635774.063337","636540.680546","637307.738636","638074.147463","638840.765909","639607.61036","640374.249212","640383.181225","Mapping"
"Blocked","m160","tile","18","m160tile.wav","None","727.6975594","118","634257.98834","641140.497886","641907.538354","628074.300813","628841.024377","629607.370751","630374.446464","631141.317814","635024.553917","635774.063337","636540.680546","637307.738636","638074.147463","638840.765909","639607.61036","640374.249212","641149.305922","Mapping"
"Blocked","m160","tile","18","m160dime.wav","None","725.778521271","118","634257.98834","641140.497886","641907.538354","642673.874215","628841.024377","629607.370751","630374.446464","631141.317814","635024.553917","635774.063337","636540.680546","637307.738636","638074.147463","638840.765909","639607.61036","640374.249212","641916.714305","Mapping"
"Blocked","m160","tile","18","m160dime.wav","None","725.673711626","118","634257.98834","641140.497886","641907.538354","642673.874215","643441.239933","629607.370751","630374.446464","631141.317814","635024.553917","635774.063337","636540.680546","637307.738636","638074.147463","638840.765909","639607.61036","640374.249212","642682.636493","Mapping"
"Blocked","m160","tile","18","m160tile.wav","None","723.054705421","118","634257.98834","641140.497886","641907.538354","642673.874215","643441.239933","644207.751714","630374.446464","631141.317814","635024.553917","635774.063337","636540.680546","637307.738636","638074.147463","638840.765909","639607.61036","640374.249212","643450.646218","Mapping"
"Blocked","m160","tile","18","m160depth.wav","space","345.782398246","118","634257.98834","641140.497886","641907.538354","642673.874215","643441.239933","644207.751714","644974.44127","631141.317814","635024.553917","635774.063337","636540.680546","637307.738636","638074.147463","638840.765909","639607.61036","640374.249212","644217.33732","Mapping"
"Blocked","m160","tile","18","m160park.wav","None","719.57248752","118","634257.98834","641140.497886","641907.538354","642673.874215","643441.239933","644207.751714","644974.44127","645724.22709","635024.553917","635774.063337","636540.680546","637307.738636","638074.147463","638840.765909","639607.61036","640374.249212","644984.274833","Mapping"
"Blocked","m160","done","23","m160gnash.wav","None","736.203841632","118","648857.731479","641140.497886","641907.538354","642673.874215","643441.239933","644207.751714","644974.44127","645724.22709","635024.553917","635774.063337","636540.680546","637307.738636","638074.147463","638840.765909","639607.61036","640374.249212","645733.182292","Mapping"
"Blocked","m160","done","23","m160romp.wav","None","721.569437534","118","648857.731479","641140.497886","641907.538354","642673.874215","643441.239933","644207.751714","644974.44127","645724.22709","649624.10877","635774.063337","636540.680546","637307.738636","638074.147463","638840.765909","639607.61036","640374.249212","648867.106538","Mapping"
"Blocked","m160","done","23","m160done.wav","None","720.631096745","118","648857.731479","641140.497886","641907.538354","642673.874215","643441.239933","644207.751714","644974.44127","645724.22709","649624.10877","650391.085238","636540.680546","637307.738636","638074.147463","638840.765909","639607.61036","640374.249212","649633.616155","Mapping"
"Blocked","m160","done","23","m160cling.wav","None","719.342462951","118","648857.731479","641140.497886","641907.538354","642673.874215","643441.239933","644207.751714","644974.44127","645724.22709","649624.10877","650391.085238","651140.383492","637307.738636","638074.147463","638840.765909","639607.61036","640374.249212","650400.601898","Mapping"
"Blocked","m160","done","23","m160ball.wav","None","736.033487367","118","648857.731479","641140.497886","641907.538354","642673.874215","643441.239933","644207.751714","644974.44127","645724.22709","649624.10877","650391.085238","651140.383492","651906.967002","638074.147463","638840.765909","639607.61036","640374.249212","651149.455871","Mapping"
"Blocked","m160","done","23","m160done.wav","None","735.343721695","118","648857.731479","641140.497886","641907.538354","642673.874215","643441.239933","644207.751714","644974.44127","645724.22709","649624.10877","650391.085238","651140.383492","651906.967002","652673.853501","638840.765909","639607.61036","640374.249212","651916.015265","Mapping"
"Blocked","m160","done","23","m160lash.wav","return","311.704091495","118","648857.731479","641140.497886","641907.538354","642673.874215","643441.239933","644207.751714","644974.44127","645724.22709","649624.10877","650391.085238","651140.383492","651906.967002","652673.853501","653440.169575","639607.61036","640374.249212","652683.266279","Mapping"
"Blocked","m160","done","23","m160priest.wav","None","732.795516262","118","648857.731479","641140.497886","641907.538354","642673.874215","643441.239933","644207.751714","644974.44127","645724.22709","649624.10877","650391.085238","651140.383492","651906.967002","652673.853501","653440.169575","654207.298157","640374.249212","653448.877748","Mapping"
"Blocked","m160","done","23","m160reek.wav","None","730.916361557","118","648857.731479","641140.497886","641907.538354","642673.874215","643441.239933","644207.751714","644974.44127","645724.22709","649624.10877","650391.085238","651140.383492","651906.967002","652673.853501","653440.169575","654207.298157","654973.830653","654216.336217","Mapping"
"Blocked","m160","done","23","m160done.wav","None","730.056550819","118","648857.731479","655740.24659","641907.538354","642673.874215","643441.239933","644207.751714","644974.44127","645724.22709","649624.10877","650391.085238","651140.383492","651906.967002","652673.853501","653440.169575","654207.298157","654973.830653","654982.830994","Mapping"
"Blocked","m160","done","23","m160lash.wav","return","373.616952449","118","648857.731479","655740.24659","656507.302207","642673.874215","643441.239933","644207.751714","644974.44127","645724.22709","649624.10877","650391.085238","651140.383492","651906.967002","652673.853501","653440.169575","654207.298157","654973.830653","655749.290834","Mapping"
"Blocked","m160","done","23","m160knife.wav","None","727.200408932","118","648857.731479","655740.24659","656507.302207","657274.252705","643441.239933","644207.751714","644974.44127","645724.22709","649624.10877","650391.085238","651140.383492","651906.967002","652673.853501","653440.169575","654207.298157","654973.830653","656516.336866","Mapping"
"Blocked","m160","done","23","m160done.wav","None","725.927852094","118","648857.731479","655740.24659","656507.302207","657274.252705","658040.093271","644207.751714","644974.44127","645724.22709","649624.10877","650391.085238","651140.383492","651906.967002","652673.853501","653440.169575","654207.298157","654973.830653","657283.338069","Mapping"
"Blocked","m160","done","23","m160dime.wav","None","726.126341149","118","648857.731479","655740.24659","656507.302207","657274.252705","658040.093271","658807.519896","644974.44127","645724.22709","649624.10877","650391.085238","651140.383492","651906.967002","652673.853501","653440.169575","654207.298157","654973.830653","658048.827105","Mapping"
"Blocked","m160","done","23","m160cad.wav","None","722.949895542","118","648857.731479","655740.24659","656507.302207","657274.252705","658040.093271","658807.519896","659574.132159","645724.22709","649624.10877","650391.085238","651140.383492","651906.967002","652673.853501","653440.169575","654207.298157","654973.830653","658817.590904","Mapping"
"Blocked","m160","done","23","m160depth.wav","None","722.645978443","118","648857.731479","655740.24659","656507.302207","657274.252705","658040.093271","658807.519896","659574.132159","660340.727726","649624.10877","650391.085238","651140.383492","651906.967002","652673.853501","653440.169575","654207.298157","654973.830653","659583.71931","Mapping"
"Blocked","m160","ball","1","m160cave.wav","None","721.812138334","118","663457.470289","655740.24659","656507.302207","657274.252705","658040.093271","658807.519896","659574.132159","660340.727726","649624.10877","650391.085238","651140.383492","651906.967002","652673.853501","653440.169575","654207.298157","654973.830653","660350.179769","Mapping"
"Blocked","m160","ball","1","m160knife.wav","None","721.121136332","118","663457.470289","655740.24659","656507.302207","657274.252705","658040.093271","658807.519896","659574.132159","660340.727726","664224.076987","650391.085238","651140.383492","651906.967002","652673.853501","653440.169575","654207.298157","654973.830653","663467.479462","Mapping"
"Blocked","m160","ball","1","m160romp.wav","lalt","17.0382258948","118","663457.470289","655740.24659","656507.302207","657274.252705","658040.093271","658807.519896","659574.132159","660340.727726","664224.076987","664973.720587","651140.383492","651906.967002","652673.853501","653440.169575","654207.298157","654973.830653","664233.707113","Mapping"
"Blocked","m160","ball","1","m160ball.wav","None","736.223319545","118","663457.470289","655740.24659","656507.302207","657274.252705","658040.093271","658807.519896","659574.132159","660340.727726","664224.076987","664973.720587","665739.929379","651906.967002","652673.853501","653440.169575","654207.298157","654973.830653","664982.724329","Mapping"
"Blocked","m160","ball","1","m160cling.wav","None","735.92558573","118","663457.470289","655740.24659","656507.302207","657274.252705","658040.093271","658807.519896","659574.132159","660340.727726","664224.076987","664973.720587","665739.929379","666506.815878","652673.853501","653440.169575","654207.298157","654973.830653","665748.735559","Mapping"
"Blocked","m160","ball","1","m160cave.wav","None","734.179993859","118","663457.470289","655740.24659","656507.302207","657274.252705","658040.093271","658807.519896","659574.132159","660340.727726","664224.076987","664973.720587","665739.929379","666506.815878","667273.637141","653440.169575","654207.298157","654973.830653","666516.424053","Mapping"
"Blocked","m160","ball","1","m160ball.wav","lalt","168.004098581","118","663457.470289","655740.24659","656507.302207","657274.252705","658040.093271","658807.519896","659574.132159","660340.727726","664224.076987","664973.720587","665739.929379","666506.815878","667273.637141","668040.265481","654207.298157","654973.830653","667282.707046","Mapping"
"Blocked","m160","ball","1","m160dime.wav","lalt","409.002443543","118","663457.470289","655740.24659","656507.302207","657274.252705","658040.093271","658807.519896","659574.132159","660340.727726","664224.076987","664973.720587","665739.929379","666506.815878","667273.637141","668040.265481","668807.042223","654973.830653","668049.667438","Mapping"
"Blocked","m160","ball","1","m160park.wav","None","729.586916743","118","663457.470289","655740.24659","656507.302207","657274.252705","658040.093271","658807.519896","659574.132159","660340.727726","664224.076987","664973.720587","665739.929379","666506.815878","667273.637141","668040.265481","668807.042223","669573.678292","668816.144282","Mapping"
"Blocked","m160","ball","1","m160ball.wav","None","728.877055226","118","663457.470289","670340.191928","656507.302207","657274.252705","658040.093271","658807.519896","659574.132159","660340.727726","664224.076987","664973.720587","665739.929379","666506.815878","667273.637141","668040.265481","668807.042223","669573.678292","669582.678942","Mapping"
"Blocked","m160","ball","1","m160jaw.wav","None","733.348008711","118","663457.470289","670340.191928","671106.832635","657274.252705","658040.093271","658807.519896","659574.132159","660340.727726","664224.076987","664973.720587","665739.929379","666506.815878","667273.637141","668040.265481","668807.042223","669573.678292","670343.944982","Mapping"
"Blocked","m160","ball","1","m160ball.wav","None","727.006247966","118","663457.470289","670340.191928","671106.832635","671873.248572","658040.093271","658807.519896","659574.132159","660340.727726","664224.076987","664973.720587","665739.929379","666506.815878","667273.637141","668040.265481","668807.042223","669573.678292","671116.007659","Mapping"
"Blocked","m160","ball","1","m160bluff.wav","None","726.60030378","118","663457.470289","670340.191928","671106.832635","671873.248572","672640.150221","658807.519896","659574.132159","660340.727726","664224.076987","664973.720587","665739.929379","666506.815878","667273.637141","668040.265481","668807.042223","669573.678292","671882.10453","Mapping"
"Blocked","m160","ball","1","m160park.wav","None","724.70507212","118","663457.470289","670340.191928","671106.832635","671873.248572","672640.150221","673407.151114","659574.132159","660340.727726","664224.076987","664973.720587","665739.929379","666506.815878","667273.637141","668040.265481","668807.042223","669573.678292","672649.617414","Mapping"
"Blocked","m160","ball","1","m160park.wav","None","722.791598877","118","663457.470289","670340.191928","671106.832635","671873.248572","672640.150221","673407.151114","674173.437199","660340.727726","664224.076987","664973.720587","665739.929379","666506.815878","667273.637141","668040.265481","668807.042223","669573.678292","673417.204808","Mapping"
"Blocked","m160","ball","1","m160cave.wav","None","723.691293038","118","663457.470289","670340.191928","671106.832635","671873.248572","672640.150221","673407.151114","674173.437199","674940.482613","664224.076987","664973.720587","665739.929379","666506.815878","667273.637141","668040.265481","668807.042223","669573.678292","674182.151864","Mapping"
"Blocked","m160","tile","17","m160jaw.wav","None","721.626016079","118","678057.12655","670340.191928","671106.832635","671873.248572","672640.150221","673407.151114","674173.437199","674940.482613","664224.076987","664973.720587","665739.929379","666506.815878","667273.637141","668040.265481","668807.042223","669573.678292","674949.948569","Mapping"
"Blocked","m160","tile","17","m160jaw.wav","None","721.596953692","118","678057.12655","670340.191928","671106.832635","671873.248572","672640.150221","673407.151114","674173.437199","674940.482613","678823.977495","664973.720587","665739.929379","666506.815878","667273.637141","668040.265481","668807.042223","669573.678292","678066.614458","Mapping"
"Blocked","m160","tile","17","m160tile.wav","None","720.535562374","118","678057.12655","670340.191928","671106.832635","671873.248572","672640.150221","673407.151114","674173.437199","674940.482613","678823.977495","679590.108065","665739.929379","666506.815878","667273.637141","668040.265481","668807.042223","669573.678292","678833.411606","Mapping"
"Blocked","m160","tile","17","m160ball.wav","None","720.788465813","118","678057.12655","670340.191928","671106.832635","671873.248572","672640.150221","673407.151114","674173.437199","674940.482613","678823.977495","679590.108065","680340.147717","666506.815878","667273.637141","668040.265481","668807.042223","669573.678292","679598.991848","Mapping"
"Blocked","m160","tile","17","m160gnash.wav","None","736.127475742","118","678057.12655","670340.191928","671106.832635","671873.248572","672640.150221","673407.151114","674173.437199","674940.482613","678823.977495","679590.108065","680340.147717","681106.451734","667273.637141","668040.265481","668807.042223","669573.678292","680349.347784","Mapping"
"Blocked","m160","tile","17","m160priest.wav","None","735.089890659","118","678057.12655","670340.191928","671106.832635","671873.248572","672640.150221","673407.151114","674173.437199","674940.482613","678823.977495","679590.108065","680340.147717","681106.451734","681873.071725","668040.265481","668807.042223","669573.678292","681116.298282","Mapping"
"Blocked","m160","tile","17","m160tile.wav","None","735.122662969","118","678057.12655","670340.191928","671106.832635","671873.248572","672640.150221","673407.151114","674173.437199","674940.482613","678823.977495","679590.108065","680340.147717","681106.451734","681873.071725","682639.56712","668807.042223","669573.678292","681881.999411","Mapping"
"Blocked","m160","tile","17","m160reek.wav","None","735.98371027","118","678057.12655","670340.191928","671106.832635","671873.248572","672640.150221","673407.151114","674173.437199","674940.482613","678823.977495","679590.108065","680340.147717","681106.451734","681873.071725","682639.56712","683406.144446","669573.678292","682648.382576","Mapping"
"Blocked","m160","tile","17","m160tile.wav","None","735.321770422","118","678057.12655","670340.191928","671106.832635","671873.248572","672640.150221","673407.151114","674173.437199","674940.482613","678823.977495","679590.108065","680340.147717","681106.451734","681873.071725","682639.56712","683406.144446","684172.953652","683414.96052","Mapping"
"Blocked","m160","tile","17","m160priest.wav","None","734.200399369","118","678057.12655","684939.581064","671106.832635","671873.248572","672640.150221","673407.151114","674173.437199","674940.482613","678823.977495","679590.108065","680340.147717","681106.451734","681873.071725","682639.56712","683406.144446","684172.953652","684181.911636","Mapping"
"Blocked","m160","tile","17","m160done.wav","None","736.620297888","118","678057.12655","684939.581064","685706.479003","671873.248572","672640.150221","673407.151114","674173.437199","674940.482613","678823.977495","679590.108065","680340.147717","681106.451734","681873.071725","682639.56712","683406.144446","684172.953652","684948.269759","Mapping"
"Blocked","m160","tile","17","m160greet.wav","None","740.576787386","118","678057.12655","684939.581064","685706.479003","686473.247088","672640.150221","673407.151114","674173.437199","674940.482613","678823.977495","679590.108065","680340.147717","681106.451734","681873.071725","682639.56712","683406.144446","684172.953652","685710.22309","Mapping"
"Blocked","m160","tile","17","m160done.wav","None","734.309537336","118","678057.12655","684939.581064","685706.479003","686473.247088","687239.916548","673407.151114","674173.437199","674940.482613","678823.977495","679590.108065","680340.147717","681106.451734","681873.071725","682639.56712","683406.144446","684172.953652","686482.489203","Mapping"
"Blocked","m160","tile","17","m160lash.wav","None","733.497957699","118","678057.12655","684939.581064","685706.479003","686473.247088","687239.916548","688006.266013","674173.437199","674940.482613","678823.977495","679590.108065","680340.147717","681106.451734","681873.071725","682639.56712","683406.144446","684172.953652","687249.25296","Mapping"
"Blocked","m160","tile","17","m160tile.wav","None","733.763228403","118","678057.12655","684939.581064","685706.479003","686473.247088","687239.916548","688006.266013","688773.230733","674940.482613","678823.977495","679590.108065","680340.147717","681106.451734","681873.071725","682639.56712","683406.144446","684172.953652","688014.877724","Mapping"
"Blocked","m160","tile","17","m160done.wav","None","732.374731451","118","678057.12655","684939.581064","685706.479003","686473.247088","687239.916548","688006.266013","688773.230733","689539.907304","678823.977495","679590.108065","680340.147717","681106.451734","681873.071725","682639.56712","683406.144446","684172.953652","688782.244678","Mapping"
"Blocked","m160","cave","9","m160romp.wav","None","730.992418015","118","692673.570607","684939.581064","685706.479003","686473.247088","687239.916548","688006.266013","688773.230733","689539.907304","678823.977495","679590.108065","680340.147717","681106.451734","681873.071725","682639.56712","683406.144446","684172.953652","689549.476523","Mapping"
"Blocked","m160","cave","9","m160cave.wav","None","721.90705454","118","692673.570607","684939.581064","685706.479003","686473.247088","687239.916548","688006.266013","688773.230733","689539.907304","693439.598842","679590.108065","680340.147717","681106.451734","681873.071725","682639.56712","683406.144446","684172.953652","692683.133025","Mapping"
"Blocked","m160","cave","9","m160ball.wav","None","722.171706613","118","692673.570607","684939.581064","685706.479003","686473.247088","687239.916548","688006.266013","688773.230733","689539.907304","693439.598842","694206.219761","680340.147717","681106.451734","681873.071725","682639.56712","683406.144446","684172.953652","693448.505812","Mapping"
"Blocked","m160","cave","9","m160cad.wav","None","721.131338971","118","692673.570607","684939.581064","685706.479003","686473.247088","687239.916548","688006.266013","688773.230733","689539.907304","693439.598842","694206.219761","694973.677612","681106.451734","681873.071725","682639.56712","683406.144446","684172.953652","694215.283792","Mapping"
"Blocked","m160","cave","9","m160knife.wav","None","719.053076813","118","692673.570607","684939.581064","685706.479003","686473.247088","687239.916548","688006.266013","688773.230733","689539.907304","693439.598842","694206.219761","694973.677612","695722.830555","681873.071725","682639.56712","683406.144446","684172.953652","694983.086371","Mapping"
"Blocked","m160","cave","9","m160bluff.wav","None","735.292089637","118","692673.570607","684939.581064","685706.479003","686473.247088","687239.916548","688006.266013","688773.230733","689539.907304","693439.598842","694206.219761","694973.677612","695722.830555","696489.391185","682639.56712","683406.144446","684172.953652","695732.554361","Mapping"
"Blocked","m160","cave","9","m160cave.wav","None","735.321770422","118","692673.570607","684939.581064","685706.479003","686473.247088","687239.916548","688006.266013","688773.230733","689539.907304","693439.598842","694206.219761","694973.677612","695722.830555","696489.391185","697256.505545","683406.144446","684172.953652","696498.145425","Mapping"
"Blocked","m160","cave","9","m160greet.wav","None","732.992150355","118","692673.570607","684939.581064","685706.479003","686473.247088","687239.916548","688006.266013","688773.230733","689539.907304","693439.598842","694206.219761","694973.677612","695722.830555","696489.391185","697256.505545","698022.75051","684172.953652","697266.156696","Mapping"
"Blocked","m160","cave","9","m160done.wav","None","733.460238669","118","692673.570607","684939.581064","685706.479003","686473.247088","687239.916548","688006.266013","688773.230733","689539.907304","693439.598842","694206.219761","694973.677612","695722.830555","696489.391185","697256.505545","698022.75051","698789.387815","698031.561328","Mapping"
"Blocked","m160","cave","9","m160cad.wav","None","732.669373509","118","692673.570607","699556.399221","685706.479003","686473.247088","687239.916548","688006.266013","688773.230733","689539.907304","693439.598842","694206.219761","694973.677612","695722.830555","696489.391185","697256.505545","698022.75051","698789.387815","698798.083002","Mapping"
"Blocked","m160","cave","9","m160jaw.wav","None","731.10588477","118","692673.570607","699556.399221","700323.015811","686473.247088","687239.916548","688006.266013","688773.230733","689539.907304","693439.598842","694206.219761","694973.677612","695722.830555","696489.391185","697256.505545","698022.75051","698789.387815","699565.544255","Mapping"
"Blocked","m160","cave","9","m160ball.wav","None","730.187640293","118","692673.570607","699556.399221","700323.015811","701089.613852","687239.916548","688006.266013","688773.230733","689539.907304","693439.598842","694206.219761","694973.677612","695722.830555","696489.391185","697256.505545","698022.75051","698789.387815","700332.011515","Mapping"
"Blocked","m160","cave","9","m160cave.wav","None","734.671579208","118","692673.570607","699556.399221","700323.015811","701089.613852","701855.938893","688006.266013","688773.230733","689539.907304","693439.598842","694206.219761","694973.677612","695722.830555","696489.391185","697256.505545","698022.75051","698789.387815","701093.979068","Mapping"
"Blocked","m160","cave","9","m160cad.wav","None","729.69698254","118","692673.570607","699556.399221","700323.015811","701089.613852","701855.938893","702623.051706","688773.230733","689539.907304","693439.598842","694206.219761","694973.677612","695722.830555","696489.391185","697256.505545","698022.75051","698789.387815","701864.635625","Mapping"
"Blocked","m160","cave","9","m160cave.wav","None","728.258399526","118","692673.570607","699556.399221","700323.015811","701089.613852","701855.938893","702623.051706","703389.59255","689539.907304","693439.598842","694206.219761","694973.677612","695722.830555","696489.391185","697256.505545","698022.75051","698789.387815","702632.0774","Mapping"
"Blocked","m160","cave","9","m160greet.wav","None","727.598933037","118","692673.570607","699556.399221","700323.015811","701089.613852","701855.938893","702623.051706","703389.59255","704156.394336","693439.598842","694206.219761","694973.677612","695722.830555","696489.391185","697256.505545","698022.75051","698789.387815","703398.935146","Mapping"
"Blocked","m160","cave","12","m160park.wav","None","726.620709058","118","707290.048673","699556.399221","700323.015811","701089.613852","701855.938893","702623.051706","703389.59255","704156.394336","693439.598842","694206.219761","694973.677612","695722.830555","696489.391185","697256.505545","698022.75051","698789.387815","704165.996637","Mapping"
"Blocked","m160","cave","12","m160cave.wav","None","721.549341222","118","707290.048673","699556.399221","700323.015811","701089.613852","701855.938893","702623.051706","703389.59255","704156.394336","708056.549015","694206.219761","694973.677612","695722.830555","696489.391185","697256.505545","698022.75051","698789.387815","707299.644482","Mapping"
"Blocked","m160","cave","12","m160tile.wav","None","720.843498595","118","707290.048673","699556.399221","700323.015811","701089.613852","701855.938893","702623.051706","703389.59255","704156.394336","708056.549015","708823.20889","694973.677612","695722.830555","696489.391185","697256.505545","698022.75051","698789.387815","708066.201093","Mapping"
"Blocked","m160","cave","12","m160reek.wav","None","720.104265725","118","707290.048673","699556.399221","700323.015811","701089.613852","701855.938893","702623.051706","703389.59255","704156.394336","708056.549015","708823.20889","709589.298032","695722.830555","696489.391185","697256.505545","698022.75051","698789.387815","708832.689377","Mapping"
"Blocked","m160","cave","12","m160cling.wav","None","720.362734515","118","707290.048673","699556.399221","700323.015811","701089.613852","701855.938893","702623.051706","703389.59255","704156.394336","708056.549015","708823.20889","709589.298032","710339.287597","696489.391185","697256.505545","698022.75051","698789.387815","709598.223553","Mapping"
"Blocked","m160","cave","12","m160cave.wav","None","735.917856451","118","707290.048673","699556.399221","700323.015811","701089.613852","701855.938893","702623.051706","703389.59255","704156.394336","708056.549015","708823.20889","709589.298032","710339.287597","711105.632115","697256.505545","698022.75051","698789.387815","710348.460147","Mapping"
"Blocked","m160","cave","12","m160bluff.wav","None","735.666498542","118","707290.048673","699556.399221","700323.015811","701089.613852","701855.938893","702623.051706","703389.59255","704156.394336","708056.549015","708823.20889","709589.298032","710339.287597","711105.632115","711872.520779","698022.75051","698789.387815","711114.54496","Mapping"
"Blocked","m160","cave","12","m160dime.wav","None","734.563059406","118","707290.048673","699556.399221","700323.015811","701089.613852","701855.938893","702623.051706","703389.59255","704156.394336","708056.549015","708823.20889","709589.298032","710339.287597","711105.632115","711872.520779","712639.472513","698789.387815","711881.370862","Mapping"
"Blocked","m160","cave","12","m160cave.wav","None","733.164669015","118","707290.048673","699556.399221","700323.015811","701089.613852","701855.938893","702623.051706","703389.59255","704156.394336","708056.549015","708823.20889","709589.298032","710339.287597","711105.632115","711872.520779","712639.472513","713406.105181","712648.639808","Mapping"
"Blocked","m160","cave","12","m160greet.wav","None","732.374731451","118","707290.048673","714172.756091","700323.015811","701089.613852","701855.938893","702623.051706","703389.59255","704156.394336","708056.549015","708823.20889","709589.298032","710339.287597","711105.632115","711872.520779","712639.472513","713406.105181","713415.192709","Mapping"
"Blocked","m160","cave","12","m160park.wav","None","731.664251536","118","707290.048673","714172.756091","714939.385358","701089.613852","701855.938893","702623.051706","703389.59255","704156.394336","708056.549015","708823.20889","709589.298032","710339.287597","711105.632115","711872.520779","712639.472513","713406.105181","714181.711911","Mapping"
"Blocked","m160","cave","12","m160done.wav","None","730.360158952","118","707290.048673","714172.756091","714939.385358","715706.116652","701855.938893","702623.051706","703389.59255","704156.394336","708056.549015","708823.20889","709589.298032","710339.287597","711105.632115","711872.520779","712639.472513","713406.105181","714948.858424","Mapping"
"Blocked","m160","cave","12","m160cave.wav","None","730.288740015","118","707290.048673","714172.756091","714939.385358","715706.116652","716472.741899","702623.051706","703389.59255","704156.394336","708056.549015","708823.20889","709589.298032","710339.287597","711105.632115","711872.520779","712639.472513","713406.105181","715715.197378","Mapping"
"Blocked","m160","cave","12","m160romp.wav","None","729.304332519","118","707290.048673","714172.756091","714939.385358","715706.116652","716472.741899","717239.291709","703389.59255","704156.394336","708056.549015","708823.20889","709589.298032","710339.287597","711105.632115","711872.520779","712639.472513","713406.105181","716482.308027","Mapping"
"Blocked","m160","cave","12","m160park.wav","None","729.468503268","118","707290.048673","714172.756091","714939.385358","715706.116652","716472.741899","717239.291709","718005.990849","704156.394336","708056.549015","708823.20889","709589.298032","710339.287597","711105.632115","711872.520779","712639.472513","713406.105181","717248.032654","Mapping"
"Blocked","m160","cave","12","m160bluff.wav","None","728.239848977","118","707290.048673","714172.756091","714939.385358","715706.116652","716472.741899","717239.291709","718005.990849","718772.702356","708056.549015","708823.20889","709589.298032","710339.287597","711105.632115","711872.520779","712639.472513","713406.105181","718015.087343","Mapping"
"Blocked","m160","ball","6","m160cave.wav","None","727.479901398","118","721906.347728","714172.756091","714939.385358","715706.116652","716472.741899","717239.291709","718005.990849","718772.702356","708056.549015","708823.20889","709589.298032","710339.287597","711105.632115","711872.520779","712639.472513","713406.105181","718781.655394","Mapping"
"Blocked","m160","ball","6","m160lash.wav","space","0.0389558263123","118","721906.347728","714172.756091","714939.385358","715706.116652","716472.741899","717239.291709","718005.990849","718772.702356","722673.014096","708823.20889","709589.298032","710339.287597","711105.632115","711872.520779","712639.472513","713406.105181","721915.667445","Mapping"
"Blocked","m160","ball","6","m160gnash.wav","None","719.123568153","118","721906.347728","714172.756091","714939.385358","715706.116652","716472.741899","717239.291709","718005.990849","718772.702356","722673.014096","723422.686758","709589.298032","710339.287597","711105.632115","711872.520779","712639.472513","713406.105181","722682.826325","Mapping"
"Blocked","m160","ball","6","m160ball.wav","None","736.278352328","118","721906.347728","714172.756091","714939.385358","715706.116652","716472.741899","717239.291709","718005.990849","718772.702356","722673.014096","723422.686758","724188.850101","710339.287597","711105.632115","711872.520779","712639.472513","713406.105181","723431.648144","Mapping"
"Blocked","m160","ball","6","m160priest.wav","space","468.000728404","118","721906.347728","714172.756091","714939.385358","715706.116652","716472.741899","717239.291709","718005.990849","718772.702356","722673.014096","723422.686758","724188.850101","724955.907573","711105.632115","711872.520779","712639.472513","713406.105181","724197.696474","Mapping"
"Blocked","m160","ball","6","m160depth.wav","None","733.723035781","118","721906.347728","714172.756091","714939.385358","715706.116652","716472.741899","717239.291709","718005.990849","718772.702356","722673.014096","723422.686758","724188.850101","724955.907573","725722.520763","711872.520779","712639.472513","713406.105181","724965.045806","Mapping"
"Blocked","m160","ball","6","m160ball.wav","None","732.878993033","118","721906.347728","714172.756091","714939.385358","715706.116652","716472.741899","717239.291709","718005.990849","718772.702356","722673.014096","723422.686758","724188.850101","724955.907573","725722.520763","726489.218049","712639.472513","713406.105181","725731.868924","Mapping"
"Blocked","m160","ball","6","m160jolt.wav","None","732.359582093","118","721906.347728","714172.756091","714939.385358","715706.116652","716472.741899","717239.291709","718005.990849","718772.702356","722673.014096","723422.686758","724188.850101","724955.907573","725722.520763","726489.218049","727255.960782","713406.105181","726498.321035","Mapping"
"Blocked","m160","ball","6","m160depth.wav","None","731.537181418","118","721906.347728","714172.756091","714939.385358","715706.116652","716472.741899","717239.291709","718005.990849","718772.702356","722673.014096","723422.686758","724188.850101","724955.907573","725722.520763","726489.218049","727255.960782","728022.222442","727265.082628","Mapping"
"Blocked","m160","ball","6","m160jaw.wav","None","731.276857667","118","721906.347728","728788.826666","714939.385358","715706.116652","716472.741899","717239.291709","718005.990849","718772.702356","722673.014096","723422.686758","724188.850101","724955.907573","725722.520763","726489.218049","727255.960782","728022.222442","728031.230822","Mapping"
"Blocked","m160","ball","6","m160ball.wav","None","731.007567607","118","721906.347728","728788.826666","729555.446349","715706.116652","716472.741899","717239.291709","718005.990849","718772.702356","722673.014096","723422.686758","724188.850101","724955.907573","725722.520763","726489.218049","727255.960782","728022.222442","728797.545969","Mapping"
"Blocked","m160","ball","6","m160cad.wav","None","730.153940385","118","721906.347728","728788.826666","729555.446349","730322.477541","716472.741899","717239.291709","718005.990849","718772.702356","722673.014096","723422.686758","724188.850101","724955.907573","725722.520763","726489.218049","727255.960782","728022.222442","729564.145555","Mapping"
"Blocked","m160","ball","6","m160lash.wav","None","728.502027923","118","721906.347728","728788.826666","729555.446349","730322.477541","731089.140817","717239.291709","718005.990849","718772.702356","722673.014096","723422.686758","724188.850101","724955.907573","725722.520763","726489.218049","727255.960782","728022.222442","730331.548373","Mapping"
"Blocked","m160","ball","6","m160tile.wav","None","727.429196937","118","721906.347728","728788.826666","729555.446349","730322.477541","731089.140817","731855.576542","718005.990849","718772.702356","722673.014096","723422.686758","724188.850101","724955.907573","725722.520763","726489.218049","727255.960782","728022.222442","731098.633362","Mapping"
"Blocked","m160","ball","6","m160ball.wav","None","733.019975945","118","721906.347728","728788.826666","729555.446349","730322.477541","731089.140817","731855.576542","732622.443563","718772.702356","722673.014096","723422.686758","724188.850101","724955.907573","725722.520763","726489.218049","727255.960782","728022.222442","731859.001253","Mapping"
"Blocked","m160","ball","6","m160lash.wav","None","726.548980922","118","721906.347728","728788.826666","729555.446349","730322.477541","731089.140817","731855.576542","732622.443563","733389.111167","722673.014096","723422.686758","724188.850101","724955.907573","725722.520763","726489.218049","727255.960782","728022.222442","732631.430609","Mapping"
"Blocked","m160","done","21","m160romp.wav","None","726.531049004","118","736522.684501","728788.826666","729555.446349","730322.477541","731089.140817","731855.576542","732622.443563","733389.111167","722673.014096","723422.686758","724188.850101","724955.907573","725722.520763","726489.218049","727255.960782","728022.222442","733398.266404","Mapping"
"Blocked","m160","done","21","m160tile.wav","space","0.0340091064572","118","736522.684501","728788.826666","729555.446349","730322.477541","731089.140817","731855.576542","732622.443563","733389.111167","737289.39168","723422.686758","724188.850101","724955.907573","725722.520763","726489.218049","727255.960782","728022.222442","736532.432423","Mapping"
"Blocked","m160","done","21","m160lash.wav","None","719.590419903","118","736522.684501","728788.826666","729555.446349","730322.477541","731089.140817","731855.576542","732622.443563","733389.111167","737289.39168","738056.249117","724188.850101","724955.907573","725722.520763","726489.218049","727255.960782","728022.222442","737298.966156","Mapping"
"Blocked","m160","done","21","m160bluff.wav","space","127.151806606","118","736522.684501","728788.826666","729555.446349","730322.477541","731089.140817","731855.576542","732622.443563","733389.111167","737289.39168","738056.249117","738805.130606","724955.907573","725722.520763","726489.218049","727255.960782","728022.222442","738066.279005","Mapping"
"Blocked","m160","done","21","m160done.wav","None","735.314968508","118","736522.684501","728788.826666","729555.446349","730322.477541","731089.140817","731855.576542","732622.443563","733389.111167","737289.39168","738056.249117","738805.130606","739572.356268","725722.520763","726489.218049","727255.960782","728022.222442","738814.03263","Mapping"
"Blocked","m160","done","21","m160park.wav","None","733.69551939","118","736522.684501","728788.826666","729555.446349","730322.477541","731089.140817","731855.576542","732622.443563","733389.111167","737289.39168","738056.249117","738805.130606","739572.356268","740338.932357","726489.218049","727255.960782","728022.222442","739581.478732","Mapping"
"Blocked","m160","done","21","m160done.wav","None","732.865389436","118","736522.684501","728788.826666","729555.446349","730322.477541","731089.140817","731855.576542","732622.443563","733389.111167","737289.39168","738056.249117","738805.130606","739572.356268","740338.932357","741105.329435","727255.960782","728022.222442","740348.351937","Mapping"
"Blocked","m160","done","21","m160lash.wav","None","732.382151531","118","736522.684501","728788.826666","729555.446349","730322.477541","731089.140817","731855.576542","732622.443563","733389.111167","737289.39168","738056.249117","738805.130606","739572.356268","740338.932357","741105.329435","741872.029503","728022.222442","741114.842694","Mapping"
"Blocked","m160","done","21","m160cling.wav","None","732.322790427","118","736522.684501","728788.826666","729555.446349","730322.477541","731089.140817","731855.576542","732622.443563","733389.111167","737289.39168","738056.249117","738805.130606","739572.356268","740338.932357","741105.329435","741872.029503","742638.903326","741880.894426","Mapping"
"Blocked","m160","done","21","m160romp.wav","None","731.563152047","118","736522.684501","743405.568766","729555.446349","730322.477541","731089.140817","731855.576542","732622.443563","733389.111167","737289.39168","738056.249117","738805.130606","739572.356268","740338.932357","741105.329435","741872.029503","742638.903326","742647.724655","Mapping"
"Blocked","m160","done","21","m160gnash.wav","None","730.586782796","118","736522.684501","743405.568766","744172.249974","730322.477541","731089.140817","731855.576542","732622.443563","733389.111167","737289.39168","738056.249117","738805.130606","739572.356268","740338.932357","741105.329435","741872.029503","742638.903326","743414.66155","Mapping"
"Blocked","m160","done","21","m160romp.wav","None","729.539922439","118","736522.684501","743405.568766","744172.249974","744938.882333","731089.140817","731855.576542","732622.443563","733389.111167","737289.39168","738056.249117","738805.130606","739572.356268","740338.932357","741105.329435","741872.029503","742638.903326","744181.787967","Mapping"
"Blocked","m160","done","21","m160done.wav","None","729.503439972","118","736522.684501","743405.568766","744172.249974","744938.882333","745705.554884","731855.576542","732622.443563","733389.111167","737289.39168","738056.249117","738805.130606","739572.356268","740338.932357","741105.329435","741872.029503","742638.903326","744947.930286","Mapping"
"Blocked","m160","done","21","m160lash.wav","None","728.444522014","118","736522.684501","743405.568766","744172.249974","744938.882333","745705.554884","746472.271647","732622.443563","733389.111167","737289.39168","738056.249117","738805.130606","739572.356268","740338.932357","741105.329435","741872.029503","742638.903326","745714.802563","Mapping"
"Blocked","m160","done","21","m160done.wav","None","728.079388384","118","736522.684501","743405.568766","744172.249974","744938.882333","745705.554884","746472.271647","747238.830732","733389.111167","737289.39168","738056.249117","738805.130606","739572.356268","740338.932357","741105.329435","741872.029503","742638.903326","746481.20768","Mapping"
"Blocked","m160","done","21","m160knife.wav","None","727.055715863","118","736522.684501","743405.568766","744172.249974","744938.882333","745705.554884","746472.271647","747238.830732","748005.127637","737289.39168","738056.249117","738805.130606","739572.356268","740338.932357","741105.329435","741872.029503","742638.903326","747248.111802","Mapping"
"Blocked","m160","cave","10","m160cling.wav","None","727.398588788","118","751139.15422","743405.568766","744172.249974","744938.882333","745705.554884","746472.271647","747238.830732","748005.127637","737289.39168","738056.249117","738805.130606","739572.356268","740338.932357","741105.329435","741872.029503","742638.903326","748013.785105","Mapping"
"Blocked","m160","cave","10","m160bluff.wav","None","721.02003661","118","751139.15422","743405.568766","744172.249974","744938.882333","745705.554884","746472.271647","747238.830732","748005.127637","751905.239651","738056.249117","738805.130606","739572.356268","740338.932357","741105.329435","741872.029503","742638.903326","751148.678609","Mapping"
"Blocked","m160","cave","10","m160cave.wav","None","721.68135806","118","751139.15422","743405.568766","744172.249974","744938.882333","745705.554884","746472.271647","747238.830732","748005.127637","751905.239651","752672.51509","738805.130606","739572.356268","740338.932357","741105.329435","741872.029503","742638.903326","751914.207529","Mapping"
"Blocked","m160","cave","10","m160jaw.wav","None","719.900211319","118","751139.15422","743405.568766","744172.249974","744938.882333","745705.554884","746472.271647","747238.830732","748005.127637","751905.239651","752672.51509","753438.523537","739572.356268","740338.932357","741105.329435","741872.029503","742638.903326","752682.229312","Mapping"
"Blocked","m160","cave","10","m160jaw.wav","None","720.684583532","118","751139.15422","743405.568766","744172.249974","744938.882333","745705.554884","746472.271647","747238.830732","748005.127637","751905.239651","752672.51509","753438.523537","754205.339854","740338.932357","741105.329435","741872.029503","742638.903326","753447.42989","Mapping"
"Blocked","m160","cave","10","m160romp.wav","None","719.927109312","118","751139.15422","743405.568766","744172.249974","744938.882333","745705.554884","746472.271647","747238.830732","748005.127637","751905.239651","752672.51509","753438.523537","754205.339854","754955.081772","741105.329435","741872.029503","742638.903326","754214.576094","Mapping"
"Blocked","m160","cave","10","m160cave.wav","None","736.923906021","118","751139.15422","743405.568766","744172.249974","744938.882333","745705.554884","746472.271647","747238.830732","748005.127637","751905.239651","752672.51509","753438.523537","754205.339854","754955.081772","755721.497709","741872.029503","742638.903326","754963.783142","Mapping"
"Blocked","m160","cave","10","m160gnash.wav","space","406.744860578","118","751139.15422","743405.568766","744172.249974","744938.882333","745705.554884","746472.271647","747238.830732","748005.127637","751905.239651","752672.51509","753438.523537","754205.339854","754955.081772","755721.497709","756488.607431","742638.903326","755730.366342","Mapping"
"Blocked","m160","cave","10","m160lash.wav","None","733.353883028","118","751139.15422","743405.568766","744172.249974","744938.882333","745705.554884","746472.271647","747238.830732","748005.127637","751905.239651","752672.51509","753438.523537","754205.339854","754955.081772","755721.497709","756488.607431","757255.477544","756498.257654","Mapping"
"Blocked","m160","cave","10","m160cave.wav","None","732.546322746","118","751139.15422","758021.695302","744172.249974","744938.882333","745705.554884","746472.271647","747238.830732","748005.127637","751905.239651","752672.51509","753438.523537","754205.339854","754955.081772","755721.497709","756488.607431","757255.477544","757265.222065","Mapping"
"Blocked","m160","cave","10","m160lash.wav","space","322.256481973","118","751139.15422","758021.695302","758788.644872","744938.882333","745705.554884","746472.271647","747238.830732","748005.127637","751905.239651","752672.51509","753438.523537","754205.339854","754955.081772","755721.497709","756488.607431","757255.477544","758030.82395","Mapping"
"Blocked","m160","cave","10","m160ball.wav","None","730.959955137","118","751139.15422","758021.695302","758788.644872","759554.895711","745705.554884","746472.271647","747238.830732","748005.127637","751905.239651","752672.51509","753438.523537","754205.339854","754955.081772","755721.497709","756488.607431","757255.477544","758797.812785","Mapping"
"Blocked","m160","cave","10","m160priest.wav","None","731.653430499","118","751139.15422","758021.695302","758788.644872","759554.895711","760321.942053","746472.271647","747238.830732","748005.127637","751905.239651","752672.51509","753438.523537","754205.339854","754955.081772","755721.497709","756488.607431","757255.477544","759563.587188","Mapping"
"Blocked","m160","cave","10","m160lash.wav","None","730.01604923","118","751139.15422","758021.695302","758788.644872","759554.895711","760321.942053","761088.636555","747238.830732","748005.127637","751905.239651","752672.51509","753438.523537","754205.339854","754955.081772","755721.497709","756488.607431","757255.477544","760331.315566","Mapping"
"Blocked","m160","cave","10","m160cave.wav","None","729.913403746","118","751139.15422","758021.695302","758788.644872","759554.895711","760321.942053","761088.636555","761855.353628","748005.127637","751905.239651","752672.51509","753438.523537","754205.339854","754955.081772","755721.497709","756488.607431","757255.477544","761097.895365","Mapping"
"Blocked","m160","cave","10","m160greet.wav","space","608.262406429","118","751139.15422","758021.695302","758788.644872","759554.895711","760321.942053","761088.636555","761855.353628","762621.923534","751905.239651","752672.51509","753438.523537","754205.339854","754955.081772","755721.497709","756488.607431","757255.477544","761864.742909","Mapping"
"Blocked","m160","done","20","m160depth.wav","None","726.863410091","118","765755.638469","758021.695302","758788.644872","759554.895711","760321.942053","761088.636555","761855.353628","762621.923534","751905.239651","752672.51509","753438.523537","754205.339854","754955.081772","755721.497709","756488.607431","757255.477544","762631.730507","Mapping"
"Blocked","m160","done","20","m160gnash.wav","space","0.0636898912489","118","765755.638469","758021.695302","758788.644872","759554.895711","760321.942053","761088.636555","761855.353628","762621.923534","766521.748943","752672.51509","753438.523537","754205.339854","754955.081772","755721.497709","756488.607431","757255.477544","765765.207379","Mapping"
"Blocked","m160","done","20","m160lash.wav","None","720.93377728","118","765755.638469","758021.695302","758788.644872","759554.895711","760321.942053","761088.636555","761855.353628","762621.923534","766521.748943","767288.648737","753438.523537","754205.339854","754955.081772","755721.497709","756488.607431","757255.477544","766530.573983","Mapping"
"Blocked","m160","done","20","m160cave.wav","None","719.837139826","118","765755.638469","758021.695302","758788.644872","759554.895711","760321.942053","761088.636555","761855.353628","762621.923534","766521.748943","767288.648737","768055.474329","754205.339854","754955.081772","755721.497709","756488.607431","757255.477544","767297.864572","Mapping"
"Blocked","m160","done","20","m160lash.wav","None","718.63785712","118","765755.638469","758021.695302","758788.644872","759554.895711","760321.942053","761088.636555","761855.353628","762621.923534","766521.748943","767288.648737","768055.474329","768804.738883","754955.081772","755721.497709","756488.607431","757255.477544","768065.376219","Mapping"
"Blocked","m160","done","20","m160done.wav","None","736.765300157","118","765755.638469","758021.695302","758788.644872","759554.895711","760321.942053","761088.636555","761855.353628","762621.923534","766521.748943","767288.648737","768055.474329","768804.738883","769571.565093","755721.497709","756488.607431","757255.477544","768813.52373","Mapping"
"Blocked","m160","done","20","m160depth.wav","space","556.159611326","118","765755.638469","758021.695302","758788.644872","759554.895711","760321.942053","761088.636555","761855.353628","762621.923534","766521.748943","767288.648737","768055.474329","768804.738883","769571.565093","770338.448192","756488.607431","757255.477544","769580.712601","Mapping"
"Blocked","m160","done","20","m160dime.wav","None","733.604931738","118","765755.638469","758021.695302","758788.644872","759554.895711","760321.942053","761088.636555","761855.353628","762621.923534","766521.748943","767288.648737","768055.474329","768804.738883","769571.565093","770338.448192","771105.170211","757255.477544","770347.727098","Mapping"
"Blocked","m160","done","20","m160done.wav","None","733.203624841","118","765755.638469","758021.695302","758788.644872","759554.895711","760321.942053","761088.636555","761855.353628","762621.923534","766521.748943","767288.648737","768055.474329","768804.738883","769571.565093","770338.448192","771105.170211","771871.745682","771114.366567","Mapping"
"Blocked","m160","done","20","m160jolt.wav","None","733.157558134","118","765755.638469","772638.355471","758788.644872","759554.895711","760321.942053","761088.636555","761855.353628","762621.923534","766521.748943","767288.648737","768055.474329","768804.738883","769571.565093","770338.448192","771105.170211","771871.745682","771880.982231","Mapping"
"Blocked","m160","done","20","m160done.wav","None","732.989367796","118","765755.638469","772638.355471","773404.979791","759554.895711","760321.942053","761088.636555","761855.353628","762621.923534","766521.748943","767288.648737","768055.474329","768804.738883","769571.565093","770338.448192","771105.170211","771871.745682","772647.480408","Mapping"
"Blocked","m160","done","20","m160dime.wav","None","732.41275968","118","765755.638469","772638.355471","773404.979791","774171.707993","760321.942053","761088.636555","761855.353628","762621.923534","766521.748943","767288.648737","768055.474329","768804.738883","769571.565093","770338.448192","771105.170211","771871.745682","773414.700506","Mapping"
"Blocked","m160","done","20","m160done.wav","None","732.624234399","118","765755.638469","772638.355471","773404.979791","774171.707993","774938.344062","761088.636555","761855.353628","762621.923534","766521.748943","767288.648737","768055.474329","768804.738883","769571.565093","770338.448192","771105.170211","771871.745682","774180.685765","Mapping"
"Blocked","m160","done","20","m160knife.wav","None","732.269921806","118","765755.638469","772638.355471","773404.979791","774171.707993","774938.344062","775704.989097","761855.353628","762621.923534","766521.748943","767288.648737","768055.474329","768804.738883","769571.565093","770338.448192","771105.170211","771871.745682","774947.594215","Mapping"
"Blocked","m160","done","20","m160cling.wav","None","732.009597821","118","765755.638469","772638.355471","773404.979791","774171.707993","774938.344062","775704.989097","776471.704623","762621.923534","766521.748943","767288.648737","768055.474329","768804.738883","769571.565093","770338.448192","771105.170211","771871.745682","775714.10105","Mapping"
"Blocked","m160","done","20","m160gnash.wav","None","732.131102821","118","765755.638469","772638.355471","773404.979791","774171.707993","774938.344062","775704.989097","776471.704623","777238.325852","766521.748943","767288.648737","768055.474329","768804.738883","769571.565093","770338.448192","771105.170211","771871.745682","776480.466901","Mapping"
"Blocked","m160","cave","11","m160lash.wav","None","730.930583552","118","780371.130891","772638.355471","773404.979791","774171.707993","774938.344062","775704.989097","776471.704623","777238.325852","766521.748943","767288.648737","768055.474329","768804.738883","769571.565093","770338.448192","771105.170211","771871.745682","777247.866318","Mapping"
"Blocked","m160","cave","11","m160knife.wav","None","725.54107639","118","780371.130891","772638.355471","773404.979791","774171.707993","774938.344062","775704.989097","776471.704623","777238.325852","781138.623369","767288.648737","768055.474329","768804.738883","769571.565093","770338.448192","771105.170211","771871.745682","780379.693751","Mapping"
"Blocked","m160","cave","11","m160jolt.wav","None","723.570406204","118","780371.130891","772638.355471","773404.979791","774171.707993","774938.344062","775704.989097","776471.704623","777238.325852","781138.623369","781905.296848","768055.474329","768804.738883","769571.565093","770338.448192","771105.170211","771871.745682","781148.02007","Mapping"
"Blocked","m160","cave","11","m160bluff.wav","None","723.125815159","118","780371.130891","772638.355471","773404.979791","774171.707993","774938.344062","775704.989097","776471.704623","777238.325852","781138.623369","781905.296848","782671.947448","768804.738883","769571.565093","770338.448192","771105.170211","771871.745682","781914.624913","Mapping"
"Blocked","m160","cave","11","m160cave.wav","None","722.056694329","118","780371.130891","772638.355471","773404.979791","774171.707993","774938.344062","775704.989097","776471.704623","777238.325852","781138.623369","781905.296848","782671.947448","783438.206326","769571.565093","770338.448192","771105.170211","771871.745682","782681.903752","Mapping"
"Blocked","m160","cave","11","m160park.wav","space","257.367520127","118","780371.130891","772638.355471","773404.979791","774171.707993","774938.344062","775704.989097","776471.704623","777238.325852","781138.623369","781905.296848","782671.947448","783438.206326","784205.149094","770338.448192","771105.170211","771871.745682","783447.289216","Mapping"
"Blocked","m160","cave","11","m160cave.wav","None","720.278329914","118","780371.130891","772638.355471","773404.979791","774171.707993","774938.344062","775704.989097","776471.704623","777238.325852","781138.623369","781905.296848","782671.947448","783438.206326","784205.149094","784972.486986","771105.170211","771871.745682","784214.540849","Mapping"
"Blocked","m160","cave","11","m160done.wav","None","718.583442504","118","780371.130891","772638.355471","773404.979791","774171.707993","774938.344062","775704.989097","776471.704623","777238.325852","781138.623369","781905.296848","782671.947448","783438.206326","784205.149094","784972.486986","785738.120097","771871.745682","784982.551501","Mapping"
"Blocked","m160","cave","11","m160bluff.wav","space","189.42021695","118","780371.130891","772638.355471","773404.979791","774171.707993","774938.344062","775704.989097","776471.704623","777238.325852","781138.623369","781905.296848","782671.947448","783438.206326","784205.149094","784972.486986","785738.120097","786488.028968","785747.140843","Mapping"
"Blocked","m160","cave","11","m160cave.wav","None","734.351584921","118","780371.130891","787254.821479","773404.979791","774171.707993","774938.344062","775704.989097","776471.704623","777238.325852","781138.623369","781905.296848","782671.947448","783438.206326","784205.149094","784972.486986","785738.120097","786488.028968","786497.518421","Mapping"
"Blocked","m160","cave","11","m160dime.wav","None","734.206892084","118","780371.130891","787254.821479","788021.437451","774171.707993","774938.344062","775704.989097","776471.704623","777238.325852","781138.623369","781905.296848","782671.947448","783438.206326","784205.149094","784972.486986","785738.120097","786488.028968","787263.895403","Mapping"
"Blocked","m160","cave","11","m160knife.wav","space","0.0333907082677","118","780371.130891","787254.821479","788021.437451","788788.089597","774938.344062","775704.989097","776471.704623","777238.325852","781138.623369","781905.296848","782671.947448","783438.206326","784205.149094","784972.486986","785738.120097","786488.028968","788031.079945","Mapping"
