"Condition","Talker","Target","Trial","current_stimulus","response_response","response_time_response","subject_nr","time_Audio1","time_Audio10","time_Audio11","time_Audio12","time_Audio13","time_Audio14","time_Audio15","time_Audio16","time_Audio2","time_Audio3","time_Audio4","time_Audio5","time_Audio6","time_Audio7","time_Audio8","time_Audio9","time_response","title"
"Mixed","Both","cave","17","m150lash.wav","NA","NA","167","108913.0404","NA","NA","NA","NA","NA","NA","NA","NA","NA","NA","NA","NA","NA","NA","NA","NA","Mapping"
"Mixed","Both","cave","17","m150cave.wav","space","0.0701821409166","167","108913.0404","NA","NA","NA","NA","NA","NA","NA","109679.790863","NA","NA","NA","NA","NA","NA","NA","108931.468669","Mapping"
"Mixed","Both","cave","17","m150jaw.wav","space","0.0346275046468","167","108913.0404","NA","NA","NA","NA","NA","NA","NA","109679.790863","110446.045721","NA","NA","NA","NA","NA","NA","109690.944595","Mapping"
"Mixed","Both","cave","17","m160jolt.wav","space","0.0330815091729","167","108913.0404","NA","NA","NA","NA","NA","NA","NA","109679.790863","110446.045721","111212.61068","NA","NA","NA","NA","NA","110455.694398","Mapping"
"Mixed","Both","cave","17","m160tile.wav","space","0.0386466272175","167","108913.0404","NA","NA","NA","NA","NA","NA","NA","109679.790863","110446.045721","111212.61068","111979.426688","NA","NA","NA","NA","111221.658325","Mapping"
"Mixed","Both","cave","17","m160cave.wav","space","0.0349367037416","167","108913.0404","NA","NA","NA","NA","NA","NA","NA","109679.790863","110446.045721","111212.61068","111979.426688","112746.026274","NA","NA","NA","111990.548266","Mapping"
"Mixed","Both","cave","17","m150greet.wav","space","0.0349367037416","167","108913.0404","NA","NA","NA","NA","NA","NA","NA","109679.790863","110446.045721","111212.61068","111979.426688","112746.026274","113512.728197","NA","NA","112755.267152","Mapping"
"Mixed","Both","cave","17","m150cave.wav","space","0.019168946892","167","108913.0404","NA","NA","NA","NA","NA","NA","NA","109679.790863","110446.045721","111212.61068","111979.426688","112746.026274","113512.728197","114279.26564","NA","113521.599613","Mapping"
"Mixed","Both","cave","17","m150knife.wav","space","0.034318305552","167","108913.0404","NA","NA","NA","NA","NA","NA","NA","109679.790863","110446.045721","111212.61068","111979.426688","112746.026274","113512.728197","114279.26564","115045.496382","114288.514247","Mapping"
"Mixed","Both","cave","17","m160ball.wav","space","0.0185505487025","167","108913.0404","115812.239734","NA","NA","NA","NA","NA","NA","109679.790863","110446.045721","111212.61068","111979.426688","112746.026274","113512.728197","114279.26564","115045.496382","115054.29236","Mapping"
"Mixed","Both","cave","17","m160cave.wav","space","0.0272071920335","167","108913.0404","115812.239734","116578.738221","NA","NA","NA","NA","NA","109679.790863","110446.045721","111212.61068","111979.426688","112746.026274","113512.728197","114279.26564","115045.496382","115821.420632","Mapping"
"Mixed","Both","cave","17","m160lash.wav","space","0.0497768633068","167","108913.0404","115812.239734","116578.738221","117345.330387","NA","NA","NA","NA","109679.790863","110446.045721","111212.61068","111979.426688","112746.026274","113512.728197","114279.26564","115045.496382","116587.622931","Mapping"
"Mixed","Both","cave","17","m160jolt.wav","space","0.0222604721785","167","108913.0404","115812.239734","116578.738221","117345.330387","118112.448457","NA","NA","NA","109679.790863","110446.045721","111212.61068","111979.426688","112746.026274","113512.728197","114279.26564","115045.496382","117354.114307","Mapping"
"Mixed","Both","cave","17","m150park.wav","space","0.0386470928788","167","108913.0404","115812.239734","116578.738221","117345.330387","118112.448457","118879.123482","NA","NA","109679.790863","110446.045721","111212.61068","111979.426688","112746.026274","113512.728197","114279.26564","115045.496382","118121.50785","Mapping"
"Mixed","Both","cave","17","m150romp.wav","space","0.0340091064572","167","108913.0404","115812.239734","116578.738221","117345.330387","118112.448457","118879.123482","119645.746565","NA","109679.790863","110446.045721","111212.61068","111979.426688","112746.026274","113512.728197","114279.26564","115045.496382","118888.933238","Mapping"
"Mixed","Both","cave","17","m160dime.wav","space","0.0336999073625","167","108913.0404","115812.239734","116578.738221","117345.330387","118112.448457","118879.123482","119645.746565","120412.00297","109679.790863","110446.045721","111212.61068","111979.426688","112746.026274","113512.728197","114279.26564","115045.496382","119654.88758","Mapping"
"Mixed","Both","done","40","m160depth.wav","space","0.0185500830412","167","123595.69668","115812.239734","116578.738221","117345.330387","118112.448457","118879.123482","119645.746565","120412.00297","109679.790863","110446.045721","111212.61068","111979.426688","112746.026274","113512.728197","114279.26564","115045.496382","120420.860473","Mapping"
"Mixed","Both","done","40","m150park.wav","space","405.358837452","167","123595.69668","115812.239734","116578.738221","117345.330387","118112.448457","118879.123482","119645.746565","120412.00297","124362.418699","110446.045721","111212.61068","111979.426688","112746.026274","113512.728197","114279.26564","115045.496382","123605.102347","Mapping"
"Mixed","Both","done","40","m160jaw.wav","space","455.07481508","167","123595.69668","115812.239734","116578.738221","117345.330387","118112.448457","118879.123482","119645.746565","120412.00297","124362.418699","125129.425776","111212.61068","111979.426688","112746.026274","113512.728197","114279.26564","115045.496382","124371.361534","Mapping"
"Mixed","Both","done","40","m150done.wav","space","415.298446082","167","123595.69668","115812.239734","116578.738221","117345.330387","118112.448457","118879.123482","119645.746565","120412.00297","124362.418699","125129.425776","125896.651129","111979.426688","112746.026274","113512.728197","114279.26564","115045.496382","125139.14309","Mapping"
"Mixed","Both","done","40","m150greet.wav","space","464.217993896","167","123595.69668","115812.239734","116578.738221","117345.330387","118112.448457","118879.123482","119645.746565","120412.00297","124362.418699","125129.425776","125896.651129","126662.799323","112746.026274","113512.728197","114279.26564","115045.496382","125906.211692","Mapping"
"Mixed","Both","done","40","m160done.wav","space","578.176762443","167","123595.69668","115812.239734","116578.738221","117345.330387","118112.448457","118879.123482","119645.746565","120412.00297","124362.418699","125129.425776","125896.651129","126662.799323","127428.773451","113512.728197","114279.26564","115045.496382","126672.25353","Mapping"
"Mixed","Both","done","40","m150jaw.wav","space","540.745163336","167","123595.69668","115812.239734","116578.738221","117345.330387","118112.448457","118879.123482","119645.746565","120412.00297","124362.418699","125129.425776","125896.651129","126662.799323","127428.773451","128195.65624","114279.26564","115045.496382","127437.680422","Mapping"
"Mixed","Both","done","40","m160done.wav","space","389.975615777","167","123595.69668","115812.239734","116578.738221","117345.330387","118112.448457","118879.123482","119645.746565","120412.00297","124362.418699","125129.425776","125896.651129","126662.799323","127428.773451","128195.65624","128945.293967","115045.496382","128204.421919","Mapping"
"Mixed","Both","done","40","m150tile.wav","space","328.038020991","167","123595.69668","115812.239734","116578.738221","117345.330387","118112.448457","118879.123482","119645.746565","120412.00297","124362.418699","125129.425776","125896.651129","126662.799323","127428.773451","128195.65624","128945.293967","129711.96219","128954.329554","Mapping"
"Mixed","Both","done","40","m150romp.wav","space","473.466292024","167","123595.69668","130478.902485","116578.738221","117345.330387","118112.448457","118879.123482","119645.746565","120412.00297","124362.418699","125129.425776","125896.651129","126662.799323","127428.773451","128195.65624","128945.293967","129711.96219","129720.892039","Mapping"
"Mixed","Both","done","40","m150dime.wav","space","546.087984927","167","123595.69668","130478.902485","131245.215777","117345.330387","118112.448457","118879.123482","119645.746565","120412.00297","124362.418699","125129.425776","125896.651129","126662.799323","127428.773451","128195.65624","128945.293967","129711.96219","130488.256829","Mapping"
"Mixed","Both","done","40","m160priest.wav","space","460.367551073","167","123595.69668","130478.902485","131245.215777","132011.915844","118112.448457","118879.123482","119645.746565","120412.00297","124362.418699","125129.425776","125896.651129","126662.799323","127428.773451","128195.65624","128945.293967","129711.96219","131253.97991","Mapping"
"Mixed","Both","done","40","m160tile.wav","space","596.945121419","167","123595.69668","130478.902485","131245.215777","132011.915844","132779.021238","118879.123482","119645.746565","120412.00297","124362.418699","125129.425776","125896.651129","126662.799323","127428.773451","128195.65624","128945.293967","129711.96219","132021.334497","Mapping"
"Mixed","Both","done","40","m150done.wav","space","717.596870847","167","123595.69668","130478.902485","131245.215777","132011.915844","132779.021238","133545.500865","119645.746565","120412.00297","124362.418699","125129.425776","125896.651129","126662.799323","127428.773451","128195.65624","128945.293967","129711.96219","132788.70176","Mapping"
"Mixed","Both","done","40","m160ball.wav","space","671.804610174","167","123595.69668","130478.902485","131245.215777","132011.915844","132779.021238","133545.500865","134311.818795","120412.00297","124362.418699","125129.425776","125896.651129","126662.799323","127428.773451","128195.65624","128945.293967","129711.96219","133554.503061","Mapping"
"Mixed","Both","done","40","m160priest.wav","space","545.703373849","167","123595.69668","130478.902485","131245.215777","132011.915844","132779.021238","133545.500865","134311.818795","135078.44157","124362.418699","125129.425776","125896.651129","126662.799323","127428.773451","128195.65624","128945.293967","129711.96219","134320.55943","Mapping"
"Mixed","Both","cave","13","m160depth.wav","None","726.110572927","167","138196.001587","130478.902485","131245.215777","132011.915844","132779.021238","133545.500865","134311.818795","135078.44157","124362.418699","125129.425776","125896.651129","126662.799323","127428.773451","128195.65624","128945.293967","129711.96219","135087.114496","Mapping"
"Mixed","Both","cave","13","m150cad.wav","space","364.137083758","167","138196.001587","130478.902485","131245.215777","132011.915844","132779.021238","133545.500865","134311.818795","135078.44157","138961.841844","125129.425776","125896.651129","126662.799323","127428.773451","128195.65624","128945.293967","129711.96219","138206.072595","Mapping"
"Mixed","Both","cave","13","m150done.wav","space","527.486270294","167","138196.001587","130478.902485","131245.215777","132011.915844","132779.021238","133545.500865","134311.818795","135078.44157","138961.841844","139728.765135","125896.651129","126662.799323","127428.773451","128195.65624","128945.293967","129711.96219","138970.735211","Mapping"
"Mixed","Both","cave","13","m160cave.wav","space","424.350728281","167","138196.001587","130478.902485","131245.215777","132011.915844","132779.021238","133545.500865","134311.818795","135078.44157","138961.841844","139728.765135","140478.358958","126662.799323","127428.773451","128195.65624","128945.293967","129711.96219","139737.812161","Mapping"
"Mixed","Both","cave","13","m160romp.wav","space","315.026158001","167","138196.001587","130478.902485","131245.215777","132011.915844","132779.021238","133545.500865","134311.818795","135078.44157","138961.841844","139728.765135","140478.358958","141245.179913","127428.773451","128195.65624","128945.293967","129711.96219","140487.162047","Mapping"
"Mixed","Both","cave","13","m150cave.wav","space","644.066208974","167","138196.001587","130478.902485","131245.215777","132011.915844","132779.021238","133545.500865","134311.818795","135078.44157","138961.841844","139728.765135","140478.358958","141245.179913","142011.611","128195.65624","128945.293967","129711.96219","141254.09183","Mapping"
"Mixed","Both","cave","13","m150greet.wav","None","732.600428164","167","138196.001587","130478.902485","131245.215777","132011.915844","132779.021238","133545.500865","134311.818795","135078.44157","138961.841844","139728.765135","140478.358958","141245.179913","142011.611","142778.518213","128945.293967","129711.96219","142020.587843","Mapping"
"Mixed","Both","cave","13","m160ball.wav","None","730.263696983","167","138196.001587","130478.902485","131245.215777","132011.915844","132779.021238","133545.500865","134311.818795","135078.44157","138961.841844","139728.765135","140478.358958","141245.179913","142011.611","142778.518213","143545.336385","129711.96219","142787.208763","Mapping"
"Mixed","Both","cave","13","m160cad.wav","None","727.086942643","167","138196.001587","130478.902485","131245.215777","132011.915844","132779.021238","133545.500865","134311.818795","135078.44157","138961.841844","139728.765135","140478.358958","141245.179913","142011.611","142778.518213","143545.336385","144311.791897","143554.679599","Mapping"
"Mixed","Both","cave","13","m160cad.wav","None","728.722468484","167","138196.001587","145078.584407","131245.215777","132011.915844","132779.021238","133545.500865","134311.818795","135078.44157","138961.841844","139728.765135","140478.358958","141245.179913","142011.611","142778.518213","143545.336385","144311.791897","144320.834904","Mapping"
"Mixed","Both","cave","13","m160cave.wav","None","725.956914481","167","138196.001587","145078.584407","145845.572934","132011.915844","132779.021238","133545.500865","134311.818795","135078.44157","138961.841844","139728.765135","140478.358958","141245.179913","142011.611","142778.518213","143545.336385","144311.791897","145088.07757","Mapping"
"Mixed","Both","cave","13","m160park.wav","space","675.002697855","167","138196.001587","145078.584407","145845.572934","146611.91467","132779.021238","133545.500865","134311.818795","135078.44157","138961.841844","139728.765135","140478.358958","141245.179913","142011.611","142778.518213","143545.336385","144311.791897","145855.046619","Mapping"
"Mixed","Both","cave","13","m150lash.wav","None","724.965086672","167","138196.001587","145078.584407","145845.572934","146611.91467","147378.376983","133545.500865","134311.818795","135078.44157","138961.841844","139728.765135","140478.358958","141245.179913","142011.611","142778.518213","143545.336385","144311.791897","146620.94531","Mapping"
"Mixed","Both","cave","13","m150jolt.wav","None","723.044811748","167","138196.001587","145078.584407","145845.572934","146611.91467","147378.376983","148145.96747","134311.818795","135078.44157","138961.841844","139728.765135","140478.358958","141245.179913","142011.611","142778.518213","143545.336385","144311.791897","147387.350735","Mapping"
"Mixed","Both","cave","13","m150cave.wav","None","722.755735274","167","138196.001587","145078.584407","145845.572934","146611.91467","147378.376983","148145.96747","148912.270559","135078.44157","138961.841844","139728.765135","140478.358958","141245.179913","142011.611","142778.518213","143545.336385","144311.791897","148155.344693","Mapping"
"Mixed","Both","cave","13","m150done.wav","space","632.205397356","167","138196.001587","145078.584407","145845.572934","146611.91467","147378.376983","148145.96747","148912.270559","149661.46895","138961.841844","139728.765135","140478.358958","141245.179913","142011.611","142778.518213","143545.336385","144311.791897","148921.808552","Mapping"
"Mixed","Both","done","41","m160romp.wav","None","735.585186165","167","152795.603124","145078.584407","145845.572934","146611.91467","147378.376983","148145.96747","148912.270559","149661.46895","138961.841844","139728.765135","140478.358958","141245.179913","142011.611","142778.518213","143545.336385","144311.791897","149670.789903","Mapping"
"Mixed","Both","done","41","m160priest.wav","None","720.177539624","167","152795.603124","145078.584407","145845.572934","146611.91467","147378.376983","148145.96747","148912.270559","149661.46895","153544.634562","139728.765135","140478.358958","141245.179913","142011.611","142778.518213","143545.336385","144311.791897","152805.719581","Mapping"
"Mixed","Both","done","41","m150knife.wav","None","736.90442834","167","152795.603124","145078.584407","145845.572934","146611.91467","147378.376983","148145.96747","148912.270559","149661.46895","153544.634562","154311.854041","140478.358958","141245.179913","142011.611","142778.518213","143545.336385","144311.791897","153553.452182","Mapping"
"Mixed","Both","done","41","m150done.wav","None","733.734475449","167","152795.603124","145078.584407","145845.572934","146611.91467","147378.376983","148145.96747","148912.270559","149661.46895","153544.634562","154311.854041","155078.408797","141245.179913","142011.611","142778.518213","143545.336385","144311.791897","154320.920545","Mapping"
"Mixed","Both","done","41","m160cling.wav","space","290.091957431","167","152795.603124","145078.584407","145845.572934","146611.91467","147378.376983","148145.96747","148912.270559","149661.46895","153544.634562","154311.854041","155078.408797","155845.113502","142011.611","142778.518213","143545.336385","144311.791897","155087.818483","Mapping"
"Mixed","Both","done","41","m160knife.wav","None","732.725952286","167","152795.603124","145078.584407","145845.572934","146611.91467","147378.376983","148145.96747","148912.270559","149661.46895","153544.634562","154311.854041","155078.408797","155845.113502","156611.765339","142778.518213","143545.336385","144311.791897","155854.17475","Mapping"
"Mixed","Both","done","41","m150ball.wav","None","733.933582436","167","152795.603124","145078.584407","145845.572934","146611.91467","147378.376983","148145.96747","148912.270559","149661.46895","153544.634562","154311.854041","155078.408797","155845.113502","156611.765339","157377.943213","143545.336385","144311.791897","156620.79567","Mapping"
"Mixed","Both","done","41","m150done.wav","None","735.86251447","167","152795.603124","145078.584407","145845.572934","146611.91467","147378.376983","148145.96747","148912.270559","149661.46895","153544.634562","154311.854041","155078.408797","155845.113502","156611.765339","157377.943213","158145.063447","144311.791897","157386.583367","Mapping"
"Mixed","Both","done","41","m150jolt.wav","space","303.137211129","167","152795.603124","145078.584407","145845.572934","146611.91467","147378.376983","148145.96747","148912.270559","149661.46895","153544.634562","154311.854041","155078.408797","155845.113502","156611.765339","157377.943213","158145.063447","158911.353551","158154.719235","Mapping"
"Mixed","Both","done","41","m160cad.wav","None","730.493722018","167","152795.603124","159677.981582","145845.572934","146611.91467","147378.376983","148145.96747","148912.270559","149661.46895","153544.634562","154311.854041","155078.408797","155845.113502","156611.765339","157377.943213","158145.063447","158911.353551","158920.233624","Mapping"
"Mixed","Both","done","41","m160done.wav","None","728.480695281","167","152795.603124","159677.981582","160445.019575","146611.91467","147378.376983","148145.96747","148912.270559","149661.46895","153544.634562","154311.854041","155078.408797","155845.113502","156611.765339","157377.943213","158145.063447","158911.353551","159686.66873","Mapping"
"Mixed","Both","done","41","m150reek.wav","space","515.759640373","167","152795.603124","159677.981582","160445.019575","161211.720262","147378.376983","148145.96747","148912.270559","149661.46895","153544.634562","154311.854041","155078.408797","155845.113502","156611.765339","157377.943213","158145.063447","158911.353551","160454.049288","Mapping"
"Mixed","Both","done","41","m160done.wav","None","726.501986384","167","152795.603124","159677.981582","160445.019575","161211.720262","161978.82009","148145.96747","148912.270559","149661.46895","153544.634562","154311.854041","155078.408797","155845.113502","156611.765339","157377.943213","158145.063447","158911.353551","161220.776254","Mapping"
"Mixed","Both","done","41","m150depth.wav","space","461.371436715","167","152795.603124","159677.981582","160445.019575","161211.720262","161978.82009","162745.225206","148912.270559","149661.46895","153544.634562","154311.854041","155078.408797","155845.113502","156611.765339","157377.943213","158145.063447","158911.353551","161988.409097","Mapping"
"Mixed","Both","done","41","m160park.wav","None","724.428052548","167","152795.603124","159677.981582","160445.019575","161211.720262","161978.82009","162745.225206","163511.385767","149661.46895","153544.634562","154311.854041","155078.408797","155845.113502","156611.765339","157377.943213","158145.063447","158911.353551","162754.77804","Mapping"
"Mixed","Both","done","41","m150jolt.wav","None","723.217021208","167","152795.603124","159677.981582","160445.019575","161211.720262","161978.82009","162745.225206","163511.385767","164278.070685","153544.634562","154311.854041","155078.408797","155845.113502","156611.765339","157377.943213","158145.063447","158911.353551","163520.356118","Mapping"
"Mixed","Both","cave","22","m160depth.wav","None","721.76761739","167","167395.209299","159677.981582","160445.019575","161211.720262","161978.82009","162745.225206","163511.385767","164278.070685","153544.634562","154311.854041","155078.408797","155845.113502","156611.765339","157377.943213","158145.063447","158911.353551","164286.926333","Mapping"
"Mixed","Both","cave","22","m150ball.wav","None","719.974103384","167","167395.209299","159677.981582","160445.019575","161211.720262","161978.82009","162745.225206","163511.385767","164278.070685","168144.935759","154311.854041","155078.408797","155845.113502","156611.765339","157377.943213","158145.063447","158911.353551","167405.637093","Mapping"
"Mixed","Both","cave","22","m160cave.wav","None","735.689068213","167","167395.209299","159677.981582","160445.019575","161211.720262","161978.82009","162745.225206","163511.385767","164278.070685","168144.935759","168911.581412","155078.408797","155845.113502","156611.765339","157377.943213","158145.063447","158911.353551","168154.25764","Mapping"
"Mixed","Both","cave","22","m160tile.wav","space","416.447024792","167","167395.209299","159677.981582","160445.019575","161211.720262","161978.82009","162745.225206","163511.385767","164278.070685","168144.935759","168911.581412","169678.132149","155845.113502","156611.765339","157377.943213","158145.063447","158911.353551","168921.176602","Mapping"
"Mixed","Both","cave","22","m150jaw.wav","None","730.680462439","167","167395.209299","159677.981582","160445.019575","161211.720262","161978.82009","162745.225206","163511.385767","164278.070685","168144.935759","168911.581412","169678.132149","170444.903945","156611.765339","157377.943213","158145.063447","158911.353551","169687.642007","Mapping"
"Mixed","Both","cave","22","m150romp.wav","None","728.235520888","167","167395.209299","159677.981582","160445.019575","161211.720262","161978.82009","162745.225206","163511.385767","164278.070685","168144.935759","168911.581412","169678.132149","170444.903945","171211.549598","157377.943213","158145.063447","158911.353551","170454.534071","Mapping"
"Mixed","Both","cave","22","m160tile.wav","None","726.556401234","167","167395.209299","159677.981582","160445.019575","161211.720262","161978.82009","162745.225206","163511.385767","164278.070685","168144.935759","168911.581412","169678.132149","170444.903945","171211.549598","171978.531941","158145.063447","158911.353551","171220.550557","Mapping"
"Mixed","Both","cave","22","m150cad.wav","None","723.641516175","167","167395.209299","159677.981582","160445.019575","161211.720262","161978.82009","162745.225206","163511.385767","164278.070685","168144.935759","168911.581412","169678.132149","170444.903945","171211.549598","171978.531941","172745.359697","158911.353551","171988.023558","Mapping"
"Mixed","Both","cave","22","m160cave.wav","None","721.310968511","167","167395.209299","159677.981582","160445.019575","161211.720262","161978.82009","162745.225206","163511.385767","164278.070685","168144.935759","168911.581412","169678.132149","170444.903945","171211.549598","171978.531941","172745.359697","173511.763268","172754.863372","Mapping"
"Mixed","Both","cave","22","m150done.wav","space","432.005238254","167","167395.209299","174261.23435","160445.019575","161211.720262","161978.82009","162745.225206","163511.385767","164278.070685","168144.935759","168911.581412","169678.132149","170444.903945","171211.549598","171978.531941","172745.359697","173511.763268","173521.55973","Mapping"
"Mixed","Both","cave","22","m150cave.wav","None","734.7841179","167","167395.209299","174261.23435","175028.050048","161211.720262","161978.82009","162745.225206","163511.385767","164278.070685","168144.935759","168911.581412","169678.132149","170444.903945","171211.549598","171978.531941","172745.359697","173511.763268","174270.303327","Mapping"
"Mixed","Both","cave","22","m150tile.wav","None","732.167276088","167","167395.209299","174261.23435","175028.050048","175794.320983","161978.82009","162745.225206","163511.385767","164278.070685","168144.935759","168911.581412","169678.132149","170444.903945","171211.549598","171978.531941","172745.359697","173511.763268","175037.455097","Mapping"
"Mixed","Both","cave","22","m160cad.wav","space","0.0200965441763","167","167395.209299","174261.23435","175028.050048","175794.320983","176561.490994","162745.225206","163511.385767","164278.070685","168144.935759","168911.581412","169678.132149","170444.903945","171211.549598","171978.531941","172745.359697","173511.763268","175803.18436","Mapping"
"Mixed","Both","cave","22","m150cave.wav","None","727.646545507","167","167395.209299","174261.23435","175028.050048","175794.320983","176561.490994","177328.04977","163511.385767","164278.070685","168144.935759","168911.581412","169678.132149","170444.903945","171211.549598","171978.531941","172745.359697","173511.763268","176570.490717","Mapping"
"Mixed","Both","cave","22","m160greet.wav","space","368.046269752","167","167395.209299","174261.23435","175028.050048","175794.320983","176561.490994","177328.04977","178094.502808","164278.070685","168144.935759","168911.581412","169678.132149","170444.903945","171211.549598","171978.531941","172745.359697","173511.763268","177337.42792","Mapping"
"Mixed","Both","cave","22","m160jaw.wav","None","728.719686158","167","167395.209299","174261.23435","175028.050048","175794.320983","176561.490994","177328.04977","178094.502808","178861.475876","168144.935759","168911.581412","169678.132149","170444.903945","171211.549598","171978.531941","172745.359697","173511.763268","178103.478106","Mapping"
"Mixed","Both","done","45","m160romp.wav","None","723.711698316","167","181978.370243","174261.23435","175028.050048","175794.320983","176561.490994","177328.04977","178094.502808","178861.475876","168144.935759","168911.581412","169678.132149","170444.903945","171211.549598","171978.531941","172745.359697","173511.763268","178872.949602","Mapping"
"Mixed","Both","done","45","m160greet.wav","None","713.0634645","167","181978.370243","174261.23435","175028.050048","175794.320983","176561.490994","177328.04977","178094.502808","178861.475876","182727.784746","168911.581412","169678.132149","170444.903945","171211.549598","171978.531941","172745.359697","173511.763268","181995.292838","Mapping"
"Mixed","Both","done","45","m150done.wav","None","734.357459005","167","181978.370243","174261.23435","175028.050048","175794.320983","176561.490994","177328.04977","178094.502808","178861.475876","182727.784746","183494.847165","169678.132149","170444.903945","171211.549598","171978.531941","172745.359697","173511.763268","182738.634562","Mapping"
"Mixed","Both","done","45","m150park.wav","space","441.418016795","167","181978.370243","174261.23435","175028.050048","175794.320983","176561.490994","177328.04977","178094.502808","178861.475876","182727.784746","183494.847165","184260.883438","170444.903945","171211.549598","171978.531941","172745.359697","173511.763268","183503.9619","Mapping"
"Mixed","Both","done","45","m160done.wav","None","732.175623998","167","181978.370243","174261.23435","175028.050048","175794.320983","176561.490994","177328.04977","178094.502808","178861.475876","182727.784746","183494.847165","184260.883438","185027.956987","171211.549598","171978.531941","172745.359697","173511.763268","184269.700748","Mapping"
"Mixed","Both","done","45","m150jolt.wav","space","435.585463885","167","181978.370243","174261.23435","175028.050048","175794.320983","176561.490994","177328.04977","178094.502808","178861.475876","182727.784746","183494.847165","184260.883438","185027.956987","185794.492574","171978.531941","172745.359697","173511.763268","185037.78313","Mapping"
"Mixed","Both","done","45","m160tile.wav","None","726.969765499","167","181978.370243","174261.23435","175028.050048","175794.320983","176561.490994","177328.04977","178094.502808","178861.475876","182727.784746","183494.847165","184260.883438","185027.956987","185794.492574","186561.818718","172745.359697","173511.763268","185803.442211","Mapping"
"Mixed","Both","done","45","m150done.wav","None","723.953781184","167","181978.370243","174261.23435","175028.050048","175794.320983","176561.490994","177328.04977","178094.502808","178861.475876","182727.784746","183494.847165","184260.883438","185027.956987","185794.492574","186561.818718","187328.187661","173511.763268","186571.183574","Mapping"
"Mixed","Both","done","45","m150cave.wav","space","415.596798528","167","181978.370243","174261.23435","175028.050048","175794.320983","176561.490994","177328.04977","178094.502808","178861.475876","182727.784746","183494.847165","184260.883438","185027.956987","185794.492574","186561.818718","187328.187661","188094.271546","187337.727509","Mapping"
"Mixed","Both","done","45","m160ball.wav","None","720.704061445","167","181978.370243","188844.434867","175028.050048","175794.320983","176561.490994","177328.04977","178094.502808","178861.475876","182727.784746","183494.847165","184260.883438","185027.956987","185794.492574","186561.818718","187328.187661","188094.271546","188103.162749","Mapping"
"Mixed","Both","done","45","m150cad.wav","None","735.062373802","167","181978.370243","188844.434867","189610.718788","175794.320983","176561.490994","177328.04977","178094.502808","178861.475876","182727.784746","183494.847165","184260.883438","185027.956987","185794.492574","186561.818718","187328.187661","188094.271546","188853.531979","Mapping"
"Mixed","Both","done","45","m160depth.wav","None","733.587927185","167","181978.370243","188844.434867","189610.718788","190377.759564","176561.490994","177328.04977","178094.502808","178861.475876","182727.784746","183494.847165","184260.883438","185027.956987","185794.492574","186561.818718","187328.187661","188094.271546","189619.66626","Mapping"
"Mixed","Both","done","45","m150dime.wav","None","730.708906427","167","181978.370243","188844.434867","189610.718788","190377.759564","191144.396561","177328.04977","178094.502808","178861.475876","182727.784746","183494.847165","184260.883438","185027.956987","185794.492574","186561.818718","187328.187661","188094.271546","190387.120092","Mapping"
"Mixed","Both","done","45","m150cad.wav","space","367.729057558","167","181978.370243","188844.434867","189610.718788","190377.759564","191144.396561","191911.164337","178094.502808","178861.475876","182727.784746","183494.847165","184260.883438","185027.956987","185794.492574","186561.818718","187328.187661","188094.271546","191153.530774","Mapping"
"Mixed","Both","done","45","m160done.wav","None","725.96371593","167","181978.370243","188844.434867","189610.718788","190377.759564","191144.396561","191911.164337","192678.242833","178861.475876","182727.784746","183494.847165","184260.883438","185027.956987","185794.492574","186561.818718","187328.187661","188094.271546","191920.782716","Mapping"
"Mixed","Both","done","45","m160depth.wav","space","577.258517966","167","181978.370243","188844.434867","189610.718788","190377.759564","191144.396561","191911.164337","192678.242833","193445.02916","182727.784746","183494.847165","184260.883438","185027.956987","185794.492574","186561.818718","187328.187661","188094.271546","192687.961074","Mapping"
"Mixed","Both","ball","8","m160tile.wav","None","720.874416176","167","196561.570452","188844.434867","189610.718788","190377.759564","191144.396561","191911.164337","192678.242833","193445.02916","182727.784746","183494.847165","184260.883438","185027.956987","185794.492574","186561.818718","187328.187661","188094.271546","193454.465744","Mapping"
"Mixed","Both","ball","8","m160cling.wav","None","721.099494025","167","196561.570452","188844.434867","189610.718788","190377.759564","191144.396561","191911.164337","192678.242833","193445.02916","197311.228274","183494.847165","184260.883438","185027.956987","185794.492574","186561.818718","187328.187661","188094.271546","196571.010746","Mapping"
"Mixed","Both","ball","8","m150lash.wav","None","735.86869752","167","196561.570452","188844.434867","189610.718788","190377.759564","191144.396561","191911.164337","192678.242833","193445.02916","197311.228274","198077.663689","184260.883438","185027.956987","185794.492574","186561.818718","187328.187661","188094.271546","197320.87386","Mapping"
"Mixed","Both","ball","8","m160ball.wav","None","734.587793238","167","196561.570452","188844.434867","189610.718788","190377.759564","191144.396561","191911.164337","192678.242833","193445.02916","197311.228274","198077.663689","198844.297904","185027.956987","185794.492574","186561.818718","187328.187661","188094.271546","198087.022671","Mapping"
"Mixed","Both","ball","8","m160romp.wav","space","339.475883637","167","196561.570452","188844.434867","189610.718788","190377.759564","191144.396561","191911.164337","192678.242833","193445.02916","197311.228274","198077.663689","198844.297904","199610.988696","185794.492574","186561.818718","187328.187661","188094.271546","198853.633388","Mapping"
"Mixed","Both","ball","8","m160bluff.wav","None","730.330787133","167","196561.570452","188844.434867","189610.718788","190377.759564","191144.396561","191911.164337","192678.242833","193445.02916","197311.228274","198077.663689","198844.297904","199610.988696","200377.655064","186561.818718","187328.187661","188094.271546","199619.972342","Mapping"
"Mixed","Both","ball","8","m150ball.wav","None","731.947144959","167","196561.570452","188844.434867","189610.718788","190377.759564","191144.396561","191911.164337","192678.242833","193445.02916","197311.228274","198077.663689","198844.297904","199610.988696","200377.655064","201144.207038","187328.187661","188094.271546","200387.309615","Mapping"
"Mixed","Both","ball","8","m150reek.wav","space","431.468513794","167","196561.570452","188844.434867","189610.718788","190377.759564","191144.396561","191911.164337","192678.242833","193445.02916","197311.228274","198077.663689","198844.297904","199610.988696","200377.655064","201144.207038","201910.974196","188094.271546","201153.596937","Mapping"
"Mixed","Both","ball","8","m150lash.wav","None","727.985090576","167","196561.570452","188844.434867","189610.718788","190377.759564","191144.396561","191911.164337","192678.242833","193445.02916","197311.228274","198077.663689","198844.297904","199610.988696","200377.655064","201144.207038","201910.974196","202677.600062","201919.975155","Mapping"
"Mixed","Both","ball","8","m150depth.wav","None","725.437194109","167","196561.570452","203444.038569","189610.718788","190377.759564","191144.396561","191911.164337","192678.242833","193445.02916","197311.228274","198077.663689","198844.297904","199610.988696","200377.655064","201144.207038","201910.974196","202677.600062","202687.186595","Mapping"
"Mixed","Both","ball","8","m150priest.wav","None","724.416613113","167","196561.570452","203444.038569","204210.702773","190377.759564","191144.396561","191911.164337","192678.242833","193445.02916","197311.228274","198077.663689","198844.297904","199610.988696","200377.655064","201144.207038","201910.974196","202677.600062","203452.890816","Mapping"
"Mixed","Both","ball","8","m150ball.wav","None","725.419880357","167","196561.570452","203444.038569","204210.702773","204977.954405","191144.396561","191911.164337","192678.242833","193445.02916","197311.228274","198077.663689","198844.297904","199610.988696","200377.655064","201144.207038","201910.974196","202677.600062","204220.028673","Mapping"
"Mixed","Both","ball","8","m160done.wav","space","342.021306511","167","196561.570452","203444.038569","204210.702773","204977.954405","205744.704559","191911.164337","192678.242833","193445.02916","197311.228274","198077.663689","198844.297904","199610.988696","200377.655064","201144.207038","201910.974196","202677.600062","204986.985973","Mapping"
"Mixed","Both","ball","8","m160ball.wav","None","719.421920367","167","196561.570452","203444.038569","204210.702773","204977.954405","205744.704559","206493.911298","192678.242833","193445.02916","197311.228274","198077.663689","198844.297904","199610.988696","200377.655064","201144.207038","201910.974196","202677.600062","205754.822252","Mapping"
"Mixed","Both","ball","8","m150jaw.wav","space","402.089330368","167","196561.570452","203444.038569","204210.702773","204977.954405","205744.704559","206493.911298","207260.641046","193445.02916","197311.228274","198077.663689","198844.297904","199610.988696","200377.655064","201144.207038","201910.974196","202677.600062","206502.878248","Mapping"
"Mixed","Both","ball","8","m160dime.wav","None","733.752407134","167","196561.570452","203444.038569","204210.702773","204977.954405","205744.704559","206493.911298","207260.641046","208027.138605","197311.228274","198077.663689","198844.297904","199610.988696","200377.655064","201144.207038","201910.974196","202677.600062","207269.807413","Mapping"
"Mixed","Both","done","46","m160gnash.wav","None","732.298365794","167","211160.804691","203444.038569","204210.702773","204977.954405","205744.704559","206493.911298","207260.641046","208027.138605","197311.228274","198077.663689","198844.297904","199610.988696","200377.655064","201144.207038","201910.974196","202677.600062","208035.944476","Mapping"
"Mixed","Both","done","46","m150done.wav","None","725.330838468","167","211160.804691","203444.038569","204210.702773","204977.954405","205744.704559","206493.911298","207260.641046","208027.138605","211926.884867","198077.663689","198844.297904","199610.988696","200377.655064","201144.207038","201910.974196","202677.600062","211169.807506","Mapping"
"Mixed","Both","done","46","m160cave.wav","space","505.467882846","167","211160.804691","203444.038569","204210.702773","204977.954405","205744.704559","206493.911298","207260.641046","208027.138605","211926.884867","212694.104036","198844.297904","199610.988696","200377.655064","201144.207038","201910.974196","202677.600062","211935.435052","Mapping"
"Mixed","Both","done","46","m150cling.wav","None","724.077140912","167","211160.804691","203444.038569","204210.702773","204977.954405","205744.704559","206493.911298","207260.641046","208027.138605","211926.884867","212694.104036","213460.333233","199610.988696","200377.655064","201144.207038","201910.974196","202677.600062","212702.840344","Mapping"
"Mixed","Both","done","46","m160depth.wav","None","725.763372146","167","211160.804691","203444.038569","204210.702773","204977.954405","205744.704559","206493.911298","207260.641046","208027.138605","211926.884867","212694.104036","213460.333233","214227.911043","200377.655064","201144.207038","201910.974196","202677.600062","213469.266484","Mapping"
"Mixed","Both","done","46","m150park.wav","None","722.364631016","167","211160.804691","203444.038569","204210.702773","204977.954405","205744.704559","206493.911298","207260.641046","208027.138605","211926.884867","212694.104036","213460.333233","214227.911043","214994.461472","201144.207038","201910.974196","202677.600062","214237.687409","Mapping"
"Mixed","Both","done","46","m160done.wav","None","721.284379717","167","211160.804691","203444.038569","204210.702773","204977.954405","205744.704559","206493.911298","207260.641046","208027.138605","211926.884867","212694.104036","213460.333233","214227.911043","214994.461472","215760.495889","201910.974196","202677.600062","215003.919389","Mapping"
"Mixed","Both","done","46","m150tile.wav","space","455.463446211","167","211160.804691","203444.038569","204210.702773","204977.954405","205744.704559","206493.911298","207260.641046","208027.138605","211926.884867","212694.104036","213460.333233","214227.911043","214994.461472","215760.495889","216510.467523","202677.600062","215769.30918","Mapping"
"Mixed","Both","done","46","m150cling.wav","None","734.111048281","167","211160.804691","203444.038569","204210.702773","204977.954405","205744.704559","206493.911298","207260.641046","208027.138605","211926.884867","212694.104036","213460.333233","214227.911043","214994.461472","215760.495889","216510.467523","217277.251067","216519.938425","Mapping"
"Mixed","Both","done","46","m160park.wav","None","732.50489356","167","211160.804691","218043.978033","204210.702773","204977.954405","205744.704559","206493.911298","207260.641046","208027.138605","211926.884867","212694.104036","213460.333233","214227.911043","214994.461472","215760.495889","216510.467523","217277.251067","217286.313861","Mapping"
"Mixed","Both","done","46","m160done.wav","None","730.24329124","167","211160.804691","218043.978033","218810.680574","204977.954405","205744.704559","206493.911298","207260.641046","208027.138605","211926.884867","212694.104036","213460.333233","214227.911043","214994.461472","215760.495889","216510.467523","217277.251067","218053.370405","Mapping"
"Mixed","Both","done","46","m160reek.wav","space","524.13977962","167","211160.804691","218043.978033","218810.680574","219577.256663","205744.704559","206493.911298","207260.641046","208027.138605","211926.884867","212694.104036","213460.333233","214227.911043","214994.461472","215760.495889","216510.467523","217277.251067","218820.632241","Mapping"
"Mixed","Both","done","46","m150depth.wav","None","729.30649668","167","211160.804691","218043.978033","218810.680574","219577.256663","220343.963224","206493.911298","207260.641046","208027.138605","211926.884867","212694.104036","213460.333233","214227.911043","214994.461472","215760.495889","216510.467523","217277.251067","219586.623065","Mapping"
"Mixed","Both","done","46","m160lash.wav","None","727.525040973","167","211160.804691","218043.978033","218810.680574","219577.256663","220343.963224","221110.467275","207260.641046","208027.138605","211926.884867","212694.104036","213460.333233","214227.911043","214994.461472","215760.495889","216510.467523","217277.251067","220353.290051","Mapping"
"Mixed","Both","done","46","m150done.wav","None","725.947329774","167","211160.804691","218043.978033","218810.680574","219577.256663","220343.963224","221110.467275","221877.615953","208027.138605","211926.884867","212694.104036","213460.333233","214227.911043","214994.461472","215760.495889","216510.467523","217277.251067","221119.572735","Mapping"
"Mixed","Both","done","46","m150bluff.wav","space","529.051305261","167","211160.804691","218043.978033","218810.680574","219577.256663","220343.963224","221110.467275","221877.615953","222644.183386","211926.884867","212694.104036","213460.333233","214227.911043","214994.461472","215760.495889","216510.467523","217277.251067","221887.706748","Mapping"
"Mixed","Both","tile","26","m150gnash.wav","None","723.754673731","167","225760.504546","218043.978033","218810.680574","219577.256663","220343.963224","221110.467275","221877.615953","222644.183386","211926.884867","212694.104036","213460.333233","214227.911043","214994.461472","215760.495889","216510.467523","217277.251067","222653.667583","Mapping"
"Mixed","Both","tile","26","m150done.wav","None","725.61898781","167","225760.504546","218043.978033","218810.680574","219577.256663","220343.963224","221110.467275","221877.615953","222644.183386","226527.60252","212694.104036","213460.333233","214227.911043","214994.461472","215760.495889","216510.467523","217277.251067","225769.549099","Mapping"
"Mixed","Both","tile","26","m160ball.wav","None","722.497574985","167","225760.504546","218043.978033","218810.680574","219577.256663","220343.963224","221110.467275","221877.615953","222644.183386","226527.60252","227293.643739","213460.333233","214227.911043","214994.461472","215760.495889","216510.467523","217277.251067","226537.620968","Mapping"
"Mixed","Both","tile","26","m150tile.wav","None","722.218082752","167","225760.504546","218043.978033","218810.680574","219577.256663","220343.963224","221110.467275","221877.615953","222644.183386","226527.60252","227293.643739","228060.198186","214227.911043","214994.461472","215760.495889","216510.467523","217277.251067","227302.926974","Mapping"
"Mixed","Both","tile","26","m160cling.wav","space","619.555266574","167","225760.504546","218043.978033","218810.680574","219577.256663","220343.963224","221110.467275","221877.615953","222644.183386","226527.60252","227293.643739","228060.198186","228810.155907","214994.461472","215760.495889","216510.467523","217277.251067","228069.037757","Mapping"
"Mixed","Both","tile","26","m150tile.wav","None","734.817818273","167","225760.504546","218043.978033","218810.680574","219577.256663","220343.963224","221110.467275","221877.615953","222644.183386","226527.60252","227293.643739","228060.198186","228810.155907","229577.090637","215760.495889","216510.467523","217277.251067","228819.469749","Mapping"
"Mixed","Both","tile","26","m160jaw.wav","space","669.83826831","167","225760.504546","218043.978033","218810.680574","219577.256663","220343.963224","221110.467275","221877.615953","222644.183386","226527.60252","227293.643739","228060.198186","228810.155907","229577.090637","230343.806782","216510.467523","217277.251067","229586.696958","Mapping"
"Mixed","Both","tile","26","m160lash.wav","None","730.328004807","167","225760.504546","218043.978033","218810.680574","219577.256663","220343.963224","221110.467275","221877.615953","222644.183386","226527.60252","227293.643739","228060.198186","228810.155907","229577.090637","230343.806782","231110.453672","217277.251067","230353.118151","Mapping"
"Mixed","Both","tile","26","m160park.wav","None","729.055448435","167","225760.504546","218043.978033","218810.680574","219577.256663","220343.963224","221110.467275","221877.615953","222644.183386","226527.60252","227293.643739","228060.198186","228810.155907","229577.090637","230343.806782","231110.453672","231876.672975","231119.656521","Mapping"
"Mixed","Both","tile","26","m150jolt.wav","None","728.297664318","167","225760.504546","232643.739413","218810.680574","219577.256663","220343.963224","221110.467275","221877.615953","222644.183386","226527.60252","227293.643739","228060.198186","228810.155907","229577.090637","230343.806782","231110.453672","231876.672975","231885.37651","Mapping"
"Mixed","Both","tile","26","m160tile.wav","None","725.302704144","167","225760.504546","232643.739413","233410.664868","219577.256663","220343.963224","221110.467275","221877.615953","222644.183386","226527.60252","227293.643739","228060.198186","228810.155907","229577.090637","230343.806782","231110.453672","231876.672975","232653.393655","Mapping"
"Mixed","Both","tile","26","m150park.wav","space","372.121481691","167","225760.504546","232643.739413","233410.664868","234177.660814","220343.963224","221110.467275","221877.615953","222644.183386","226527.60252","227293.643739","228060.198186","228810.155907","229577.090637","230343.806782","231110.453672","231876.672975","233420.353738","Mapping"
"Mixed","Both","tile","26","m160bluff.wav","None","720.02295265","167","225760.504546","232643.739413","233410.664868","234177.660814","234943.885064","221110.467275","221877.615953","222644.183386","226527.60252","227293.643739","228060.198186","228810.155907","229577.090637","230343.806782","231110.453672","231876.672975","234187.618047","Mapping"
"Mixed","Both","tile","26","m160tile.wav","None","718.693199102","167","225760.504546","232643.739413","233410.664868","234177.660814","234943.885064","235693.416126","221877.615953","222644.183386","226527.60252","227293.643739","228060.198186","228810.155907","229577.090637","230343.806782","231110.453672","231876.672975","234953.967202","Mapping"
"Mixed","Both","tile","26","m150gnash.wav","space","650.120129343","167","225760.504546","232643.739413","233410.664868","234177.660814","234943.885064","235693.416126","236460.22966","222644.183386","226527.60252","227293.643739","228060.198186","228810.155907","229577.090637","230343.806782","231110.453672","231876.672975","235702.335463","Mapping"
"Mixed","Both","tile","26","m150romp.wav","None","733.301323373","167","225760.504546","232643.739413","233410.664868","234177.660814","234943.885064","235693.416126","236460.22966","237226.573251","226527.60252","227293.643739","228060.198186","228810.155907","229577.090637","230343.806782","231110.453672","231876.672975","236469.186408","Mapping"
"Mixed","Both","done","44","m150park.wav","None","732.036496047","167","240360.625495","232643.739413","233410.664868","234177.660814","234943.885064","235693.416126","236460.22966","237226.573251","226527.60252","227293.643739","228060.198186","228810.155907","229577.090637","230343.806782","231110.453672","231876.672975","237235.409112","Mapping"
"Mixed","Both","done","44","m160done.wav","None","721.160710324","167","240360.625495","232643.739413","233410.664868","234177.660814","234943.885064","235693.416126","236460.22966","237226.573251","241127.420169","227293.643739","228060.198186","228810.155907","229577.090637","230343.806782","231110.453672","231876.672975","240370.060842","Mapping"
"Mixed","Both","done","44","m150jaw.wav","None","719.154176302","167","240360.625495","232643.739413","233410.664868","234177.660814","234943.885064","235693.416126","236460.22966","237226.573251","241127.420169","241876.711313","228060.198186","228810.155907","229577.090637","230343.806782","231110.453672","231876.672975","241137.064827","Mapping"
"Mixed","Both","done","44","m160bluff.wav","None","735.542829148","167","240360.625495","232643.739413","233410.664868","234177.660814","234943.885064","235693.416126","236460.22966","237226.573251","241127.420169","241876.711313","242643.443843","228810.155907","229577.090637","230343.806782","231110.453672","231876.672975","241885.720619","Mapping"
"Mixed","Both","done","44","m160bluff.wav","space","0.0336999073625","167","240360.625495","232643.739413","233410.664868","234177.660814","234943.885064","235693.416126","236460.22966","237226.573251","241127.420169","241876.711313","242643.443843","243410.209765","229577.090637","230343.806782","231110.453672","231876.672975","242653.232885","Mapping"
"Mixed","Both","done","44","m160ball.wav","None","731.120725162","167","240360.625495","232643.739413","233410.664868","234177.660814","234943.885064","235693.416126","236460.22966","237226.573251","241127.420169","241876.711313","242643.443843","243410.209765","244176.461841","230343.806782","231110.453672","231876.672975","243419.244424","Mapping"
"Mixed","Both","done","44","m150lash.wav","None","730.121168308","167","240360.625495","232643.739413","233410.664868","234177.660814","234943.885064","235693.416126","236460.22966","237226.573251","241127.420169","241876.711313","242643.443843","243410.209765","244176.461841","244943.103784","231110.453672","231876.672975","244185.262456","Mapping"
"Mixed","Both","done","44","m160done.wav","None","728.585195728","167","240360.625495","232643.739413","233410.664868","234177.660814","234943.885064","235693.416126","236460.22966","237226.573251","241127.420169","241876.711313","242643.443843","243410.209765","244176.461841","244943.103784","245709.947308","231876.672975","244951.81412","Mapping"
"Mixed","Both","done","44","m150knife.wav","space","343.018389773","167","240360.625495","232643.739413","233410.664868","234177.660814","234943.885064","235693.416126","236460.22966","237226.573251","241127.420169","241876.711313","242643.443843","243410.209765","244176.461841","244943.103784","245709.947308","246477.383826","245721.26954","Mapping"
"Mixed","Both","done","44","m160gnash.wav","None","722.650615964","167","240360.625495","247243.69248","233410.664868","234177.660814","234943.885064","235693.416126","236460.22966","237226.573251","241127.420169","241876.711313","242643.443843","243410.209765","244176.461841","244943.103784","245709.947308","246477.383826","246486.972524","Mapping"
"Mixed","Both","done","44","m150bluff.wav","None","725.834481884","167","240360.625495","247243.69248","248010.307834","234177.660814","234943.885064","235693.416126","236460.22966","237226.573251","241127.420169","241876.711313","242643.443843","243410.209765","244176.461841","244943.103784","245709.947308","246477.383826","247248.672642","Mapping"
"Mixed","Both","done","44","m150jolt.wav","None","719.069462735","167","240360.625495","247243.69248","248010.307834","248759.841988","234943.885064","235693.416126","236460.22966","237226.573251","241127.420169","241876.711313","242643.443843","243410.209765","244176.461841","244943.103784","245709.947308","246477.383826","248020.478396","Mapping"
"Mixed","Both","done","44","m150done.wav","None","735.190681182","167","240360.625495","247243.69248","248010.307834","248759.841988","249526.74611","235693.416126","236460.22966","237226.573251","241127.420169","241876.711313","242643.443843","243410.209765","244176.461841","244943.103784","245709.947308","246477.383826","248769.199424","Mapping"
"Mixed","Both","done","44","m160tile.wav","space","534.444831312","167","240360.625495","247243.69248","248010.307834","248759.841988","249526.74611","250293.12371","236460.22966","237226.573251","241127.420169","241876.711313","242643.443843","243410.209765","244176.461841","244943.103784","245709.947308","246477.383826","249537.770917","Mapping"
"Mixed","Both","done","44","m150done.wav","None","731.566243339","167","240360.625495","247243.69248","248010.307834","248759.841988","249526.74611","250293.12371","251060.116256","237226.573251","241127.420169","241876.711313","242643.443843","243410.209765","244176.461841","244943.103784","245709.947308","246477.383826","250301.919688","Mapping"
"Mixed","Both","done","44","m160tile.wav","space","643.134051934","167","240360.625495","247243.69248","248010.307834","248759.841988","249526.74611","250293.12371","251060.116256","251826.461392","241127.420169","241876.711313","242643.443843","243410.209765","244176.461841","244943.103784","245709.947308","246477.383826","251069.053216","Mapping"
"Mixed","Both","tile","27","m160romp.wav","None","727.017687168","167","254960.175091","247243.69248","248010.307834","248759.841988","249526.74611","250293.12371","251060.116256","251826.461392","241127.420169","241876.711313","242643.443843","243410.209765","244176.461841","244943.103784","245709.947308","246477.383826","251835.490796","Mapping"
"Mixed","Both","tile","27","m150reek.wav","None","715.601467062","167","254960.175091","247243.69248","248010.307834","248759.841988","249526.74611","250293.12371","251060.116256","251826.461392","255726.408307","241876.711313","242643.443843","243410.209765","244176.461841","244943.103784","245709.947308","246477.383826","254975.481329","Mapping"
"Mixed","Both","tile","27","m150tile.wav","None","720.874106511","167","254960.175091","247243.69248","248010.307834","248759.841988","249526.74611","250293.12371","251060.116256","251826.461392","255726.408307","256476.361081","242643.443843","243410.209765","244176.461841","244943.103784","245709.947308","246477.383826","255735.420088","Mapping"
"Mixed","Both","tile","27","m160greet.wav","space","594.764831942","167","254960.175091","247243.69248","248010.307834","248759.841988","249526.74611","250293.12371","251060.116256","251826.461392","255726.408307","256476.361081","257243.278807","243410.209765","244176.461841","244943.103784","245709.947308","246477.383826","256485.335452","Mapping"
"Mixed","Both","tile","27","m150tile.wav","None","733.347390313","167","254960.175091","247243.69248","248010.307834","248759.841988","249526.74611","250293.12371","251060.116256","251826.461392","255726.408307","256476.361081","257243.278807","258009.717314","244176.461841","244943.103784","245709.947308","246477.383826","257252.143421","Mapping"
"Mixed","Both","tile","27","m150jaw.wav","space","573.352114763","167","254960.175091","247243.69248","248010.307834","248759.841988","249526.74611","250293.12371","251060.116256","251826.461392","255726.408307","256476.361081","257243.278807","258009.717314","258776.668121","244943.103784","245709.947308","246477.383826","258018.74919","Mapping"
"Mixed","Both","tile","27","m160tile.wav","None","728.775955271","167","254960.175091","247243.69248","248010.307834","248759.841988","249526.74611","250293.12371","251060.116256","251826.461392","255726.408307","256476.361081","257243.278807","258009.717314","258776.668121","259543.165989","245709.947308","246477.383826","258785.887048","Mapping"
"Mixed","Both","tile","27","m150cave.wav","space","391.719043255","167","254960.175091","247243.69248","248010.307834","248759.841988","249526.74611","250293.12371","251060.116256","251826.461392","255726.408307","256476.361081","257243.278807","258009.717314","258776.668121","259543.165989","260309.533386","246477.383826","259552.291546","Mapping"
"Mixed","Both","tile","27","m160tile.wav","None","725.726580247","167","254960.175091","247243.69248","248010.307834","248759.841988","249526.74611","250293.12371","251060.116256","251826.461392","255726.408307","256476.361081","257243.278807","258009.717314","258776.668121","259543.165989","260309.533386","261077.037614","260318.291645","Mapping"
"Mixed","Both","tile","27","m160romp.wav","space","320.817280561","167","254960.175091","261843.06523","248010.307834","248759.841988","249526.74611","250293.12371","251060.116256","251826.461392","255726.408307","256476.361081","257243.278807","258009.717314","258776.668121","259543.165989","260309.533386","261077.037614","261087.224562","Mapping"
"Mixed","Both","tile","27","m160ball.wav","None","721.339412499","167","254960.175091","261843.06523","262593.131161","248759.841988","249526.74611","250293.12371","251060.116256","251826.461392","255726.408307","256476.361081","257243.278807","258009.717314","258776.668121","259543.165989","260309.533386","261077.037614","261851.834309","Mapping"
"Mixed","Both","tile","27","m160cling.wav","None","741.595821921","167","254960.175091","261843.06523","262593.131161","263359.27719","249526.74611","250293.12371","251060.116256","251826.461392","255726.408307","256476.361081","257243.278807","258009.717314","258776.668121","259543.165989","260309.533386","261077.037614","262596.810322","Mapping"
"Mixed","Both","tile","27","m160ball.wav","None","735.952174291","167","254960.175091","261843.06523","262593.131161","263359.27719","264126.407936","250293.12371","251060.116256","251826.461392","255726.408307","256476.361081","257243.278807","258009.717314","258776.668121","259543.165989","260309.533386","261077.037614","263367.965576","Mapping"
"Mixed","Both","tile","27","m150reek.wav","None","733.088303357","167","254960.175091","261843.06523","262593.131161","263359.27719","264126.407936","264893.416868","251060.116256","251826.461392","255726.408307","256476.361081","257243.278807","258009.717314","258776.668121","259543.165989","260309.533386","261077.037614","264135.963243","Mapping"
"Mixed","Both","tile","27","m150depth.wav","None","731.290461496","167","254960.175091","261843.06523","262593.131161","263359.27719","264126.407936","264893.416868","265659.842699","251826.461392","255726.408307","256476.361081","257243.278807","258009.717314","258776.668121","259543.165989","260309.533386","261077.037614","264902.898282","Mapping"
"Mixed","Both","tile","27","m150priest.wav","None","730.604714714","167","254960.175091","261843.06523","262593.131161","263359.27719","264126.407936","264893.416868","265659.842699","266426.45527","255726.408307","256476.361081","257243.278807","258009.717314","258776.668121","259543.165989","260309.533386","261077.037614","265668.825108","Mapping"
"Mixed","Both","tile","25","m160cad.wav","None","728.752458468","167","269560.157221","261843.06523","262593.131161","263359.27719","264126.407936","264893.416868","265659.842699","266426.45527","255726.408307","256476.361081","257243.278807","258009.717314","258776.668121","259543.165989","260309.533386","261077.037614","266435.879179","Mapping"
"Mixed","Both","tile","25","m150tile.wav","None","720.977370627","167","269560.157221","261843.06523","262593.131161","263359.27719","264126.407936","264893.416868","265659.842699","266426.45527","270326.983122","256476.361081","257243.278807","258009.717314","258776.668121","259543.165989","260309.533386","261077.037614","269569.859385","Mapping"
"Mixed","Both","tile","25","m160romp.wav","space","463.228640147","167","269560.157221","261843.06523","262593.131161","263359.27719","264126.407936","264893.416868","265659.842699","266426.45527","270326.983122","271076.101746","257243.278807","258009.717314","258776.668121","259543.165989","260309.533386","261077.037614","270336.650968","Mapping"
"Mixed","Both","tile","25","m150greet.wav","None","735.547466669","167","269560.157221","261843.06523","262593.131161","263359.27719","264126.407936","264893.416868","265659.842699","266426.45527","270326.983122","271076.101746","271842.609199","258009.717314","258776.668121","259543.165989","260309.533386","261077.037614","271084.7722","Mapping"
"Mixed","Both","tile","25","m160greet.wav","None","733.820734546","167","269560.157221","261843.06523","262593.131161","263359.27719","264126.407936","264893.416868","265659.842699","266426.45527","270326.983122","271076.101746","271842.609199","272609.261036","258776.668121","259543.165989","260309.533386","261077.037614","271851.573676","Mapping"
"Mixed","Both","tile","25","m150bluff.wav","None","732.734918129","167","269560.157221","261843.06523","262593.131161","263359.27719","264126.407936","264893.416868","265659.842699","266426.45527","270326.983122","271076.101746","271842.609199","272609.261036","273375.920602","259543.165989","260309.533386","261077.037614","272618.035062","Mapping"
"Mixed","Both","tile","25","m160tile.wav","None","731.440719217","167","269560.157221","261843.06523","262593.131161","263359.27719","264126.407936","264893.416868","265659.842699","266426.45527","270326.983122","271076.101746","271842.609199","272609.261036","273375.920602","274142.705074","260309.533386","261077.037614","273384.759555","Mapping"
"Mixed","Both","tile","25","m150greet.wav","space","544.391551986","167","269560.157221","261843.06523","262593.131161","263359.27719","264126.407936","264893.416868","265659.842699","266426.45527","270326.983122","271076.101746","271842.609199","272609.261036","273375.920602","274142.705074","274909.696692","261077.037614","274151.398406","Mapping"
"Mixed","Both","tile","25","m150jaw.wav","None","726.408925839","167","269560.157221","261843.06523","262593.131161","263359.27719","264126.407936","264893.416868","265659.842699","266426.45527","270326.983122","271076.101746","271842.609199","272609.261036","273375.920602","274142.705074","274909.696692","275675.766355","274919.060311","Mapping"
"Mixed","Both","tile","25","m150tile.wav","None","729.652461596","167","269560.157221","276442.741278","262593.131161","263359.27719","264126.407936","264893.416868","265659.842699","266426.45527","270326.983122","271076.101746","271842.609199","272609.261036","273375.920602","274142.705074","274909.696692","275675.766355","275684.413621","Mapping"
"Mixed","Both","tile","25","m160dime.wav","space","347.986494191","167","269560.157221","276442.741278","277209.516784","263359.27719","264126.407936","264893.416868","265659.842699","266426.45527","270326.983122","271076.101746","271842.609199","272609.261036","273375.920602","274142.705074","274909.696692","275675.766355","276451.744093","Mapping"
"Mixed","Both","tile","25","m150bluff.wav","None","724.875426386","167","269560.157221","276442.741278","277209.516784","277976.764707","264126.407936","264893.416868","265659.842699","266426.45527","270326.983122","271076.101746","271842.609199","272609.261036","273375.920602","274142.705074","274909.696692","275675.766355","277218.859998","Mapping"
"Mixed","Both","tile","25","m160gnash.wav","None","727.689211722","167","269560.157221","276442.741278","277209.516784","277976.764707","278742.693697","264893.416868","265659.842699","266426.45527","270326.983122","271076.101746","271842.609199","272609.261036","273375.920602","274142.705074","274909.696692","275675.766355","277981.397358","Mapping"
"Mixed","Both","tile","25","m160cling.wav","None","722.677514423","167","269560.157221","276442.741278","277209.516784","277976.764707","278742.693697","279509.2197","265659.842699","266426.45527","270326.983122","271076.101746","271842.609199","272609.261036","273375.920602","274142.705074","274909.696692","275675.766355","278751.612416","Mapping"
"Mixed","Both","tile","25","m160tile.wav","None","721.178642008","167","269560.157221","276442.741278","277209.516784","277976.764707","278742.693697","279509.2197","280259.737333","266426.45527","270326.983122","271076.101746","271842.609199","272609.261036","273375.920602","274142.705074","274909.696692","275675.766355","279518.2018","Mapping"
"Mixed","Both","tile","25","m150jolt.wav","space","378.325969446","167","269560.157221","276442.741278","277209.516784","277976.764707","278742.693697","279509.2197","280259.737333","281026.109368","270326.983122","271076.101746","271842.609199","272609.261036","273375.920602","274142.705074","274909.696692","275675.766355","280269.33747","Mapping"
"Mixed","Both","ball","9","m160tile.wav","None","733.652235009","167","284160.056492","276442.741278","277209.516784","277976.764707","278742.693697","279509.2197","280259.737333","281026.109368","270326.983122","271076.101746","271842.609199","272609.261036","273375.920602","274142.705074","274909.696692","275675.766355","281035.484117","Mapping"
"Mixed","Both","ball","9","m150cad.wav","space","702.019797638","167","284160.056492","276442.741278","277209.516784","277976.764707","278742.693697","279509.2197","280259.737333","281026.109368","284909.34949","271076.101746","271842.609199","272609.261036","273375.920602","274142.705074","274909.696692","275675.766355","284169.590466","Mapping"
"Mixed","Both","ball","9","m150bluff.wav","None","736.329984386","167","284160.056492","276442.741278","277209.516784","277976.764707","278742.693697","279509.2197","280259.737333","281026.109368","284909.34949","285675.685043","271842.609199","272609.261036","273375.920602","274142.705074","274909.696692","275675.766355","284918.244094","Mapping"
"Mixed","Both","ball","9","m160depth.wav","None","735.442657024","167","284160.056492","276442.741278","277209.516784","277976.764707","278742.693697","279509.2197","280259.737333","281026.109368","284909.34949","285675.685043","286442.284011","272609.261036","273375.920602","274142.705074","274909.696692","275675.766355","285684.419804","Mapping"
"Mixed","Both","ball","9","m160cad.wav","None","733.938838355","167","284160.056492","276442.741278","277209.516784","277976.764707","278742.693697","279509.2197","280259.737333","281026.109368","284909.34949","285675.685043","286442.284011","287208.988098","273375.920602","274142.705074","274909.696692","275675.766355","286451.045361","Mapping"
"Mixed","Both","ball","9","m150ball.wav","None","732.334538829","167","284160.056492","276442.741278","277209.516784","277976.764707","278742.693697","279509.2197","280259.737333","281026.109368","284909.34949","285675.685043","286442.284011","287208.988098","287976.087617","274142.705074","274909.696692","275675.766355","287217.758105","Mapping"
"Mixed","Both","ball","9","m150park.wav","space","350.079287309","167","284160.056492","276442.741278","277209.516784","277976.764707","278742.693697","279509.2197","280259.737333","281026.109368","284909.34949","285675.685043","286442.284011","287208.988098","287976.087617","288742.439865","274909.696692","275675.766355","287985.447836","Mapping"
"Mixed","Both","ball","9","m160cave.wav","None","728.749675676","167","284160.056492","276442.741278","277209.516784","277976.764707","278742.693697","279509.2197","280259.737333","281026.109368","284909.34949","285675.685043","286442.284011","287208.988098","287976.087617","288742.439865","289509.324509","275675.766355","288751.145564","Mapping"
"Mixed","Both","ball","9","m150ball.wav","None","727.132390719","167","284160.056492","276442.741278","277209.516784","277976.764707","278742.693697","279509.2197","280259.737333","281026.109368","284909.34949","285675.685043","286442.284011","287208.988098","287976.087617","288742.439865","289509.324509","290275.644603","289518.036392","Mapping"
"Mixed","Both","ball","9","m160dime.wav","space","459.099013358","167","284160.056492","291042.557073","277209.516784","277976.764707","278742.693697","279509.2197","280259.737333","281026.109368","284909.34949","285675.685043","286442.284011","287208.988098","287976.087617","288742.439865","289509.324509","290275.644603","290284.367925","Mapping"
"Mixed","Both","ball","9","m160ball.wav","None","723.618637305","167","284160.056492","291042.557073","291809.442644","277976.764707","278742.693697","279509.2197","280259.737333","281026.109368","284909.34949","285675.685043","286442.284011","287208.988098","287976.087617","288742.439865","289509.324509","290275.644603","291051.518149","Mapping"
"Mixed","Both","ball","9","m150cling.wav","space","493.184740655","167","284160.056492","291042.557073","291809.442644","292559.605347","278742.693697","279509.2197","280259.737333","281026.109368","284909.34949","285675.685043","286442.284011","287208.988098","287976.087617","288742.439865","289509.324509","290275.644603","291818.268921","Mapping"
"Mixed","Both","ball","9","m150done.wav","None","735.981237143","167","284160.056492","291042.557073","291809.442644","292559.605347","293325.833926","279509.2197","280259.737333","281026.109368","284909.34949","285675.685043","286442.284011","287208.988098","287976.087617","288742.439865","289509.324509","290275.644603","292568.629185","Mapping"
"Mixed","Both","ball","9","m160dime.wav","None","734.80081372","167","284160.056492","291042.557073","291809.442644","292559.605347","293325.833926","294092.420217","280259.737333","281026.109368","284909.34949","285675.685043","286442.284011","287208.988098","287976.087617","288742.439865","289509.324509","290275.644603","293335.086242","Mapping"
"Mixed","Both","ball","9","m160ball.wav","None","733.559792396","167","284160.056492","291042.557073","291809.442644","292559.605347","293325.833926","294092.420217","294859.282291","281026.109368","284909.34949","285675.685043","286442.284011","287208.988098","287976.087617","288742.439865","289509.324509","290275.644603","294101.406955","Mapping"
"Mixed","Both","ball","9","m150gnash.wav","space","338.60988915","167","284160.056492","291042.557073","291809.442644","292559.605347","293325.833926","294092.420217","294859.282291","295625.681843","284909.34949","285675.685043","286442.284011","287208.988098","287976.087617","288742.439865","289509.324509","290275.644603","294868.808846","Mapping"
"Mixed","Both","ball","4","m160bluff.wav","None","729.773657396","167","298759.586302","291042.557073","291809.442644","292559.605347","293325.833926","294092.420217","294859.282291","295625.681843","284909.34949","285675.685043","286442.284011","287208.988098","287976.087617","288742.439865","289509.324509","290275.644603","295634.546766","Mapping"
"Mixed","Both","ball","4","m150ball.wav","None","720.972114708","167","298759.586302","291042.557073","291809.442644","292559.605347","293325.833926","294092.420217","294859.282291","295625.681843","299526.333673","285675.685043","286442.284011","287208.988098","287976.087617","288742.439865","289509.324509","290275.644603","298769.349682","Mapping"
"Mixed","Both","ball","4","m150reek.wav","space","440.189980436","167","298759.586302","291042.557073","291809.442644","292559.605347","293325.833926","294092.420217","294859.282291","295625.681843","299526.333673","300275.454771","286442.284011","287208.988098","287976.087617","288742.439865","289509.324509","290275.644603","299543.108483","Mapping"
"Mixed","Both","ball","4","m150cling.wav","None","735.283432994","167","298759.586302","291042.557073","291809.442644","292559.605347","293325.833926","294092.420217","294859.282291","295625.681843","299526.333673","300275.454771","301042.263977","287208.988098","287976.087617","288742.439865","289509.324509","290275.644603","300284.176237","Mapping"
"Mixed","Both","ball","4","m160ball.wav","None","733.398403972","167","298759.586302","291042.557073","291809.442644","292559.605347","293325.833926","294092.420217","294859.282291","295625.681843","299526.333673","300275.454771","301042.263977","301809.000836","287976.087617","288742.439865","289509.324509","290275.644603","301051.264318","Mapping"
"Mixed","Both","ball","4","m160reek.wav","space","356.620155741","167","298759.586302","291042.557073","291809.442644","292559.605347","293325.833926","294092.420217","294859.282291","295625.681843","299526.333673","300275.454771","301042.263977","301809.000836","302575.402242","288742.439865","289509.324509","290275.644603","301818.639001","Mapping"
"Mixed","Both","ball","4","m160depth.wav","None","729.783550836","167","298759.586302","291042.557073","291809.442644","292559.605347","293325.833926","294092.420217","294859.282291","295625.681843","299526.333673","300275.454771","301042.263977","301809.000836","302575.402242","303342.133227","289509.324509","290275.644603","302584.101449","Mapping"
"Mixed","Both","ball","4","m160cad.wav","None","728.077842388","167","298759.586302","291042.557073","291809.442644","292559.605347","293325.833926","294092.420217","294859.282291","295625.681843","299526.333673","300275.454771","301042.263977","301809.000836","302575.402242","303342.133227","304108.810107","290275.644603","303351.03958","Mapping"
"Mixed","Both","ball","4","m150park.wav","None","726.793846115","167","298759.586302","291042.557073","291809.442644","292559.605347","293325.833926","294092.420217","294859.282291","295625.681843","299526.333673","300275.454771","301042.263977","301809.000836","302575.402242","303342.133227","304108.810107","304875.764315","304117.668537","Mapping"
"Mixed","Both","ball","4","m150done.wav","None","724.509056192","167","298759.586302","305642.788087","291809.442644","292559.605347","293325.833926","294092.420217","294859.282291","295625.681843","299526.333673","300275.454771","301042.263977","301809.000836","302575.402242","303342.133227","304108.810107","304875.764315","304885.208629","Mapping"
"Mixed","Both","ball","4","m160ball.wav","None","722.579197027","167","298759.586302","305642.788087","306409.045419","292559.605347","293325.833926","294092.420217","294859.282291","295625.681843","299526.333673","300275.454771","301042.263977","301809.000836","302575.402242","303342.133227","304108.810107","304875.764315","305652.552086","Mapping"
"Mixed","Both","ball","4","m150depth.wav","space","573.333873414","167","298759.586302","305642.788087","306409.045419","307158.86432","293325.833926","294092.420217","294859.282291","295625.681843","299526.333673","300275.454771","301042.263977","301809.000836","302575.402242","303342.133227","304108.810107","304875.764315","306417.88499","Mapping"
"Mixed","Both","ball","4","m150depth.wav","None","736.910611391","167","298759.586302","305642.788087","306409.045419","307158.86432","307925.243157","294092.420217","294859.282291","295625.681843","299526.333673","300275.454771","301042.263977","301809.000836","302575.402242","303342.133227","304108.810107","304875.764315","307167.7008","Mapping"
"Mixed","Both","ball","4","m160gnash.wav","None","735.991748516","167","298759.586302","305642.788087","306409.045419","307158.86432","307925.243157","308692.342367","294859.282291","295625.681843","299526.333673","300275.454771","301042.263977","301809.000836","302575.402242","303342.133227","304108.810107","304875.764315","307933.915775","Mapping"
"Mixed","Both","ball","4","m150ball.wav","None","733.486209065","167","298759.586302","305642.788087","306409.045419","307158.86432","307925.243157","308692.342367","309458.999151","295625.681843","299526.333673","300275.454771","301042.263977","301809.000836","302575.402242","303342.133227","304108.810107","304875.764315","308701.628694","Mapping"
"Mixed","Both","ball","4","m160done.wav","space","467.086503282","167","298759.586302","305642.788087","306409.045419","307158.86432","307925.243157","308692.342367","309458.999151","310225.587607","299526.333673","300275.454771","301042.263977","301809.000836","302575.402242","303342.133227","304108.810107","304875.764315","309468.043394","Mapping"
"Mixed","Both","done","39","m150gnash.wav","None","729.734392371","167","313359.431777","305642.788087","306409.045419","307158.86432","307925.243157","308692.342367","309458.999151","310225.587607","299526.333673","300275.454771","301042.263977","301809.000836","302575.402242","303342.133227","304108.810107","304875.764315","310235.069331","Mapping"
"Mixed","Both","done","39","m150ball.wav","None","720.97149631","167","313359.431777","305642.788087","306409.045419","307158.86432","307925.243157","308692.342367","309458.999151","310225.587607","314126.235727","300275.454771","301042.263977","301809.000836","302575.402242","303342.133227","304108.810107","304875.764315","313369.069942","Mapping"
"Mixed","Both","done","39","m150done.wav","None","719.296087045","167","313359.431777","305642.788087","306409.045419","307158.86432","307925.243157","308692.342367","309458.999151","310225.587607","314126.235727","314875.252015","301042.263977","301809.000836","302575.402242","303342.133227","304108.810107","304875.764315","314136.024459","Mapping"
"Mixed","Both","done","39","m160romp.wav","space","338.808687404","167","313359.431777","305642.788087","306409.045419","307158.86432","307925.243157","308692.342367","309458.999151","310225.587607","314126.235727","314875.252015","315642.182726","301809.000836","302575.402242","303342.133227","304108.810107","304875.764315","314884.228241","Mapping"
"Mixed","Both","done","39","m160jolt.wav","None","733.127877582","167","313359.431777","305642.788087","306409.045419","307158.86432","307925.243157","308692.342367","309458.999151","310225.587607","314126.235727","314875.252015","315642.182726","316408.398319","302575.402242","303342.133227","304108.810107","304875.764315","315651.575098","Mapping"
"Mixed","Both","done","39","m160bluff.wav","None","733.123858459","167","313359.431777","305642.788087","306409.045419","307158.86432","307925.243157","308692.342367","309458.999151","310225.587607","314126.235727","314875.252015","315642.182726","316408.398319","317175.131777","303342.133227","304108.810107","304875.764315","316417.087632","Mapping"
"Mixed","Both","done","39","m150cling.wav","None","731.6531213","167","313359.431777","305642.788087","306409.045419","307158.86432","307925.243157","308692.342367","309458.999151","310225.587607","314126.235727","314875.252015","315642.182726","316408.398319","317175.131777","317941.978393","304108.810107","304875.764315","317183.872104","Mapping"
"Mixed","Both","done","39","m150done.wav","None","729.835801292","167","313359.431777","305642.788087","306409.045419","307158.86432","307925.243157","308692.342367","309458.999151","310225.587607","314126.235727","314875.252015","315642.182726","316408.398319","317175.131777","317941.978393","318708.864274","304875.764315","317950.970077","Mapping"
"Mixed","Both","done","39","m150depth.wav","space","672.472423874","167","313359.431777","305642.788087","306409.045419","307158.86432","307925.243157","308692.342367","309458.999151","310225.587607","314126.235727","314875.252015","315642.182726","316408.398319","317175.131777","317941.978393","318708.864274","319475.538062","318718.484817","Mapping"
"Mixed","Both","done","39","m160done.wav","None","725.542003755","167","313359.431777","320242.632326","306409.045419","307158.86432","307925.243157","308692.342367","309458.999151","310225.587607","314126.235727","314875.252015","315642.182726","316408.398319","317175.131777","317941.978393","318708.864274","319475.538062","319484.961661","Mapping"
"Mixed","Both","done","39","m160bluff.wav","space","667.098375503","167","313359.431777","320242.632326","321009.123701","307158.86432","307925.243157","308692.342367","309458.999151","310225.587607","314126.235727","314875.252015","315642.182726","316408.398319","317175.131777","317941.978393","318708.864274","319475.538062","320251.866402","Mapping"
"Mixed","Both","done","39","m150cave.wav","None","721.338484902","167","313359.431777","320242.632326","321009.123701","321775.896116","307925.243157","308692.342367","309458.999151","310225.587607","314126.235727","314875.252015","315642.182726","316408.398319","317175.131777","317941.978393","318708.864274","319475.538062","321018.662004","Mapping"
"Mixed","Both","done","39","m160reek.wav","None","719.534459524","167","313359.431777","320242.632326","321009.123701","321775.896116","322525.199935","308692.342367","309458.999151","310225.587607","314126.235727","314875.252015","315642.182726","316408.398319","317175.131777","317941.978393","318708.864274","319475.538062","321785.891067","Mapping"
"Mixed","Both","done","39","m160done.wav","None","737.035826314","167","313359.431777","320242.632326","321009.123701","321775.896116","322525.199935","323291.5831","309458.999151","310225.587607","314126.235727","314875.252015","315642.182726","316408.398319","317175.131777","317941.978393","318708.864274","319475.538062","322533.941189","Mapping"
"Mixed","Both","done","39","m160cling.wav","space","306.342409924","167","313359.431777","320242.632326","321009.123701","321775.896116","322525.199935","323291.5831","324058.717247","310225.587607","314126.235727","314875.252015","315642.182726","316408.398319","317175.131777","317941.978393","318708.864274","319475.538062","323300.467501","Mapping"
"Mixed","Both","done","39","m150romp.wav","None","738.152560312","167","313359.431777","320242.632326","321009.123701","321775.896116","322525.199935","323291.5831","324058.717247","324825.004568","314126.235727","314875.252015","315642.182726","316408.398319","317175.131777","317941.978393","318708.864274","319475.538062","324062.419596","Mapping"
"Mixed","Both","tile","31","m150greet.wav","None","732.177479193","167","327959.187592","320242.632326","321009.123701","321775.896116","322525.199935","323291.5831","324058.717247","324825.004568","314126.235727","314875.252015","315642.182726","316408.398319","317175.131777","317941.978393","318708.864274","319475.538062","324833.823733","Mapping"
"Mixed","Both","tile","31","m150cling.wav","None","721.191009507","167","327959.187592","320242.632326","321009.123701","321775.896116","322525.199935","323291.5831","324058.717247","324825.004568","328725.870655","314875.252015","315642.182726","316408.398319","317175.131777","317941.978393","318708.864274","319475.538062","327968.720329","Mapping"
"Mixed","Both","tile","31","m160ball.wav","None","719.614225905","167","327959.187592","320242.632326","321009.123701","321775.896116","322525.199935","323291.5831","324058.717247","324825.004568","328725.870655","329492.383673","315642.182726","316408.398319","317175.131777","317941.978393","318708.864274","319475.538062","328735.869007","Mapping"
"Mixed","Both","tile","31","m150greet.wav","None","718.749159016","167","327959.187592","320242.632326","321009.123701","321775.896116","322525.199935","323291.5831","324058.717247","324825.004568","328725.870655","329492.383673","330241.881035","316408.398319","317175.131777","317941.978393","318708.864274","319475.538062","329502.356364","Mapping"
"Mixed","Both","tile","31","m160tile.wav","None","735.808718018","167","327959.187592","320242.632326","321009.123701","321775.896116","322525.199935","323291.5831","324058.717247","324825.004568","328725.870655","329492.383673","330241.881035","331008.41755","317175.131777","317941.978393","318708.864274","319475.538062","330250.860352","Mapping"
"Mixed","Both","tile","31","m160done.wav","space","357.16028139","167","327959.187592","320242.632326","321009.123701","321775.896116","322525.199935","323291.5831","324058.717247","324825.004568","328725.870655","329492.383673","330241.881035","331008.41755","331775.218408","317941.978393","318708.864274","319475.538062","331017.575878","Mapping"
"Mixed","Both","tile","31","m160reek.wav","None","731.167719234","167","327959.187592","320242.632326","321009.123701","321775.896116","322525.199935","323291.5831","324058.717247","324825.004568","328725.870655","329492.383673","330241.881035","331008.41755","331775.218408","332541.852003","318708.864274","319475.538062","331785.030329","Mapping"
"Mixed","Both","tile","31","m150greet.wav","None","730.843396857","167","327959.187592","320242.632326","321009.123701","321775.896116","322525.199935","323291.5831","324058.717247","324825.004568","328725.870655","329492.383673","330241.881035","331008.41755","331775.218408","332541.852003","333308.506313","319475.538062","332550.884498","Mapping"
"Mixed","Both","tile","31","m150tile.wav","None","729.936282616","167","327959.187592","320242.632326","321009.123701","321775.896116","322525.199935","323291.5831","324058.717247","324825.004568","328725.870655","329492.383673","330241.881035","331008.41755","331775.218408","332541.852003","333308.506313","334074.805074","333317.569107","Mapping"
"Mixed","Both","tile","31","m160done.wav","space","539.198369719","167","327959.187592","334841.551209","321009.123701","321775.896116","322525.199935","323291.5831","324058.717247","324825.004568","328725.870655","329492.383673","330241.881035","331008.41755","331775.218408","332541.852003","333308.506313","334074.805074","334083.507063","Mapping"
"Mixed","Both","tile","31","m150lash.wav","None","726.653481368","167","327959.187592","334841.551209","335608.583019","321775.896116","322525.199935","323291.5831","324058.717247","324825.004568","328725.870655","329492.383673","330241.881035","331008.41755","331775.218408","332541.852003","333308.506313","334074.805074","334850.571955","Mapping"
"Mixed","Both","tile","31","m160tile.wav","None","725.219536107","167","327959.187592","334841.551209","335608.583019","336375.518058","322525.199935","323291.5831","324058.717247","324825.004568","328725.870655","329492.383673","330241.881035","331008.41755","331775.218408","332541.852003","333308.506313","334074.805074","335617.62448","Mapping"
"Mixed","Both","tile","31","m150lash.wav","space","509.427154902","167","327959.187592","334841.551209","335608.583019","336375.518058","337142.18319","323291.5831","324058.717247","324825.004568","328725.870655","329492.383673","330241.881035","331008.41755","331775.218408","332541.852003","333308.506313","334074.805074","336385.248048","Mapping"
"Mixed","Both","tile","31","m160bluff.wav","None","721.481941175","167","327959.187592","334841.551209","335608.583019","336375.518058","337142.18319","337908.95313","324058.717247","324825.004568","328725.870655","329492.383673","330241.881035","331008.41755","331775.218408","332541.852003","333308.506313","334074.805074","337151.533515","Mapping"
"Mixed","Both","tile","31","m150tile.wav","None","720.282967668","167","327959.187592","334841.551209","335608.583019","336375.518058","337142.18319","337908.95313","338674.937771","324825.004568","328725.870655","329492.383673","330241.881035","331008.41755","331775.218408","332541.852003","333308.506313","334074.805074","337918.370237","Mapping"
"Mixed","Both","tile","31","m160gnash.wav","space","354.924031533","167","327959.187592","334841.551209","335608.583019","336375.518058","337142.18319","337908.95313","338674.937771","339441.662264","328725.870655","329492.383673","330241.881035","331008.41755","331775.218408","332541.852003","333308.506313","334074.805074","338683.673769","Mapping"
"Mixed","Both","tile","36","m160dime.wav","None","721.651677508","167","342558.740589","334841.551209","335608.583019","336375.518058","337142.18319","337908.95313","338674.937771","339441.662264","328725.870655","329492.383673","330241.881035","331008.41755","331775.218408","332541.852003","333308.506313","334074.805074","339450.45886","Mapping"
"Mixed","Both","tile","36","m160reek.wav","None","721.251298208","167","342558.740589","334841.551209","335608.583019","336375.518058","337142.18319","337908.95313","338674.937771","339441.662264","343325.451787","329492.383673","330241.881035","331008.41755","331775.218408","332541.852003","333308.506313","334074.805074","342568.349693","Mapping"
"Mixed","Both","tile","36","m160romp.wav","None","720.11013981","167","342558.740589","334841.551209","335608.583019","336375.518058","337142.18319","337908.95313","338674.937771","339441.662264","343325.451787","344092.083528","330241.881035","331008.41755","331775.218408","332541.852003","333308.506313","334074.805074","343334.892391","Mapping"
"Mixed","Both","tile","36","m150tile.wav","None","718.477087095","167","342558.740589","334841.551209","335608.583019","336375.518058","337142.18319","337908.95313","338674.937771","339441.662264","343325.451787","344092.083528","344841.482263","331008.41755","331775.218408","332541.852003","333308.506313","334074.805074","344102.256253","Mapping"
"Mixed","Both","tile","36","m160romp.wav","space","380.005707033","167","342558.740589","334841.551209","335608.583019","336375.518058","337142.18319","337908.95313","338674.937771","339441.662264","343325.451787","344092.083528","344841.482263","345608.192842","331775.218408","332541.852003","333308.506313","334074.805074","344850.501773","Mapping"
"Mixed","Both","tile","36","m150gnash.wav","None","733.262985945","167","342558.740589","334841.551209","335608.583019","336375.518058","337142.18319","337908.95313","338674.937771","339441.662264","343325.451787","344092.083528","344841.482263","345608.192842","346374.644644","332541.852003","333308.506313","334074.805074","345617.274496","Mapping"
"Mixed","Both","tile","36","m160tile.wav","None","733.147355728","167","342558.740589","334841.551209","335608.583019","336375.518058","337142.18319","337908.95313","338674.937771","339441.662264","343325.451787","344092.083528","344841.482263","345608.192842","346374.644644","347141.671817","333308.506313","334074.805074","346383.322208","Mapping"
"Mixed","Both","tile","36","m150gnash.wav","None","731.055180542","167","342558.740589","334841.551209","335608.583019","336375.518058","337142.18319","337908.95313","338674.937771","339441.662264","343325.451787","344092.083528","344841.482263","345608.192842","346374.644644","347141.671817","347908.343441","334074.805074","347151.008848","Mapping"
"Mixed","Both","tile","36","m160lash.wav","space","496.500932146","167","342558.740589","334841.551209","335608.583019","336375.518058","337142.18319","337908.95313","338674.937771","339441.662264","343325.451787","344092.083528","344841.482263","345608.192842","346374.644644","347141.671817","347908.343441","348674.900361","347917.93554","Mapping"
"Mixed","Both","tile","36","m150depth.wav","None","727.737443056","167","342558.740589","349441.479851","335608.583019","336375.518058","337142.18319","337908.95313","338674.937771","339441.662264","343325.451787","344092.083528","344841.482263","345608.192842","346374.644644","347141.671817","347908.343441","348674.900361","348684.317468","Mapping"
"Mixed","Both","tile","36","m150tile.wav","None","727.3454112","167","342558.740589","349441.479851","350207.934745","336375.518058","337142.18319","337908.95313","338674.937771","339441.662264","343325.451787","344092.083528","344841.482263","345608.192842","346374.644644","347141.671817","347908.343441","348674.900361","349450.508018","Mapping"
"Mixed","Both","tile","36","m150cling.wav","space","389.656548854","167","342558.740589","349441.479851","350207.934745","350975.23028","337142.18319","337908.95313","338674.937771","339441.662264","343325.451787","344092.083528","344841.482263","345608.192842","346374.644644","347141.671817","347908.343441","348674.900361","350216.752055","Mapping"
"Mixed","Both","tile","36","m150bluff.wav","None","722.759754397","167","342558.740589","349441.479851","350207.934745","350975.23028","351741.832649","337908.95313","338674.937771","339441.662264","343325.451787","344092.083528","344841.482263","345608.192842","346374.644644","347141.671817","347908.343441","348674.900361","350984.82176","Mapping"
"Mixed","Both","tile","36","m160tile.wav","None","721.292418428","167","342558.740589","349441.479851","350207.934745","350975.23028","351741.832649","352508.654222","338674.937771","339441.662264","343325.451787","344092.083528","344841.482263","345608.192842","346374.644644","347141.671817","347908.343441","348674.900361","351751.97353","Mapping"
"Mixed","Both","tile","36","m150lash.wav","space","336.075287312","167","342558.740589","349441.479851","350207.934745","350975.23028","351741.832649","352508.654222","353275.287817","339441.662264","343325.451787","344092.083528","344841.482263","345608.192842","346374.644644","347141.671817","347908.343441","348674.900361","352518.270745","Mapping"
"Mixed","Both","tile","36","m160jaw.wav","None","718.543868512","167","342558.740589","349441.479851","350207.934745","350975.23028","351741.832649","352508.654222","353275.287817","354024.560101","343325.451787","344092.083528","344841.482263","345608.192842","346374.644644","347141.671817","347908.343441","348674.900361","353285.38294","Mapping"
"Mixed","Both","ball","11","m150depth.wav","None","735.893740784","167","357158.483419","349441.479851","350207.934745","350975.23028","351741.832649","352508.654222","353275.287817","354024.560101","343325.451787","344092.083528","344841.482263","345608.192842","346374.644644","347141.671817","347908.343441","348674.900361","354033.674527","Mapping"
"Mixed","Both","ball","11","m150jolt.wav","None","721.187917516","167","357158.483419","349441.479851","350207.934745","350975.23028","351741.832649","352508.654222","353275.287817","354024.560101","357925.396816","344092.083528","344841.482263","345608.192842","346374.644644","347141.671817","347908.343441","348674.900361","357168.128077","Mapping"
"Mixed","Both","ball","11","m160gnash.wav","None","719.733566977","167","357158.483419","349441.479851","350207.934745","350975.23028","351741.832649","352508.654222","353275.287817","354024.560101","357925.396816","358691.405882","344841.482263","345608.192842","346374.644644","347141.671817","347908.343441","348674.900361","357935.160197","Mapping"
"Mixed","Both","ball","11","m150ball.wav","None","720.423950348","167","357158.483419","349441.479851","350207.934745","350975.23028","351741.832649","352508.654222","353275.287817","354024.560101","357925.396816","358691.405882","359440.885002","345608.192842","346374.644644","347141.671817","347908.343441","348674.900361","358700.343461","Mapping"
"Mixed","Both","ball","11","m150cad.wav","space","388.473342638","167","357158.483419","349441.479851","350207.934745","350975.23028","351741.832649","352508.654222","353275.287817","354024.560101","357925.396816","358691.405882","359440.885002","360207.983594","346374.644644","347141.671817","347908.343441","348674.900361","359449.738486","Mapping"
"Mixed","Both","ball","11","m160ball.wav","None","732.4900534","167","357158.483419","349441.479851","350207.934745","350975.23028","351741.832649","352508.654222","353275.287817","354024.560101","357925.396816","358691.405882","359440.885002","360207.983594","360974.347281","347141.671817","347908.343441","348674.900361","360217.910218","Mapping"
"Mixed","Both","ball","11","m160done.wav","space","535.154384095","167","357158.483419","349441.479851","350207.934745","350975.23028","351741.832649","352508.654222","353275.287817","354024.560101","357925.396816","358691.405882","359440.885002","360207.983594","360974.347281","361741.359614","347908.343441","348674.900361","360983.054217","Mapping"
"Mixed","Both","ball","11","m150jolt.wav","None","728.789249901","167","357158.483419","349441.479851","350207.934745","350975.23028","351741.832649","352508.654222","353275.287817","354024.560101","357925.396816","358691.405882","359440.885002","360207.983594","360974.347281","361741.359614","362508.122134","348674.900361","361751.056522","Mapping"
"Mixed","Both","ball","11","m160ball.wav","None","728.404019959","167","357158.483419","349441.479851","350207.934745","350975.23028","351741.832649","352508.654222","353275.287817","354024.560101","357925.396816","358691.405882","359440.885002","360207.983594","360974.347281","361741.359614","362508.122134","363274.298463","362517.098051","Mapping"
"Mixed","Both","ball","11","m160lash.wav","space","314.786548261","167","357158.483419","364041.004096","350207.934745","350975.23028","351741.832649","352508.654222","353275.287817","354024.560101","357925.396816","358691.405882","359440.885002","360207.983594","360974.347281","361741.359614","362508.122134","363274.298463","363283.372078","Mapping"
"Mixed","Both","ball","11","m160jaw.wav","None","725.98999599","167","357158.483419","364041.004096","364808.151537","350975.23028","351741.832649","352508.654222","353275.287817","354024.560101","357925.396816","358691.405882","359440.885002","360207.983594","360974.347281","361741.359614","362508.122134","363274.298463","364049.709176","Mapping"
"Mixed","Both","ball","11","m150cad.wav","None","723.297715187","167","357158.483419","364041.004096","364808.151537","365574.817905","351741.832649","352508.654222","353275.287817","354024.560101","357925.396816","358691.405882","359440.885002","360207.983594","360974.347281","361741.359614","362508.122134","363274.298463","364818.094238","Mapping"
"Mixed","Both","ball","11","m160reek.wav","None","722.778922878","167","357158.483419","364041.004096","364808.151537","365574.817905","366341.625565","352508.654222","353275.287817","354024.560101","357925.396816","358691.405882","359440.885002","360207.983594","360974.347281","361741.359614","362508.122134","363274.298463","365584.515122","Mapping"
"Mixed","Both","ball","11","m150ball.wav","None","721.906126942","167","357158.483419","364041.004096","364808.151537","365574.817905","366341.625565","367108.423331","353275.287817","354024.560101","357925.396816","358691.405882","359440.885002","360207.983594","360974.347281","361741.359614","362508.122134","363274.298463","366351.125221","Mapping"
