"Condition","Talker","Target","Trial","current_stimulus","response_response","response_time_response","subject_nr","time_Audio1","time_Audio10","time_Audio11","time_Audio12","time_Audio13","time_Audio14","time_Audio15","time_Audio16","time_Audio2","time_Audio3","time_Audio4","time_Audio5","time_Audio6","time_Audio7","time_Audio8","time_Audio9","time_response","title"
"Mixed","Both","done","41","m160jolt.wav","NA","NA","176","93432.825618","NA","NA","NA","NA","NA","NA","NA","NA","NA","NA","NA","NA","NA","NA","NA","NA","Mapping"
"Mixed","Both","done","41","m150tile.wav","None","731.367398519","176","93432.825618","NA","NA","NA","NA","NA","NA","NA","94200.8621446","NA","NA","NA","NA","NA","NA","NA","93447.3382528","Mapping"
"Mixed","Both","done","41","m160depth.wav","space","18.3917596005","176","93432.825618","NA","NA","NA","NA","NA","NA","NA","94200.8621446","94967.6057319","NA","NA","NA","NA","NA","NA","94209.8731422","Mapping"
"Mixed","Both","done","41","m160romp.wav","None","728.462151252","176","93432.825618","NA","NA","NA","NA","NA","NA","NA","94200.8621446","94967.6057319","95734.5941802","NA","NA","NA","NA","NA","94977.4397337","Mapping"
"Mixed","Both","done","41","m150greet.wav","None","726.523980033","176","93432.825618","NA","NA","NA","NA","NA","NA","NA","94200.8621446","94967.6057319","95734.5941802","96501.9882564","NA","NA","NA","NA","95743.6224911","Mapping"
"Mixed","Both","done","41","m150done.wav","None","722.79016301","176","93432.825618","NA","NA","NA","NA","NA","NA","NA","94200.8621446","94967.6057319","95734.5941802","96501.9882564","97252.4863253","NA","NA","NA","96511.0901492","Mapping"
"Mixed","Both","done","41","m160reek.wav","space","406.279873103","176","93432.825618","NA","NA","NA","NA","NA","NA","NA","94200.8621446","94967.6057319","95734.5941802","96501.9882564","97252.4863253","98019.9243031","NA","NA","97261.8726525","Mapping"
"Mixed","Both","done","41","m150done.wav","None","732.061788905","176","93432.825618","NA","NA","NA","NA","NA","NA","NA","94200.8621446","94967.6057319","95734.5941802","96501.9882564","97252.4863253","98019.9243031","98786.9099691","NA","98028.8833608","Mapping"
"Mixed","Both","done","41","m150cave.wav","space","328.43488222","176","93432.825618","NA","NA","NA","NA","NA","NA","NA","94200.8621446","94967.6057319","95734.5941802","96501.9882564","97252.4863253","98019.9243031","98786.9099691","99554.4369873","98795.6903279","Mapping"
"Mixed","Both","done","41","m160done.wav","None","724.748121109","176","93432.825618","100321.573836","NA","NA","NA","NA","NA","NA","94200.8621446","94967.6057319","95734.5941802","96501.9882564","97252.4863253","98019.9243031","98786.9099691","99554.4369873","99563.8270243","Mapping"
"Mixed","Both","done","41","m150cave.wav","space","241.556942929","176","93432.825618","100321.573836","101072.02522","NA","NA","NA","NA","NA","94200.8621446","94967.6057319","95734.5941802","96501.9882564","97252.4863253","98019.9243031","98786.9099691","99554.4369873","100330.472606","Mapping"
"Mixed","Both","done","41","m150knife.wav","None","734.404660761","176","93432.825618","100321.573836","101072.02522","101839.330256","NA","NA","NA","NA","94200.8621446","94967.6057319","95734.5941802","96501.9882564","97252.4863253","98019.9243031","98786.9099691","99554.4369873","101080.960163","Mapping"
"Mixed","Both","done","41","m150jaw.wav","space","291.323645506","176","93432.825618","100321.573836","101072.02522","101839.330256","102606.761124","NA","NA","NA","94200.8621446","94967.6057319","95734.5941802","96501.9882564","97252.4863253","98019.9243031","98786.9099691","99554.4369873","101848.685976","Mapping"
"Mixed","Both","done","41","m160done.wav","None","727.012464777","176","93432.825618","100321.573836","101072.02522","101839.330256","102606.761124","103373.863963","NA","NA","94200.8621446","94967.6057319","95734.5941802","96501.9882564","97252.4863253","98019.9243031","98786.9099691","99554.4369873","102616.185169","Mapping"
"Mixed","Both","done","41","m160jolt.wav","space","469.078915659","176","93432.825618","100321.573836","101072.02522","101839.330256","102606.761124","103373.863963","104124.781882","NA","94200.8621446","94967.6057319","95734.5941802","96501.9882564","97252.4863253","98019.9243031","98786.9099691","99554.4369873","103382.833224","Mapping"
"Mixed","Both","done","41","m160depth.wav","None","735.344530083","176","93432.825618","100321.573836","101072.02522","101839.330256","102606.761124","103373.863963","104124.781882","104891.805884","94200.8621446","94967.6057319","95734.5941802","96501.9882564","97252.4863253","98019.9243031","98786.9099691","99554.4369873","104134.685137","Mapping"
"Mixed","Both","cave","16","m150ball.wav","None","732.915709727","176","108027.354218","100321.573836","101072.02522","101839.330256","102606.761124","103373.863963","104124.781882","104891.805884","94200.8621446","94967.6057319","95734.5941802","96501.9882564","97252.4863253","98019.9243031","98786.9099691","99554.4369873","104901.092969","Mapping"
"Mixed","Both","cave","16","m160cave.wav","None","736.35767214","176","108027.354218","100321.573836","101072.02522","101839.330256","102606.761124","103373.863963","104124.781882","104891.805884","108794.057923","94967.6057319","95734.5941802","96501.9882564","97252.4863253","98019.9243031","98786.9099691","99554.4369873","108036.449619","Mapping"
"Mixed","Both","cave","16","m150greet.wav","space","576.427457388","176","108027.354218","100321.573836","101072.02522","101839.330256","102606.761124","103373.863963","104124.781882","104891.805884","108794.057923","109562.411655","95734.5941802","96501.9882564","97252.4863253","98019.9243031","98786.9099691","99554.4369873","108803.331095","Mapping"
"Mixed","Both","cave","16","m160cling.wav","None","727.882152889","176","108027.354218","100321.573836","101072.02522","101839.330256","102606.761124","103373.863963","104124.781882","104891.805884","108794.057923","109562.411655","110329.76523","96501.9882564","97252.4863253","98019.9243031","98786.9099691","99554.4369873","109572.416626","Mapping"
"Mixed","Both","cave","16","m160dime.wav","None","725.549483206","176","108027.354218","100321.573836","101072.02522","101839.330256","102606.761124","103373.863963","104124.781882","104891.805884","108794.057923","109562.411655","110329.76523","111096.255919","97252.4863253","98019.9243031","98786.9099691","99554.4369873","110339.101472","Mapping"
"Mixed","Both","cave","16","m150cave.wav","None","723.029149696","176","108027.354218","100321.573836","101072.02522","101839.330256","102606.761124","103373.863963","104124.781882","104891.805884","108794.057923","109562.411655","110329.76523","111096.255919","111846.803764","98019.9243031","98786.9099691","99554.4369873","111105.214667","Mapping"
"Mixed","Both","cave","16","m160jolt.wav","space","403.233027086","176","108027.354218","100321.573836","101072.02522","101839.330256","102606.761124","103373.863963","104124.781882","104891.805884","108794.057923","109562.411655","110329.76523","111096.255919","111846.803764","112614.16785","98786.9099691","99554.4369873","111856.373736","Mapping"
"Mixed","Both","cave","16","m150tile.wav","None","732.604996767","176","108027.354218","100321.573836","101072.02522","101839.330256","102606.761124","103373.863963","104124.781882","104891.805884","108794.057923","109562.411655","110329.76523","111096.255919","111846.803764","112614.16785","113381.254614","99554.4369873","112623.146695","Mapping"
"Mixed","Both","cave","16","m160gnash.wav","None","729.152212851","176","108027.354218","100321.573836","101072.02522","101839.330256","102606.761124","103373.863963","104124.781882","104891.805884","108794.057923","109562.411655","110329.76523","111096.255919","111846.803764","112614.16785","113381.254614","114148.522859","113390.234386","Mapping"
"Mixed","Both","cave","16","m160cave.wav","None","726.037659217","176","108027.354218","114915.808108","101072.02522","101839.330256","102606.761124","103373.863963","104124.781882","104891.805884","108794.057923","109562.411655","110329.76523","111096.255919","111846.803764","112614.16785","113381.254614","114148.522859","114157.46213","Mapping"
"Mixed","Both","cave","16","m150priest.wav","space","373.286748305","176","108027.354218","114915.808108","115666.168598","101839.330256","102606.761124","103373.863963","104124.781882","104891.805884","108794.057923","109562.411655","110329.76523","111096.255919","111846.803764","112614.16785","113381.254614","114148.522859","114926.21036","Mapping"
"Mixed","Both","cave","16","m150tile.wav","None","735.13244139","176","108027.354218","114915.808108","115666.168598","116433.271129","102606.761124","103373.863963","104124.781882","104891.805884","108794.057923","109562.411655","110329.76523","111096.255919","111846.803764","112614.16785","113381.254614","114148.522859","115675.234936","Mapping"
"Mixed","Both","cave","16","m150knife.wav","None","731.752621476","176","108027.354218","114915.808108","115666.168598","116433.271129","117200.720546","103373.863963","104124.781882","104891.805884","108794.057923","109562.411655","110329.76523","111096.255919","111846.803764","112614.16785","113381.254614","114148.522859","116442.168043","Mapping"
"Mixed","Both","cave","16","m160greet.wav","None","728.283143137","176","108027.354218","114915.808108","115666.168598","116433.271129","117200.720546","117967.894495","104124.781882","104891.805884","108794.057923","109562.411655","110329.76523","111096.255919","111846.803764","112614.16785","113381.254614","114148.522859","117210.09296","Mapping"
"Mixed","Both","cave","16","m150cave.wav","None","724.42751471","176","108027.354218","114915.808108","115666.168598","116433.271129","117200.720546","117967.894495","118735.026396","104891.805884","108794.057923","109562.411655","110329.76523","111096.255919","111846.803764","112614.16785","113381.254614","114148.522859","117977.593699","Mapping"
"Mixed","Both","cave","16","m160jolt.wav","space","618.692209013","176","108027.354218","114915.808108","115666.168598","116433.271129","117200.720546","117967.894495","118735.026396","119485.48211","108794.057923","109562.411655","110329.76523","111096.255919","111846.803764","112614.16785","113381.254614","114148.522859","118744.656348","Mapping"
"Mixed","Both","done","37","m150jaw.wav","None","734.309437219","176","122604.863453","114915.808108","115666.168598","116433.271129","117200.720546","117967.894495","118735.026396","119485.48211","108794.057923","109562.411655","110329.76523","111096.255919","111846.803764","112614.16785","113381.254614","114148.522859","119494.677989","Mapping"
"Mixed","Both","done","37","m150cad.wav","None","735.994709656","176","122604.863453","114915.808108","115666.168598","116433.271129","117200.720546","117967.894495","118735.026396","119485.48211","123371.678767","109562.411655","110329.76523","111096.255919","111846.803764","112614.16785","113381.254614","114148.522859","122614.368809","Mapping"
"Mixed","Both","done","37","m160depth.wav","None","734.12362719","176","122604.863453","114915.808108","115666.168598","116433.271129","117200.720546","117967.894495","118735.026396","119485.48211","123371.678767","124139.271947","110329.76523","111096.255919","111846.803764","112614.16785","113381.254614","114148.522859","123380.916385","Mapping"
"Mixed","Both","done","37","m150done.wav","None","729.853405152","176","122604.863453","114915.808108","115666.168598","116433.271129","117200.720546","117967.894495","118735.026396","119485.48211","123371.678767","124139.271947","124906.177229","111096.255919","111846.803764","112614.16785","113381.254614","114148.522859","124148.788434","Mapping"
"Mixed","Both","done","37","m150knife.wav","space","384.150586557","176","122604.863453","114915.808108","115666.168598","116433.271129","117200.720546","117967.894495","118735.026396","119485.48211","123371.678767","124139.271947","124906.177229","125673.507617","111846.803764","112614.16785","113381.254614","114148.522859","124915.010147","Mapping"
"Mixed","Both","done","37","m160done.wav","None","722.71039756","176","122604.863453","114915.808108","115666.168598","116433.271129","117200.720546","117967.894495","118735.026396","119485.48211","123371.678767","124139.271947","124906.177229","125673.507617","126440.666107","112614.16785","113381.254614","114148.522859","125683.183943","Mapping"
"Mixed","Both","done","37","m160knife.wav","space","497.347960714","176","122604.863453","114915.808108","115666.168598","116433.271129","117200.720546","117967.894495","118735.026396","119485.48211","123371.678767","124139.271947","124906.177229","125673.507617","126440.666107","127191.442118","113381.254614","114148.522859","126449.710805","Mapping"
"Mixed","Both","done","37","m150gnash.wav","None","734.022220597","176","122604.863453","114915.808108","115666.168598","116433.271129","117200.720546","117967.894495","118735.026396","119485.48211","123371.678767","124139.271947","124906.177229","125673.507617","126440.666107","127191.442118","127958.599681","114148.522859","127199.800463","Mapping"
"Mixed","Both","done","37","m150done.wav","None","729.884631","176","122604.863453","114915.808108","115666.168598","116433.271129","117200.720546","117967.894495","118735.026396","119485.48211","123371.678767","124139.271947","124906.177229","125673.507617","126440.666107","127191.442118","127958.599681","128725.612553","127967.638504","Mapping"
"Mixed","Both","done","37","m150romp.wav","space","459.894784261","176","122604.863453","129493.046512","115666.168598","116433.271129","117200.720546","117967.894495","118735.026396","119485.48211","123371.678767","124139.271947","124906.177229","125673.507617","126440.666107","127191.442118","127958.599681","128725.612553","128735.132132","Mapping"
"Mixed","Both","done","37","m160romp.wav","None","726.039204746","176","122604.863453","129493.046512","130243.673195","116433.271129","117200.720546","117967.894495","118735.026396","119485.48211","123371.678767","124139.271947","124906.177229","125673.507617","126440.666107","127191.442118","127958.599681","128725.612553","129499.555108","Mapping"
"Mixed","Both","done","37","m160gnash.wav","None","736.662511714","176","122604.863453","129493.046512","130243.673195","131010.7074","117200.720546","117967.894495","118735.026396","119485.48211","123371.678767","124139.271947","124906.177229","125673.507617","126440.666107","127191.442118","127958.599681","128725.612553","130252.645237","Mapping"
"Mixed","Both","done","37","m160jaw.wav","None","733.007841744","176","122604.863453","129493.046512","130243.673195","131010.7074","131778.150943","117967.894495","118735.026396","119485.48211","123371.678767","124139.271947","124906.177229","125673.507617","126440.666107","127191.442118","127958.599681","128725.612553","131019.999431","Mapping"
"Mixed","Both","done","37","m160done.wav","None","729.058535304","176","122604.863453","129493.046512","130243.673195","131010.7074","131778.150943","132545.077558","118735.026396","119485.48211","123371.678767","124139.271947","124906.177229","125673.507617","126440.666107","127191.442118","127958.599681","128725.612553","131787.720606","Mapping"
"Mixed","Both","done","37","m150lash.wav","space","392.68422965","176","122604.863453","129493.046512","130243.673195","131010.7074","131778.150943","132545.077558","133312.488947","119485.48211","123371.678767","124139.271947","124906.177229","125673.507617","126440.666107","127191.442118","127958.599681","128725.612553","132554.234792","Mapping"
"Mixed","Both","done","37","m160romp.wav","None","723.338935059","176","122604.863453","129493.046512","130243.673195","131010.7074","131778.150943","132545.077558","133312.488947","134062.780492","123371.678767","124139.271947","124906.177229","125673.507617","126440.666107","127191.442118","127958.599681","128725.612553","133321.694102","Mapping"
"Mixed","Both","cave","15","m150priest.wav","None","736.907990649","176","137182.001996","129493.046512","130243.673195","131010.7074","131778.150943","132545.077558","133312.488947","134062.780492","123371.678767","124139.271947","124906.177229","125673.507617","126440.666107","127191.442118","127958.599681","128725.612553","134071.815914","Mapping"
"Mixed","Both","cave","15","m150park.wav","None","735.932257958","176","137182.001996","129493.046512","130243.673195","131010.7074","131778.150943","132545.077558","133312.488947","134062.780492","137948.859357","124139.271947","124906.177229","125673.507617","126440.666107","127191.442118","127958.599681","128725.612553","137191.74201","Mapping"
"Mixed","Both","cave","15","m150cave.wav","None","733.754172456","176","137182.001996","129493.046512","130243.673195","131010.7074","131778.150943","132545.077558","133312.488947","134062.780492","137948.859357","138716.392249","124906.177229","125673.507617","126440.666107","127191.442118","127958.599681","128725.612553","137957.712988","Mapping"
"Mixed","Both","cave","15","m160romp.wav","space","340.735422913","176","137182.001996","129493.046512","130243.673195","131010.7074","131778.150943","132545.077558","133312.488947","134062.780492","137948.859357","138716.392249","139483.690483","125673.507617","126440.666107","127191.442118","127958.599681","128725.612553","138725.93316","Mapping"
"Mixed","Both","cave","15","m150cave.wav","None","725.910282228","176","137182.001996","129493.046512","130243.673195","131010.7074","131778.150943","132545.077558","133312.488947","134062.780492","137948.859357","138716.392249","139483.690483","140250.616789","126440.666107","127191.442118","127958.599681","128725.612553","139493.24036","Mapping"
"Mixed","Both","cave","15","m150romp.wav","space","438.957957085","176","137182.001996","129493.046512","130243.673195","131010.7074","131778.150943","132545.077558","133312.488947","134062.780492","137948.859357","138716.392249","139483.690483","140250.616789","141000.984389","127191.442118","127958.599681","128725.612553","140259.706315","Mapping"
"Mixed","Both","cave","15","m160romp.wav","None","736.003984697","176","137182.001996","129493.046512","130243.673195","131010.7074","131778.150943","132545.077558","133312.488947","134062.780492","137948.859357","138716.392249","139483.690483","140250.616789","141000.984389","141768.575096","127958.599681","128725.612553","141010.182742","Mapping"
"Mixed","Both","cave","15","m160cave.wav","None","731.947396882","176","137182.001996","129493.046512","130243.673195","131010.7074","131778.150943","132545.077558","133312.488947","134062.780492","137948.859357","138716.392249","139483.690483","140250.616789","141000.984389","141768.575096","142535.59477","128725.612553","141777.951839","Mapping"
"Mixed","Both","cave","15","m150gnash.wav","None","729.487350676","176","137182.001996","129493.046512","130243.673195","131010.7074","131778.150943","132545.077558","133312.488947","134062.780492","137948.859357","138716.392249","139483.690483","140250.616789","141000.984389","141768.575096","142535.59477","143303.111895","142544.68275","Mapping"
"Mixed","Both","cave","15","m150romp.wav","None","725.466626696","176","137182.001996","144069.94916","130243.673195","131010.7074","131778.150943","132545.077558","133312.488947","134062.780492","137948.859357","138716.392249","139483.690483","140250.616789","141000.984389","141768.575096","142535.59477","143303.111895","143312.594373","Mapping"
"Mixed","Both","cave","15","m160bluff.wav","None","722.723691724","176","137182.001996","144069.94916","144820.558529","131010.7074","131778.150943","132545.077558","133312.488947","134062.780492","137948.859357","138716.392249","139483.690483","140250.616789","141000.984389","141768.575096","142535.59477","143303.111895","144079.020755","Mapping"
"Mixed","Both","cave","15","m150reek.wav","None","735.847545788","176","137182.001996","144069.94916","144820.558529","145588.027115","131778.150943","132545.077558","133312.488947","134062.780492","137948.859357","138716.392249","139483.690483","140250.616789","141000.984389","141768.575096","142535.59477","143303.111895","144829.719164","Mapping"
"Mixed","Both","cave","15","m160cave.wav","None","731.842898298","176","137182.001996","144069.94916","144820.558529","145588.027115","146355.027621","132545.077558","133312.488947","134062.780492","137948.859357","138716.392249","139483.690483","140250.616789","141000.984389","141768.575096","142535.59477","143303.111895","145598.084026","Mapping"
"Mixed","Both","cave","15","m160romp.wav","space","422.061949503","176","137182.001996","144069.94916","144820.558529","145588.027115","146355.027621","147122.455705","133312.488947","134062.780492","137948.859357","138716.392249","139483.690483","140250.616789","141000.984389","141768.575096","142535.59477","143303.111895","146364.339439","Mapping"
"Mixed","Both","cave","15","m160knife.wav","None","725.259175058","176","137182.001996","144069.94916","144820.558529","145588.027115","146355.027621","147122.455705","147889.655006","134062.780492","137948.859357","138716.392249","139483.690483","140250.616789","141000.984389","141768.575096","142535.59477","143303.111895","147131.744954","Mapping"
"Mixed","Both","cave","15","m160depth.wav","None","721.670667175","176","137182.001996","144069.94916","144820.558529","145588.027115","146355.027621","147122.455705","147889.655006","148639.749611","137948.859357","138716.392249","139483.690483","140250.616789","141000.984389","141768.575096","142535.59477","143303.111895","147899.175821","Mapping"
"Mixed","Both","ball","2","m150cling.wav","None","735.669156071","176","151775.813636","144069.94916","144820.558529","145588.027115","146355.027621","147122.455705","147889.655006","148639.749611","137948.859357","138716.392249","139483.690483","140250.616789","141000.984389","141768.575096","142535.59477","143303.111895","148649.585159","Mapping"
"Mixed","Both","ball","2","m160done.wav","None","720.055575948","176","151775.813636","144069.94916","144820.558529","145588.027115","146355.027621","147122.455705","147889.655006","148639.749611","152526.352824","138716.392249","139483.690483","140250.616789","141000.984389","141768.575096","142535.59477","143303.111895","151786.224854","Mapping"
"Mixed","Both","ball","2","m160knife.wav","None","733.683682047","176","151775.813636","144069.94916","144820.558529","145588.027115","146355.027621","147122.455705","147889.655006","148639.749611","152526.352824","153293.532956","139483.690483","140250.616789","141000.984389","141768.575096","142535.59477","143303.111895","152536.584106","Mapping"
"Mixed","Both","ball","2","m150depth.wav","None","731.035661884","176","151775.813636","144069.94916","144820.558529","145588.027115","146355.027621","147122.455705","147889.655006","148639.749611","152526.352824","153293.532956","154060.594677","140250.616789","141000.984389","141768.575096","142535.59477","143303.111895","153302.960712","Mapping"
"Mixed","Both","ball","2","m160priest.wav","None","727.925745305","176","151775.813636","144069.94916","144820.558529","145588.027115","146355.027621","147122.455705","147889.655006","148639.749611","152526.352824","153293.532956","154060.594677","154828.041003","141000.984389","141768.575096","142535.59477","143303.111895","154069.822093","Mapping"
"Mixed","Both","ball","2","m150ball.wav","None","724.977832753","176","151775.813636","144069.94916","144820.558529","145588.027115","146355.027621","147122.455705","147889.655006","148639.749611","152526.352824","153293.532956","154060.594677","154828.041003","155595.387158","141768.575096","142535.59477","143303.111895","154837.663534","Mapping"
"Mixed","Both","ball","2","m160cling.wav","space","396.355903707","176","151775.813636","144069.94916","144820.558529","145588.027115","146355.027621","147122.455705","147889.655006","148639.749611","152526.352824","153293.532956","154060.594677","154828.041003","155595.387158","156345.598629","142535.59477","143303.111895","155605.67409","Mapping"
"Mixed","Both","ball","2","m150park.wav","None","734.622314572","176","151775.813636","144069.94916","144820.558529","145588.027115","146355.027621","147122.455705","147889.655006","148639.749611","152526.352824","153293.532956","154060.594677","154828.041003","155595.387158","156345.598629","157112.94633","143303.111895","156355.411916","Mapping"
"Mixed","Both","ball","2","m160ball.wav","None","731.655542739","176","151775.813636","144069.94916","144820.558529","145588.027115","146355.027621","147122.455705","147889.655006","148639.749611","152526.352824","153293.532956","154060.594677","154828.041003","155595.387158","156345.598629","157112.94633","157880.034639","157122.221665","Mapping"
"Mixed","Both","ball","2","m150bluff.wav","space","608.704241458","176","151775.813636","158647.429643","144820.558529","145588.027115","146355.027621","147122.455705","147889.655006","148639.749611","152526.352824","153293.532956","154060.594677","154828.041003","155595.387158","156345.598629","157112.94633","157880.034639","157889.214751","Mapping"
"Mixed","Both","ball","2","m150cling.wav","None","724.331672303","176","151775.813636","158647.429643","159414.617195","145588.027115","146355.027621","147122.455705","147889.655006","148639.749611","152526.352824","153293.532956","154060.594677","154828.041003","155595.387158","156345.598629","157112.94633","157880.034639","158657.445126","Mapping"
"Mixed","Both","ball","2","m160ball.wav","None","721.918001305","176","151775.813636","158647.429643","159414.617195","160164.976447","146355.027621","147122.455705","147889.655006","148639.749611","152526.352824","153293.532956","154060.594677","154828.041003","155595.387158","156345.598629","157112.94633","157880.034639","159423.838117","Mapping"
"Mixed","Both","ball","2","m160reek.wav","space","587.645602413","176","151775.813636","158647.429643","159414.617195","160164.976447","160932.315801","147122.455705","147889.655006","148639.749611","152526.352824","153293.532956","154060.594677","154828.041003","155595.387158","156345.598629","157112.94633","157880.034639","160174.205408","Mapping"
"Mixed","Both","ball","2","m150dime.wav","None","732.244506944","176","151775.813636","158647.429643","159414.617195","160164.976447","160932.315801","161699.402564","147889.655006","148639.749611","152526.352824","153293.532956","154060.594677","154828.041003","155595.387158","156345.598629","157112.94633","157880.034639","160941.557438","Mapping"
"Mixed","Both","ball","2","m150ball.wav","None","728.555519599","176","151775.813636","158647.429643","159414.617195","160164.976447","160932.315801","161699.402564","162466.764487","148639.749611","152526.352824","153293.532956","154060.594677","154828.041003","155595.387158","156345.598629","157112.94633","157880.034639","161709.00129","Mapping"
"Mixed","Both","ball","2","m160greet.wav","space","308.97556711","176","151775.813636","158647.429643","159414.617195","160164.976447","160932.315801","161699.402564","162466.764487","163234.036751","152526.352824","153293.532956","154060.594677","154828.041003","155595.387158","156345.598629","157112.94633","157880.034639","162476.853552","Mapping"
"Mixed","Both","done","38","m160cling.wav","None","720.951234456","176","166336.243837","158647.429643","159414.617195","160164.976447","160932.315801","161699.402564","162466.764487","163234.036751","152526.352824","153293.532956","154060.594677","154828.041003","155595.387158","156345.598629","157112.94633","157880.034639","163244.161679","Mapping"
"Mixed","Both","done","38","m150cling.wav","None","735.894539393","176","166336.243837","158647.429643","159414.617195","160164.976447","160932.315801","161699.402564","162466.764487","163234.036751","167103.324726","153293.532956","154060.594677","154828.041003","155595.387158","156345.598629","157112.94633","157880.034639","166345.864512","Mapping"
"Mixed","Both","done","38","m150cling.wav","None","734.372507315","176","166336.243837","158647.429643","159414.617195","160164.976447","160932.315801","161699.402564","162466.764487","163234.036751","167103.324726","167870.650476","154060.594677","154828.041003","155595.387158","156345.598629","157112.94633","157880.034639","167112.446405","Mapping"
"Mixed","Both","done","38","m160done.wav","None","730.716291815","176","166336.243837","158647.429643","159414.617195","160164.976447","160932.315801","161699.402564","162466.764487","163234.036751","167103.324726","167870.650476","168637.895533","154828.041003","155595.387158","156345.598629","157112.94633","157880.034639","167880.174383","Mapping"
"Mixed","Both","done","38","m160lash.wav","space","353.777965531","176","166336.243837","158647.429643","159414.617195","160164.976447","160932.315801","161699.402564","162466.764487","163234.036751","167103.324726","167870.650476","168637.895533","169404.967457","155595.387158","156345.598629","157112.94633","157880.034639","168647.821358","Mapping"
"Mixed","Both","done","38","m160lash.wav","None","723.465694115","176","166336.243837","158647.429643","159414.617195","160164.976447","160932.315801","161699.402564","162466.764487","163234.036751","167103.324726","167870.650476","168637.895533","169404.967457","170172.614123","156345.598629","157112.94633","157880.034639","169414.977993","Mapping"
"Mixed","Both","done","38","m150done.wav","None","721.162705217","176","166336.243837","158647.429643","159414.617195","160164.976447","160932.315801","161699.402564","162466.764487","163234.036751","167103.324726","167870.650476","168637.895533","169404.967457","170172.614123","170922.985124","157112.94633","157880.034639","170181.945109","Mapping"
"Mixed","Both","done","38","m150gnash.wav","space","405.158522539","176","166336.243837","158647.429643","159414.617195","160164.976447","160932.315801","161699.402564","162466.764487","163234.036751","167103.324726","167870.650476","168637.895533","169404.967457","170172.614123","170922.985124","171690.177314","157880.034639","170932.317038","Mapping"
"Mixed","Both","done","38","m160jolt.wav","None","730.691249017","176","166336.243837","158647.429643","159414.617195","160164.976447","160932.315801","161699.402564","162466.764487","163234.036751","167103.324726","167870.650476","168637.895533","169404.967457","170172.614123","170922.985124","171690.177314","172457.635078","171699.971124","Mapping"
"Mixed","Both","done","38","m160done.wav","None","727.752302773","176","166336.243837","173224.626927","159414.617195","160164.976447","160932.315801","161699.402564","162466.764487","163234.036751","167103.324726","167870.650476","168637.895533","169404.967457","170172.614123","170922.985124","171690.177314","172457.635078","172467.006565","Mapping"
"Mixed","Both","done","38","m150park.wav","space","319.301454816","176","166336.243837","173224.626927","173991.990705","160164.976447","160932.315801","161699.402564","162466.764487","163234.036751","167103.324726","167870.650476","168637.895533","169404.967457","170172.614123","170922.985124","171690.177314","172457.635078","173234.12641","Mapping"
"Mixed","Both","done","38","m160bluff.wav","None","720.678239595","176","166336.243837","173224.626927","173991.990705","174742.487846","160932.315801","161699.402564","162466.764487","163234.036751","167103.324726","167870.650476","168637.895533","169404.967457","170172.614123","170922.985124","171690.177314","172457.635078","174001.413205","Mapping"
"Mixed","Both","done","38","m150cling.wav","None","733.88093058","176","166336.243837","173224.626927","173991.990705","174742.487846","175509.608309","161699.402564","162466.764487","163234.036751","167103.324726","167870.650476","168637.895533","169404.967457","170172.614123","170922.985124","171690.177314","172457.635078","174752.158608","Mapping"
"Mixed","Both","done","38","m160dime.wav","None","730.916013941","176","166336.243837","173224.626927","173991.990705","174742.487846","175509.608309","176276.764945","162466.764487","163234.036751","167103.324726","167870.650476","168637.895533","169404.967457","170172.614123","170922.985124","171690.177314","172457.635078","175519.136854","Mapping"
"Mixed","Both","done","38","m150done.wav","space","251.17792841","176","166336.243837","173224.626927","173991.990705","174742.487846","175509.608309","176276.764945","177044.375129","163234.036751","167103.324726","167870.650476","168637.895533","169404.967457","170172.614123","170922.985124","171690.177314","172457.635078","176286.14447","Mapping"
"Mixed","Both","done","38","m150park.wav","None","724.157920573","176","166336.243837","173224.626927","173991.990705","174742.487846","175509.608309","176276.764945","177044.375129","177811.231253","167103.324726","167870.650476","168637.895533","169404.967457","170172.614123","170922.985124","171690.177314","172457.635078","177053.992095","Mapping"
"Mixed","Both","tile","31","m150dime.wav","space","0.0228784047067","176","180913.418861","173224.626927","173991.990705","174742.487846","175509.608309","176276.764945","177044.375129","177811.231253","167103.324726","167870.650476","168637.895533","169404.967457","170172.614123","170922.985124","171690.177314","172457.635078","177820.480619","Mapping"
"Mixed","Both","tile","31","m150depth.wav","None","735.550744925","176","180913.418861","173224.626927","173991.990705","174742.487846","175509.608309","176276.764945","177044.375129","177811.231253","181680.666701","167870.650476","168637.895533","169404.967457","170172.614123","170922.985124","171690.177314","172457.635078","180923.459696","Mapping"
"Mixed","Both","tile","31","m150bluff.wav","None","733.172318898","176","180913.418861","173224.626927","173991.990705","174742.487846","175509.608309","176276.764945","177044.375129","177811.231253","181680.666701","182447.841268","168637.895533","169404.967457","170172.614123","170922.985124","171690.177314","172457.635078","181689.904628","Mapping"
"Mixed","Both","tile","31","m150tile.wav","None","729.93038781","176","180913.418861","173224.626927","173991.990705","174742.487846","175509.608309","176276.764945","177044.375129","177811.231253","181680.666701","182447.841268","183215.131155","169404.967457","170172.614123","170922.985124","171690.177314","172457.635078","182457.252329","Mapping"
"Mixed","Both","tile","31","m160done.wav","space","384.620212484","176","180913.418861","173224.626927","173991.990705","174742.487846","175509.608309","176276.764945","177044.375129","177811.231253","181680.666701","182447.841268","183215.131155","183982.388579","170172.614123","170922.985124","171690.177314","172457.635078","183224.464305","Mapping"
"Mixed","Both","tile","31","m150tile.wav","None","723.818454426","176","180913.418861","173224.626927","173991.990705","174742.487846","175509.608309","176276.764945","177044.375129","177811.231253","181680.666701","182447.841268","183215.131155","183982.388579","184749.616632","170922.985124","171690.177314","172457.635078","183991.744917","Mapping"
"Mixed","Both","tile","31","m150cling.wav","space","362.093954813","176","180913.418861","173224.626927","173991.990705","174742.487846","175509.608309","176276.764945","177044.375129","177811.231253","181680.666701","182447.841268","183215.131155","183982.388579","184749.616632","185500.291236","171690.177314","172457.635078","184758.914537","Mapping"
"Mixed","Both","tile","31","m160lash.wav","None","732.874281704","176","180913.418861","173224.626927","173991.990705","174742.487846","175509.608309","176276.764945","177044.375129","177811.231253","181680.666701","182447.841268","183215.131155","183982.388579","184749.616632","185500.291236","186267.378308","172457.635078","185510.104214","Mapping"
"Mixed","Both","tile","31","m160park.wav","None","731.046791654","176","180913.418861","173224.626927","173991.990705","174742.487846","175509.608309","176276.764945","177044.375129","177811.231253","181680.666701","182447.841268","183215.131155","183982.388579","184749.616632","185500.291236","186267.378308","187034.870391","186276.97116","Mapping"
"Mixed","Both","tile","31","m160cave.wav","None","727.596791461","176","180913.418861","187801.748157","173991.990705","174742.487846","175509.608309","176276.764945","177044.375129","177811.231253","181680.666701","182447.841268","183215.131155","183982.388579","184749.616632","185500.291236","186267.378308","187034.870391","187044.503433","Mapping"
"Mixed","Both","tile","31","m150depth.wav","None","725.397063885","176","180913.418861","187801.748157","188568.929835","174742.487846","175509.608309","176276.764945","177044.375129","177811.231253","181680.666701","182447.841268","183215.131155","183982.388579","184749.616632","185500.291236","186267.378308","187034.870391","187810.895497","Mapping"
"Mixed","Both","tile","31","m160tile.wav","space","262.368866708","176","180913.418861","187801.748157","188568.929835","189319.444908","175509.608309","176276.764945","177044.375129","177811.231253","181680.666701","182447.841268","183215.131155","183982.388579","184749.616632","185500.291236","186267.378308","187034.870391","188578.489296","Mapping"
"Mixed","Both","tile","31","m150bluff.wav","space","527.813950554","176","180913.418861","187801.748157","188568.929835","189319.444908","190087.030977","176276.764945","177044.375129","177811.231253","181680.666701","182447.841268","183215.131155","183982.388579","184749.616632","185500.291236","186267.378308","187034.870391","189329.028793","Mapping"
"Mixed","Both","tile","31","m160tile.wav","None","731.200757436","176","180913.418861","187801.748157","188568.929835","189319.444908","190087.030977","190854.206472","177044.375129","177811.231253","181680.666701","182447.841268","183215.131155","183982.388579","184749.616632","185500.291236","186267.378308","187034.870391","190096.806855","Mapping"
"Mixed","Both","tile","31","m160greet.wav","space","640.575706959","176","180913.418861","187801.748157","188568.929835","189319.444908","190087.030977","190854.206472","191621.299728","177811.231253","181680.666701","182447.841268","183215.131155","183982.388579","184749.616632","185500.291236","186267.378308","187034.870391","190864.215772","Mapping"
"Mixed","Both","tile","31","m160cave.wav","None","724.545306992","176","180913.418861","187801.748157","188568.929835","189319.444908","190087.030977","190854.206472","191621.299728","192388.801085","181680.666701","182447.841268","183215.131155","183982.388579","184749.616632","185500.291236","186267.378308","187034.870391","191631.112397","Mapping"
"Mixed","Both","cave","22","m160gnash.wav","None","722.286838572","176","195507.624072","187801.748157","188568.929835","189319.444908","190087.030977","190854.206472","191621.299728","192388.801085","181680.666701","182447.841268","183215.131155","183982.388579","184749.616632","185500.291236","186267.378308","187034.870391","192398.311697","Mapping"
"Mixed","Both","cave","22","m150dime.wav","None","719.694158994","176","195507.624072","187801.748157","188568.929835","189319.444908","190087.030977","190854.206472","191621.299728","192388.801085","196258.196032","182447.841268","183215.131155","183982.388579","184749.616632","185500.291236","186267.378308","187034.870391","195517.545877","Mapping"
"Mixed","Both","cave","22","m150cave.wav","None","733.521059621","176","195507.624072","187801.748157","188568.929835","189319.444908","190087.030977","190854.206472","191621.299728","192388.801085","196258.196032","197025.583306","183215.131155","183982.388579","184749.616632","185500.291236","186267.378308","187034.870391","196267.727359","Mapping"
"Mixed","Both","cave","22","m150tile.wav","space","357.653072104","176","195507.624072","187801.748157","188568.929835","189319.444908","190087.030977","190854.206472","191621.299728","192388.801085","196258.196032","197025.583306","197792.315145","183982.388579","184749.616632","185500.291236","186267.378308","187034.870391","197034.88554","Mapping"
"Mixed","Both","cave","22","m150park.wav","None","726.975364611","176","195507.624072","187801.748157","188568.929835","189319.444908","190087.030977","190854.206472","191621.299728","192388.801085","196258.196032","197025.583306","197792.315145","198559.284116","184749.616632","185500.291236","186267.378308","187034.870391","197801.772272","Mapping"
"Mixed","Both","cave","22","m160depth.wav","None","727.934402414","176","195507.624072","187801.748157","188568.929835","189319.444908","190087.030977","190854.206472","191621.299728","192388.801085","196258.196032","197025.583306","197792.315145","198559.284116","199327.088458","185500.291236","186267.378308","187034.870391","198568.371169","Mapping"
"Mixed","Both","cave","22","m160tile.wav","None","723.665416241","176","195507.624072","187801.748157","188568.929835","189319.444908","190087.030977","190854.206472","191621.299728","192388.801085","196258.196032","197025.583306","197792.315145","198559.284116","199327.088458","200094.35763","186267.378308","187034.870391","199336.771586","Mapping"
"Mixed","Both","cave","22","m160ball.wav","None","720.650414471","176","195507.624072","187801.748157","188568.929835","189319.444908","190087.030977","190854.206472","191621.299728","192388.801085","196258.196032","197025.583306","197792.315145","198559.284116","199327.088458","200094.35763","200844.674527","187034.870391","200103.859277","Mapping"
"Mixed","Both","cave","22","m160cave.wav","None","734.423520043","176","195507.624072","187801.748157","188568.929835","189319.444908","190087.030977","190854.206472","191621.299728","192388.801085","196258.196032","197025.583306","197792.315145","198559.284116","199327.088458","200094.35763","200844.674527","201611.936279","200854.272325","Mapping"
"Mixed","Both","cave","22","m150dime.wav","space","370.578439906","176","195507.624072","202379.059833","188568.929835","189319.444908","190087.030977","190854.206472","191621.299728","192388.801085","196258.196032","197025.583306","197792.315145","198559.284116","199327.088458","200094.35763","200844.674527","201611.936279","201621.78914","Mapping"
"Mixed","Both","cave","22","m160cave.wav","None","728.20554208","176","195507.624072","202379.059833","203146.495029","189319.444908","190087.030977","190854.206472","191621.299728","192388.801085","196258.196032","197025.583306","197792.315145","198559.284116","199327.088458","200094.35763","200844.674527","201611.936279","202388.38711","Mapping"
"Mixed","Both","cave","22","m160romp.wav","space","436.061056796","176","195507.624072","202379.059833","203146.495029","203913.819851","190087.030977","190854.206472","191621.299728","192388.801085","196258.196032","197025.583306","197792.315145","198559.284116","199327.088458","200094.35763","200844.674527","201611.936279","203156.241845","Mapping"
"Mixed","Both","cave","22","m150cave.wav","None","720.304765273","176","195507.624072","202379.059833","203146.495029","203913.819851","204664.180341","190854.206472","191621.299728","192388.801085","196258.196032","197025.583306","197792.315145","198559.284116","199327.088458","200094.35763","200844.674527","201611.936279","203923.696209","Mapping"
"Mixed","Both","cave","22","m160jolt.wav","space","270.720409695","176","195507.624072","202379.059833","203146.495029","203913.819851","204664.180341","205431.263395","191621.299728","192388.801085","196258.196032","197025.583306","197792.315145","198559.284116","199327.088458","200094.35763","200844.674527","201611.936279","204673.542244","Mapping"
"Mixed","Both","cave","22","m150reek.wav","None","731.389967725","176","195507.624072","202379.059833","203146.495029","203913.819851","204664.180341","205431.263395","206198.650669","192388.801085","196258.196032","197025.583306","197792.315145","198559.284116","199327.088458","200094.35763","200844.674527","201611.936279","205440.270682","Mapping"
"Mixed","Both","cave","22","m150cling.wav","None","727.451791521","176","195507.624072","202379.059833","203146.495029","203913.819851","204664.180341","205431.263395","206198.650669","206966.251578","196258.196032","197025.583306","197792.315145","198559.284116","199327.088458","200094.35763","200844.674527","201611.936279","206208.432421","Mapping"
"Mixed","Both","done","46","m160dime.wav","None","724.206150044","176","210085.044885","202379.059833","203146.495029","203913.819851","204664.180341","205431.263395","206198.650669","206966.251578","196258.196032","197025.583306","197792.315145","198559.284116","199327.088458","200094.35763","200844.674527","201611.936279","206975.830517","Mapping"
"Mixed","Both","done","46","m150cling.wav","None","719.080770388","176","210085.044885","202379.059833","203146.495029","203913.819851","204664.180341","205431.263395","206198.650669","206966.251578","210835.296547","197025.583306","197792.315145","198559.284116","199327.088458","200094.35763","200844.674527","201611.936279","210095.091285","Mapping"
"Mixed","Both","done","46","m150ball.wav","None","733.492925297","176","210085.044885","202379.059833","203146.495029","203913.819851","204664.180341","205431.263395","206198.650669","206966.251578","210835.296547","211602.688459","197792.315145","198559.284116","199327.088458","200094.35763","200844.674527","201611.936279","210844.836222","Mapping"
"Mixed","Both","done","46","m150cad.wav","None","731.175405439","176","210085.044885","202379.059833","203146.495029","203913.819851","204664.180341","205431.263395","206198.650669","206966.251578","210835.296547","211602.688459","212369.905382","198559.284116","199327.088458","200094.35763","200844.674527","201611.936279","211612.443932","Mapping"
"Mixed","Both","done","46","m150park.wav","None","728.196885437","176","210085.044885","202379.059833","203146.495029","203913.819851","204664.180341","205431.263395","206198.650669","206966.251578","210835.296547","211602.688459","212369.905382","213137.054907","199327.088458","200094.35763","200844.674527","201611.936279","212379.668894","Mapping"
"Mixed","Both","done","46","m160done.wav","None","725.575762801","176","210085.044885","202379.059833","203146.495029","203913.819851","204664.180341","205431.263395","206198.650669","206966.251578","210835.296547","211602.688459","212369.905382","213137.054907","213904.258845","200094.35763","200844.674527","201611.936279","213146.479571","Mapping"
"Mixed","Both","done","46","m160jolt.wav","space","405.794171151","176","210085.044885","202379.059833","203146.495029","203913.819851","204664.180341","205431.263395","206198.650669","206966.251578","210835.296547","211602.688459","212369.905382","213137.054907","213904.258845","214654.812254","200844.674527","201611.936279","213914.149733","Mapping"
"Mixed","Both","done","46","m150done.wav","None","736.342832446","176","210085.044885","202379.059833","203146.495029","203913.819851","204664.180341","205431.263395","206198.650669","206966.251578","210835.296547","211602.688459","212369.905382","213137.054907","213904.258845","214654.812254","215422.127802","201611.936279","214664.341417","Mapping"
"Mixed","Both","done","46","m160reek.wav","space","639.555454254","176","210085.044885","202379.059833","203146.495029","203913.819851","204664.180341","205431.263395","206198.650669","206966.251578","210835.296547","211602.688459","212369.905382","213137.054907","213904.258845","214654.812254","215422.127802","216189.452316","215432.328167","Mapping"
"Mixed","Both","done","46","m160greet.wav","None","728.915700223","176","210085.044885","216956.355433","203146.495029","203913.819851","204664.180341","205431.263395","206198.650669","206966.251578","210835.296547","211602.688459","212369.905382","213137.054907","213904.258845","214654.812254","215422.127802","216189.452316","216199.27055","Mapping"
"Mixed","Both","done","46","m160reek.wav","None","726.594160311","176","210085.044885","216956.355433","217723.432613","203913.819851","204664.180341","205431.263395","206198.650669","206966.251578","210835.296547","211602.688459","212369.905382","213137.054907","213904.258845","214654.812254","215422.127802","216189.452316","216965.749799","Mapping"
"Mixed","Both","done","46","m150done.wav","None","724.194711074","176","210085.044885","216956.355433","217723.432613","218490.792371","204664.180341","205431.263395","206198.650669","206966.251578","210835.296547","211602.688459","212369.905382","213137.054907","213904.258845","214654.812254","215422.127802","216189.452316","217733.032575","Mapping"
"Mixed","Both","done","46","m150cling.wav","space","331.782857887","176","210085.044885","216956.355433","217723.432613","218490.792371","219241.172957","205431.263395","206198.650669","206966.251578","210835.296547","211602.688459","212369.905382","213137.054907","213904.258845","214654.812254","215422.127802","216189.452316","218499.977122","Mapping"
"Mixed","Both","done","46","m160gnash.wav","None","734.286249615","176","210085.044885","216956.355433","217723.432613","218490.792371","219241.172957","220010.073297","206198.650669","206966.251578","210835.296547","211602.688459","212369.905382","213137.054907","213904.258845","214654.812254","215422.127802","216189.452316","219250.635339","Mapping"
"Mixed","Both","done","46","m160done.wav","None","729.341423605","176","210085.044885","216956.355433","217723.432613","218490.792371","219241.172957","220010.073297","220775.736344","206966.251578","210835.296547","211602.688459","212369.905382","213137.054907","213904.258845","214654.812254","215422.127802","216189.452316","220019.837736","Mapping"
"Mixed","Both","done","46","m150park.wav","space","582.39068184","176","210085.044885","216956.355433","217723.432613","218490.792371","219241.172957","220010.073297","220775.736344","221543.209876","210835.296547","211602.688459","212369.905382","213137.054907","213904.258845","214654.812254","215422.127802","216189.452316","220785.277255","Mapping"
"Mixed","Both","ball","3","m160romp.wav","None","724.292408209","176","224662.158076","216956.355433","217723.432613","218490.792371","219241.172957","220010.073297","220775.736344","221543.209876","210835.296547","211602.688459","212369.905382","213137.054907","213904.258845","214654.812254","215422.127802","216189.452316","221553.265242","Mapping"
"Mixed","Both","ball","3","m150reek.wav","None","720.164402854","176","224662.158076","216956.355433","217723.432613","218490.792371","219241.172957","220010.073297","220775.736344","221543.209876","225412.599877","211602.688459","212369.905382","213137.054907","213904.258845","214654.812254","215422.127802","216189.452316","224671.764839","Mapping"
"Mixed","Both","ball","3","m150bluff.wav","None","733.836101834","176","224662.158076","216956.355433","217723.432613","218490.792371","219241.172957","220010.073297","220775.736344","221543.209876","225412.599877","226179.848643","212369.905382","213137.054907","213904.258845","214654.812254","215422.127802","216189.452316","225422.345456","Mapping"
"Mixed","Both","ball","3","m160park.wav","None","731.506214943","176","224662.158076","216956.355433","217723.432613","218490.792371","219241.172957","220010.073297","220775.736344","221543.209876","225412.599877","226179.848643","226946.943446","213137.054907","213904.258845","214654.812254","215422.127802","216189.452316","226189.045451","Mapping"
"Mixed","Both","ball","3","m160ball.wav","None","734.673636965","176","224662.158076","216956.355433","217723.432613","218490.792371","219241.172957","220010.073297","220775.736344","221543.209876","225412.599877","226179.848643","226946.943446","227714.39379","213904.258845","214654.812254","215422.127802","216189.452316","226950.603062","Mapping"
"Mixed","Both","ball","3","m160greet.wav","space","291.291491594","176","224662.158076","216956.355433","217723.432613","218490.792371","219241.172957","220010.073297","220775.736344","221543.209876","225412.599877","226179.848643","226946.943446","227714.39379","228481.598965","214654.812254","215422.127802","216189.452316","227724.121438","Mapping"
"Mixed","Both","ball","3","m160ball.wav","None","721.642533317","176","224662.158076","216956.355433","217723.432613","218490.792371","219241.172957","220010.073297","220775.736344","221543.209876","225412.599877","226179.848643","226946.943446","227714.39379","228481.598965","229232.0689","215422.127802","216189.452316","228491.559416","Mapping"
"Mixed","Both","ball","3","m160knife.wav","space","554.782945663","176","224662.158076","216956.355433","217723.432613","218490.792371","219241.172957","220010.073297","220775.736344","221543.209876","225412.599877","226179.848643","226946.943446","227714.39379","228481.598965","229232.0689","229999.45401","216189.452316","229236.593876","Mapping"
"Mixed","Both","ball","3","m150cad.wav","None","732.22966725","176","224662.158076","216956.355433","217723.432613","218490.792371","219241.172957","220010.073297","220775.736344","221543.209876","225412.599877","226179.848643","226946.943446","227714.39379","228481.598965","229232.0689","229999.45401","230766.59426","230009.021509","Mapping"
"Mixed","Both","ball","3","m150jaw.wav","None","729.98727439","176","224662.158076","231533.627537","217723.432613","218490.792371","219241.172957","220010.073297","220775.736344","221543.209876","225412.599877","226179.848643","226946.943446","227714.39379","228481.598965","229232.0689","229999.45401","230766.59426","230776.323454","Mapping"
"Mixed","Both","ball","3","m160gnash.wav","None","727.218988352","176","224662.158076","231533.627537","232300.651849","218490.792371","219241.172957","220010.073297","220775.736344","221543.209876","225412.599877","226179.848643","226946.943446","227714.39379","228481.598965","229232.0689","229999.45401","230766.59426","231543.358277","Mapping"
"Mixed","Both","ball","3","m150ball.wav","None","724.34249334","176","224662.158076","231533.627537","232300.651849","233067.952865","219241.172957","220010.073297","220775.736344","221543.209876","225412.599877","226179.848643","226946.943446","227714.39379","228481.598965","229232.0689","229999.45401","230766.59426","232310.586639","Mapping"
"Mixed","Both","ball","3","m150park.wav","space","353.435407858","176","224662.158076","231533.627537","232300.651849","233067.952865","233818.352619","220010.073297","220775.736344","221543.209876","225412.599877","226179.848643","226946.943446","227714.39379","228481.598965","229232.0689","229999.45401","230766.59426","233077.83046","Mapping"
"Mixed","Both","ball","3","m150ball.wav","None","735.53899629","176","224662.158076","231533.627537","232300.651849","233067.952865","233818.352619","234585.956311","220775.736344","221543.209876","225412.599877","226179.848643","226946.943446","227714.39379","228481.598965","229232.0689","229999.45401","230766.59426","233827.907752","Mapping"
"Mixed","Both","ball","3","m150knife.wav","space","339.396109339","176","224662.158076","231533.627537","232300.651849","233067.952865","233818.352619","234585.956311","235352.957435","221543.209876","225412.599877","226179.848643","226946.943446","227714.39379","228481.598965","229232.0689","229999.45401","230766.59426","234595.798351","Mapping"
"Mixed","Both","ball","3","m160priest.wav","None","728.812128771","176","224662.158076","231533.627537","232300.651849","233067.952865","233818.352619","234585.956311","235352.957435","236120.418291","225412.599877","226179.848643","226946.943446","227714.39379","228481.598965","229232.0689","229999.45401","230766.59426","235362.255958","Mapping"
"Mixed","Both","done","39","m160priest.wav","None","725.013696123","176","239222.601261","231533.627537","232300.651849","233067.952865","233818.352619","234585.956311","235352.957435","236120.418291","225412.599877","226179.848643","226946.943446","227714.39379","228481.598965","229232.0689","229999.45401","230766.59426","236130.381216","Mapping"
"Mixed","Both","done","39","m150jaw.wav","None","736.302640755","176","239222.601261","231533.627537","232300.651849","233067.952865","233818.352619","234585.956311","235352.957435","236120.418291","239989.962257","226179.848643","226946.943446","227714.39379","228481.598965","229232.0689","229999.45401","230766.59426","239231.830531","Mapping"
"Mixed","Both","done","39","m160depth.wav","None","733.315463644","176","239222.601261","231533.627537","232300.651849","233067.952865","233818.352619","234585.956311","235352.957435","236120.418291","239989.962257","240757.145171","226946.943446","227714.39379","228481.598965","229232.0689","229999.45401","230766.59426","239999.686195","Mapping"
"Mixed","Both","done","39","m150done.wav","None","730.31932069","176","239222.601261","231533.627537","232300.651849","233067.952865","233818.352619","234585.956311","235352.957435","236120.418291","239989.962257","240757.145171","241524.320357","227714.39379","228481.598965","229232.0689","229999.45401","230766.59426","240767.108096","Mapping"
"Mixed","Both","done","39","m150cad.wav","space","408.681487199","176","239222.601261","231533.627537","232300.651849","233067.952865","233818.352619","234585.956311","235352.957435","236120.418291","239989.962257","240757.145171","241524.320357","242291.166279","228481.598965","229232.0689","229999.45401","230766.59426","241534.242162","Mapping"
"Mixed","Both","done","39","m150priest.wav","None","730.103830807","176","239222.601261","231533.627537","232300.651849","233067.952865","233818.352619","234585.956311","235352.957435","236120.418291","239989.962257","240757.145171","241524.320357","242291.166279","243058.907241","229232.0689","229999.45401","230766.59426","242295.383943","Mapping"
"Mixed","Both","done","39","m160done.wav","None","722.392264288","176","239222.601261","231533.627537","232300.651849","233067.952865","233818.352619","234585.956311","235352.957435","236120.418291","239989.962257","240757.145171","241524.320357","242291.166279","243058.907241","243826.028013","229999.45401","230766.59426","243068.565326","Mapping"
"Mixed","Both","done","39","m160romp.wav","space","513.369023334","176","239222.601261","231533.627537","232300.651849","233067.952865","233818.352619","234585.956311","235352.957435","236120.418291","239989.962257","240757.145171","241524.320357","242291.166279","243058.907241","243826.028013","244576.510314","230766.59426","243837.462266","Mapping"
"Mixed","Both","done","39","m160done.wav","None","732.152065728","176","239222.601261","231533.627537","232300.651849","233067.952865","233818.352619","234585.956311","235352.957435","236120.418291","239989.962257","240757.145171","241524.320357","242291.166279","243058.907241","243826.028013","244576.510314","245343.896043","244586.545893","Mapping"
"Mixed","Both","done","39","m150ball.wav","None","727.716438938","176","239222.601261","246111.128424","232300.651849","233067.952865","233818.352619","234585.956311","235352.957435","236120.418291","239989.962257","240757.145171","241524.320357","242291.166279","243058.907241","243826.028013","244576.510314","245343.896043","245355.410061","Mapping"
"Mixed","Both","done","39","m150cling.wav","None","727.58875275","176","239222.601261","246111.128424","246878.061841","233067.952865","233818.352619","234585.956311","235352.957435","236120.418291","239989.962257","240757.145171","241524.320357","242291.166279","243058.907241","243826.028013","244576.510314","245343.896043","246120.920998","Mapping"
"Mixed","Both","done","39","m160cad.wav","None","725.468172692","176","239222.601261","246111.128424","246878.061841","247645.43984","233818.352619","234585.956311","235352.957435","236120.418291","239989.962257","240757.145171","241524.320357","242291.166279","243058.907241","243826.028013","244576.510314","245343.896043","246887.459916","Mapping"
"Mixed","Both","done","39","m160bluff.wav","None","715.438158251","176","239222.601261","246111.128424","246878.061841","247645.43984","248412.738692","234585.956311","235352.957435","236120.418291","239989.962257","240757.145171","241524.320357","242291.166279","243058.907241","243826.028013","244576.510314","245343.896043","247662.010294","Mapping"
"Mixed","Both","done","39","m150done.wav","None","719.609756023","176","239222.601261","246111.128424","246878.061841","247645.43984","248412.738692","249163.288393","235352.957435","236120.418291","239989.962257","240757.145171","241524.320357","242291.166279","243058.907241","243826.028013","244576.510314","245343.896043","248422.260744","Mapping"
"Mixed","Both","done","39","m160dime.wav","space","337.648385204","176","239222.601261","246111.128424","246878.061841","247645.43984","248412.738692","249163.288393","249930.582298","236120.418291","239989.962257","240757.145171","241524.320357","242291.166279","243058.907241","243826.028013","244576.510314","245343.896043","249173.010785","Mapping"
"Mixed","Both","done","39","m150cave.wav","None","728.622300085","176","239222.601261","246111.128424","246878.061841","247645.43984","248412.738692","249163.288393","249930.582298","250697.696887","239989.962257","240757.145171","241524.320357","242291.166279","243058.907241","243826.028013","244576.510314","245343.896043","249941.691925","Mapping"
"Mixed","Both","ball","7","m150romp.wav","None","727.031632792","176","253833.439378","246111.128424","246878.061841","247645.43984","248412.738692","249163.288393","249930.582298","250697.696887","239989.962257","240757.145171","241524.320357","242291.166279","243058.907241","243826.028013","244576.510314","245343.896043","250707.697221","Mapping"
"Mixed","Both","ball","7","m160ball.wav","None","719.400140923","176","253833.439378","246111.128424","246878.061841","247645.43984","248412.738692","249163.288393","249930.582298","250697.696887","254583.552533","240757.145171","241524.320357","242291.166279","243058.907241","243826.028013","244576.510314","245343.896043","253843.245554","Mapping"
"Mixed","Both","ball","7","m160jaw.wav","space","365.069074091","176","253833.439378","246111.128424","246878.061841","247645.43984","248412.738692","249163.288393","249930.582298","250697.696887","254583.552533","255351.396139","241524.320357","242291.166279","243058.907241","243826.028013","244576.510314","245343.896043","254593.396119","Mapping"
"Mixed","Both","ball","7","m150lash.wav","None","729.595559649","176","253833.439378","246111.128424","246878.061841","247645.43984","248412.738692","249163.288393","249930.582298","250697.696887","254583.552533","255351.396139","256118.042339","242291.166279","243058.907241","243826.028013","244576.510314","245343.896043","255361.427698","Mapping"
"Mixed","Both","ball","7","m150ball.wav","None","728.387023322","176","253833.439378","246111.128424","246878.061841","247645.43984","248412.738692","249163.288393","249930.582298","250697.696887","254583.552533","255351.396139","256118.042339","256885.500412","243058.907241","243826.028013","244576.510314","245343.896043","256127.132792","Mapping"
"Mixed","Both","ball","7","m160knife.wav","space","455.469050445","176","253833.439378","246111.128424","246878.061841","247645.43984","248412.738692","249163.288393","249930.582298","250697.696887","254583.552533","255351.396139","256118.042339","256885.500412","257652.711461","243826.028013","244576.510314","245343.896043","256894.924767","Mapping"
"Mixed","Both","ball","7","m150ball.wav","None","720.668964554","176","253833.439378","246111.128424","246878.061841","247645.43984","248412.738692","249163.288393","249930.582298","250697.696887","254583.552533","255351.396139","256118.042339","256885.500412","257652.711461","258402.96065","244576.510314","245343.896043","257662.669439","Mapping"
"Mixed","Both","ball","7","m160cling.wav","None","735.905359965","176","253833.439378","246111.128424","246878.061841","247645.43984","248412.738692","249163.288393","249930.582298","250697.696887","254583.552533","255351.396139","256118.042339","256885.500412","257652.711461","258402.96065","259170.635141","245343.896043","258412.598949","Mapping"
"Mixed","Both","ball","7","m150priest.wav","space","65.996453166","176","253833.439378","246111.128424","246878.061841","247645.43984","248412.738692","249163.288393","249930.582298","250697.696887","254583.552533","255351.396139","256118.042339","256885.500412","257652.711461","258402.96065","259170.635141","259937.50456","259180.327854","Mapping"
"Mixed","Both","ball","7","m160ball.wav","None","729.557531886","176","253833.439378","260704.695822","246878.061841","247645.43984","248412.738692","249163.288393","249930.582298","250697.696887","254583.552533","255351.396139","256118.042339","256885.500412","257652.711461","258402.96065","259170.635141","259937.50456","259946.985183","Mapping"
"Mixed","Both","ball","7","m160depth.wav","space","324.02862655","176","253833.439378","260704.695822","261471.90718","247645.43984","248412.738692","249163.288393","249930.582298","250697.696887","254583.552533","255351.396139","256118.042339","256885.500412","257652.711461","258402.96065","259170.635141","259937.50456","260714.22313","Mapping"
"Mixed","Both","ball","7","m150dime.wav","None","724.736063741","176","253833.439378","260704.695822","261471.90718","262239.468516","248412.738692","249163.288393","249930.582298","250697.696887","254583.552533","255351.396139","256118.042339","256885.500412","257652.711461","258402.96065","259170.635141","259937.50456","261481.023913","Mapping"
"Mixed","Both","ball","7","m150dime.wav","None","720.799742267","176","253833.439378","260704.695822","261471.90718","262239.468516","262989.550445","249163.288393","249930.582298","250697.696887","254583.552533","255351.396139","256118.042339","256885.500412","257652.711461","258402.96065","259170.635141","259937.50456","262249.456483","Mapping"
"Mixed","Both","ball","7","m160tile.wav","None","736.006457824","176","253833.439378","260704.695822","261471.90718","262239.468516","262989.550445","263756.93772","249930.582298","250697.696887","254583.552533","255351.396139","256118.042339","256885.500412","257652.711461","258402.96065","259170.635141","259937.50456","262998.750963","Mapping"
"Mixed","Both","ball","7","m150park.wav","None","732.971978374","176","253833.439378","260704.695822","261471.90718","262239.468516","262989.550445","263756.93772","264524.383736","250697.696887","254583.552533","255351.396139","256118.042339","256885.500412","257652.711461","258402.96065","259170.635141","259937.50456","263766.505528","Mapping"
"Mixed","Both","ball","7","m160bluff.wav","None","730.023756623","176","253833.439378","260704.695822","261471.90718","262239.468516","262989.550445","263756.93772","264524.383736","265291.717215","254583.552533","255351.396139","256118.042339","256885.500412","257652.711461","258402.96065","259170.635141","259937.50456","264534.355008","Mapping"
"Mixed","Both","cave","21","m160bluff.wav","None","727.357804775","176","268410.519488","260704.695822","261471.90718","262239.468516","262989.550445","263756.93772","264524.383736","265291.717215","254583.552533","255351.396139","256118.042339","256885.500412","257652.711461","258402.96065","259170.635141","259937.50456","265301.65417","Mapping"
"Mixed","Both","cave","21","m160cad.wav","None","735.637002625","176","268410.519488","260704.695822","261471.90718","262239.468516","262989.550445","263756.93772","264524.383736","265291.717215","269177.672413","255351.396139","256118.042339","256885.500412","257652.711461","258402.96065","259170.635141","259937.50456","268420.382861","Mapping"
"Mixed","Both","cave","21","m150priest.wav","None","733.093481045","176","268410.519488","260704.695822","261471.90718","262239.468516","262989.550445","263756.93772","264524.383736","265291.717215","269177.672413","269945.093387","256118.042339","256885.500412","257652.711461","258402.96065","259170.635141","259937.50456","269187.580615","Mapping"
"Mixed","Both","cave","21","m160cling.wav","None","731.169840321","176","268410.519488","260704.695822","261471.90718","262239.468516","262989.550445","263756.93772","264524.383736","265291.717215","269177.672413","269945.093387","270712.193445","256885.500412","257652.711461","258402.96065","259170.635141","259937.50456","269954.9716","Mapping"
"Mixed","Both","cave","21","m150cave.wav","None","728.710103314","176","268410.519488","260704.695822","261471.90718","262239.468516","262989.550445","263756.93772","264524.383736","265291.717215","269177.672413","269945.093387","270712.193445","271479.482713","257652.711461","258402.96065","259170.635141","259937.50456","270721.921402","Mapping"
"Mixed","Both","cave","21","m150jolt.wav","space","404.92881136","176","268410.519488","260704.695822","261471.90718","262239.468516","262989.550445","263756.93772","264524.383736","265291.717215","269177.672413","269945.093387","270712.193445","271479.482713","272246.430969","258402.96065","259170.635141","259937.50456","271488.957462","Mapping"
"Mixed","Both","cave","21","m160cave.wav","None","722.736677155","176","268410.519488","260704.695822","261471.90718","262239.468516","262989.550445","263756.93772","264524.383736","265291.717215","269177.672413","269945.093387","270712.193445","271479.482713","272246.430969","273014.076089","259170.635141","259937.50456","272256.047936","Mapping"
"Mixed","Both","cave","21","m160depth.wav","space","411.728333216","176","268410.519488","260704.695822","261471.90718","262239.468516","262989.550445","263756.93772","264524.383736","265291.717215","269177.672413","269945.093387","270712.193445","271479.482713","272246.430969","273014.076089","273764.257262","259937.50456","273018.067134","Mapping"
"Mixed","Both","cave","21","m150greet.wav","None","733.264450449","176","268410.519488","260704.695822","261471.90718","262239.468516","262989.550445","263756.93772","264524.383736","265291.717215","269177.672413","269945.093387","270712.193445","271479.482713","272246.430969","273014.076089","273764.257262","274531.381435","273774.163609","Mapping"
"Mixed","Both","cave","21","m150knife.wav","None","730.870566331","176","268410.519488","275298.735937","261471.90718","262239.468516","262989.550445","263756.93772","264524.383736","265291.717215","269177.672413","269945.093387","270712.193445","271479.482713","272246.430969","273014.076089","273764.257262","274531.381435","274541.014478","Mapping"
"Mixed","Both","cave","21","m160cave.wav","None","728.027770296","176","268410.519488","275298.735937","276065.828575","262239.468516","262989.550445","263756.93772","264524.383736","265291.717215","269177.672413","269945.093387","270712.193445","271479.482713","272246.430969","273014.076089","273764.257262","274531.381435","275308.555099","Mapping"
"Mixed","Both","cave","21","m160cad.wav","space","362.233080436","176","268410.519488","275298.735937","276065.828575","276833.136393","262989.550445","263756.93772","264524.383736","265291.717215","269177.672413","269945.093387","270712.193445","271479.482713","272246.430969","273014.076089","273764.257262","274531.381435","276075.462236","Mapping"
"Mixed","Both","cave","21","m150lash.wav","None","723.123136442","176","268410.519488","275298.735937","276065.828575","276833.136393","277600.879211","263756.93772","264524.383736","265291.717215","269177.672413","269945.093387","270712.193445","271479.482713","272246.430969","273014.076089","273764.257262","274531.381435","276842.486239","Mapping"
"Mixed","Both","cave","21","m150gnash.wav","None","719.212166499","176","268410.519488","275298.735937","276065.828575","276833.136393","277600.879211","278351.535882","264524.383736","265291.717215","269177.672413","269945.093387","270712.193445","271479.482713","272246.430969","273014.076089","273764.257262","274531.381435","277610.883564","Mapping"
"Mixed","Both","cave","21","m150cave.wav","None","733.487360645","176","268410.519488","275298.735937","276065.828575","276833.136393","277600.879211","278351.535882","279118.177445","265291.717215","269177.672413","269945.093387","270712.193445","271479.482713","272246.430969","273014.076089","273764.257262","274531.381435","278361.209735","Mapping"
"Mixed","Both","cave","21","m160greet.wav","space","413.536963519","176","268410.519488","275298.735937","276065.828575","276833.136393","277600.879211","278351.535882","279118.177445","279885.675401","269177.672413","269945.093387","270712.193445","271479.482713","272246.430969","273014.076089","273764.257262","274531.381435","279128.035252","Mapping"
"Mixed","Both","done","47","m160cave.wav","None","728.394752368","176","283004.610616","275298.735937","276065.828575","276833.136393","277600.879211","278351.535882","279118.177445","279885.675401","269177.672413","269945.093387","270712.193445","271479.482713","272246.430969","273014.076089","273764.257262","274531.381435","279895.33225","Mapping"
"Mixed","Both","done","47","m160priest.wav","None","735.673484392","176","283004.610616","275298.735937","276065.828575","276833.136393","277600.879211","278351.535882","279118.177445","279885.675401","283771.713146","269945.093387","270712.193445","271479.482713","272246.430969","273014.076089","273764.257262","274531.381435","283014.55128","Mapping"
"Mixed","Both","done","47","m160done.wav","None","733.781379182","176","283004.610616","275298.735937","276065.828575","276833.136393","277600.879211","278351.535882","279118.177445","279885.675401","283771.713146","284538.984792","270712.193445","271479.482713","272246.430969","273014.076089","273764.257262","274531.381435","283781.174292","Mapping"
"Mixed","Both","done","47","m150tile.wav","space","384.989358485","176","283004.610616","275298.735937","276065.828575","276833.136393","277600.879211","278351.535882","279118.177445","279885.675401","283771.713146","284538.984792","285305.967366","271479.482713","272246.430969","273014.076089","273764.257262","274531.381435","284548.399872","Mapping"
"Mixed","Both","done","47","m150done.wav","None","728.217908647","176","283004.610616","275298.735937","276065.828575","276833.136393","277600.879211","278351.535882","279118.177445","279885.675401","283771.713146","284538.984792","285305.967366","286073.41091","272246.430969","273014.076089","273764.257262","274531.381435","285315.923799","Mapping"
"Mixed","Both","done","47","m150park.wav","space","386.348149739","176","283004.610616","275298.735937","276065.828575","276833.136393","277600.879211","278351.535882","279118.177445","279885.675401","283771.713146","284538.984792","285305.967366","286073.41091","286840.855071","273014.076089","273764.257262","274531.381435","286083.004688","Mapping"
"Mixed","Both","done","47","m160tile.wav","None","721.951391548","176","283004.610616","275298.735937","276065.828575","276833.136393","277600.879211","278351.535882","279118.177445","279885.675401","283771.713146","284538.984792","285305.967366","286073.41091","286840.855071","287607.885566","273764.257262","274531.381435","286850.014778","Mapping"
"Mixed","Both","done","47","m160done.wav","None","719.595534727","176","283004.610616","275298.735937","276065.828575","276833.136393","277600.879211","278351.535882","279118.177445","279885.675401","283771.713146","284538.984792","285305.967366","286073.41091","286840.855071","287607.885566","288358.097036","274531.381435","287617.704727","Mapping"
"Mixed","Both","done","47","m160reek.wav","space","293.964863755","176","283004.610616","275298.735937","276065.828575","276833.136393","277600.879211","278351.535882","279118.177445","279885.675401","283771.713146","284538.984792","285305.967366","286073.41091","286840.855071","287607.885566","288358.097036","289125.509972","288367.305283","Mapping"
"Mixed","Both","done","47","m150jaw.wav","None","730.086208321","176","283004.610616","289892.597044","276065.828575","276833.136393","277600.879211","278351.535882","279118.177445","279885.675401","283771.713146","284538.984792","285305.967366","286073.41091","286840.855071","287607.885566","288358.097036","289125.509972","289135.278739","Mapping"
"Mixed","Both","done","47","m150jolt.wav","None","727.939039469","176","283004.610616","289892.597044","290660.205064","276833.136393","277600.879211","278351.535882","279118.177445","279885.675401","283771.713146","284538.984792","285305.967366","286073.41091","286840.855071","287607.885566","288358.097036","289125.509972","289902.212774","Mapping"
"Mixed","Both","done","47","m150knife.wav","None","725.522895344","176","283004.610616","289892.597044","290660.205064","291427.216391","277600.879211","278351.535882","279118.177445","279885.675401","283771.713146","284538.984792","285305.967366","286073.41091","286840.855071","287607.885566","288358.097036","289125.509972","290669.951572","Mapping"
"Mixed","Both","done","47","m160cave.wav","None","723.517325241","176","283004.610616","289892.597044","290660.205064","291427.216391","292194.451246","278351.535882","279118.177445","279885.675401","283771.713146","284538.984792","285305.967366","286073.41091","286840.855071","287607.885566","288358.097036","289125.509972","291436.830575","Mapping"
"Mixed","Both","done","47","m150done.wav","None","720.571885817","176","283004.610616","289892.597044","290660.205064","291427.216391","292194.451246","292944.764432","279118.177445","279885.675401","283771.713146","284538.984792","285305.967366","286073.41091","286840.855071","287607.885566","288358.097036","289125.509972","292204.366249","Mapping"
"Mixed","Both","done","47","m160knife.wav","space","371.103406884","176","283004.610616","289892.597044","290660.205064","291427.216391","292194.451246","292944.764432","293711.930961","279885.675401","283771.713146","284538.984792","285305.967366","286073.41091","286840.855071","287607.885566","288358.097036","289125.509972","292953.974225","Mapping"
"Mixed","Both","done","47","m150cling.wav","None","733.07091184","176","283004.610616","289892.597044","290660.205064","291427.216391","292194.451246","292944.764432","293711.930961","294479.462617","283771.713146","284538.984792","285305.967366","286073.41091","286840.855071","287607.885566","288358.097036","289125.509972","293720.842716","Mapping"
"Mixed","Both","cave","19","m160park.wav","None","729.493224993","176","297598.125764","289892.597044","290660.205064","291427.216391","292194.451246","292944.764432","293711.930961","294479.462617","283771.713146","284538.984792","285305.967366","286073.41091","286840.855071","287607.885566","288358.097036","289125.509972","294489.483974","Mapping"
"Mixed","Both","cave","19","m160cave.wav","None","736.219783779","176","297598.125764","289892.597044","290660.205064","291427.216391","292194.451246","292944.764432","293711.930961","294479.462617","298365.491088","284538.984792","285305.967366","286073.41091","286840.855071","287607.885566","288358.097036","289125.509972","297607.647197","Mapping"
"Mixed","Both","cave","19","m160tile.wav","space","573.467796668","176","297598.125764","289892.597044","290660.205064","291427.216391","292194.451246","292944.764432","293711.930961","294479.462617","298365.491088","299132.71203","285305.967366","286073.41091","286840.855071","287607.885566","288358.097036","289125.509972","298375.417531","Mapping"
"Mixed","Both","cave","19","m150priest.wav","None","729.64224359","176","297598.125764","289892.597044","290660.205064","291427.216391","292194.451246","292944.764432","293711.930961","294479.462617","298365.491088","299132.71203","299900.115381","286073.41091","286840.855071","287607.885566","288358.097036","289125.509972","299142.424529","Mapping"
"Mixed","Both","cave","19","m150park.wav","None","727.513006888","176","297598.125764","289892.597044","290660.205064","291427.216391","292194.451246","292944.764432","293711.930961","294479.462617","298365.491088","299132.71203","299900.115381","300667.300769","286840.855071","287607.885566","288358.097036","289125.509972","299910.155288","Mapping"
"Mixed","Both","cave","19","m150jaw.wav","None","725.498780143","176","297598.125764","289892.597044","290660.205064","291427.216391","292194.451246","292944.764432","293711.930961","294479.462617","298365.491088","299132.71203","299900.115381","300667.300769","301434.418758","287607.885566","288358.097036","289125.509972","300676.871978","Mapping"
"Mixed","Both","cave","19","m150cad.wav","None","723.561845254","176","297598.125764","289892.597044","290660.205064","291427.216391","292194.451246","292944.764432","293711.930961","294479.462617","298365.491088","299132.71203","299900.115381","300667.300769","301434.418758","302201.811598","288358.097036","289125.509972","301443.594543","Mapping"
"Mixed","Both","cave","19","m150jaw.wav","None","720.295181032","176","297598.125764","289892.597044","290660.205064","291427.216391","292194.451246","292944.764432","293711.930961","294479.462617","298365.491088","299132.71203","299900.115381","300667.300769","301434.418758","302201.811598","302951.93341","289125.509972","302211.520078","Mapping"
"Mixed","Both","cave","19","m150cave.wav","None","735.981105827","176","297598.125764","289892.597044","290660.205064","291427.216391","292194.451246","292944.764432","293711.930961","294479.462617","298365.491088","299132.71203","299900.115381","300667.300769","301434.418758","302201.811598","302951.93341","303719.677154","302961.472157","Mapping"
"Mixed","Both","cave","19","m160dime.wav","space","587.008098606","176","297598.125764","304486.730528","290660.205064","291427.216391","292194.451246","292944.764432","293711.930961","294479.462617","298365.491088","299132.71203","299900.115381","300667.300769","301434.418758","302201.811598","302951.93341","303719.677154","303729.6475","Mapping"
"Mixed","Both","cave","19","m160ball.wav","None","729.315453675","176","297598.125764","304486.730528","305253.923027","291427.216391","292194.451246","292944.764432","293711.930961","294479.462617","298365.491088","299132.71203","299900.115381","300667.300769","301434.418758","302201.811598","302951.93341","303719.677154","304496.053785","Mapping"
"Mixed","Both","cave","19","m150jolt.wav","None","726.209865417","176","297598.125764","304486.730528","305253.923027","306021.219406","292194.451246","292944.764432","293711.930961","294479.462617","298365.491088","299132.71203","299900.115381","300667.300769","301434.418758","302201.811598","302951.93341","303719.677154","305263.877295","Mapping"
"Mixed","Both","cave","19","m160cave.wav","None","725.150038954","176","297598.125764","304486.730528","305253.923027","306021.219406","306787.9902","292944.764432","293711.930961","294479.462617","298365.491088","299132.71203","299900.115381","300667.300769","301434.418758","302201.811598","302951.93341","303719.677154","306030.682407","Mapping"
"Mixed","Both","cave","19","m160jolt.wav","None","723.26040687","176","297598.125764","304486.730528","305253.923027","306021.219406","306787.9902","307555.597911","293711.930961","294479.462617","298365.491088","299132.71203","299900.115381","300667.300769","301434.418758","302201.811598","302951.93341","303719.677154","306797.257807","Mapping"
"Mixed","Both","cave","19","m150cave.wav","space","198.987661861","176","297598.125764","304486.730528","305253.923027","306021.219406","306787.9902","307555.597911","308306.027345","294479.462617","298365.491088","299132.71203","299900.115381","300667.300769","301434.418758","302201.811598","302951.93341","303719.677154","307565.565473","Mapping"
"Mixed","Both","cave","19","m160cad.wav","None","733.065655921","176","297598.125764","304486.730528","305253.923027","306021.219406","306787.9902","307555.597911","308306.027345","309073.064024","298365.491088","299132.71203","299900.115381","300667.300769","301434.418758","302201.811598","302951.93341","303719.677154","308315.182415","Mapping"
"Mixed","Both","tile","26","m150lash.wav","None","731.398315635","176","312208.990159","304486.730528","305253.923027","306021.219406","306787.9902","307555.597911","308306.027345","309073.064024","298365.491088","299132.71203","299900.115381","300667.300769","301434.418758","302201.811598","302951.93341","303719.677154","309082.652546","Mapping"
"Mixed","Both","tile","26","m160done.wav","None","719.839158934","176","312208.990159","304486.730528","305253.923027","306021.219406","306787.9902","307555.597911","308306.027345","309073.064024","312959.337973","299132.71203","299900.115381","300667.300769","301434.418758","302201.811598","302951.93341","303719.677154","312218.613309","Mapping"
"Mixed","Both","tile","26","m160knife.wav","None","734.710118268","176","312208.990159","304486.730528","305253.923027","306021.219406","306787.9902","307555.597911","308306.027345","309073.064024","312959.337973","313726.728958","299900.115381","300667.300769","301434.418758","302201.811598","302951.93341","303719.677154","312968.601251","Mapping"
"Mixed","Both","tile","26","m150tile.wav","None","732.143409085","176","312208.990159","304486.730528","305253.923027","306021.219406","306787.9902","307555.597911","308306.027345","309073.064024","312959.337973","313726.728958","314493.93135","300667.300769","301434.418758","302201.811598","302951.93341","303719.677154","313736.123941","Mapping"
"Mixed","Both","tile","26","m160cad.wav","space","380.918240175","176","312208.990159","304486.730528","305253.923027","306021.219406","306787.9902","307555.597911","308306.027345","309073.064024","312959.337973","313726.728958","314493.93135","315261.313677","301434.418758","302201.811598","302951.93341","303719.677154","314503.404244","Mapping"
"Mixed","Both","tile","26","m160dime.wav","None","726.843040437","176","312208.990159","304486.730528","305253.923027","306021.219406","306787.9902","307555.597911","308306.027345","309073.064024","312959.337973","313726.728958","314493.93135","315261.313677","316028.464748","302201.811598","302951.93341","303719.677154","315270.811614","Mapping"
"Mixed","Both","tile","26","m150knife.wav","None","723.997462075","176","312208.990159","304486.730528","305253.923027","306021.219406","306787.9902","307555.597911","308306.027345","309073.064024","312959.337973","313726.728958","314493.93135","315261.313677","316028.464748","316795.63004","302951.93341","303719.677154","316038.521969","Mapping"
"Mixed","Both","tile","26","m150tile.wav","None","721.756306943","176","312208.990159","304486.730528","305253.923027","306021.219406","306787.9902","307555.597911","308306.027345","309073.064024","312959.337973","313726.728958","314493.93135","315261.313677","316028.464748","316795.63004","317562.868605","303719.677154","316805.770736","Mapping"
"Mixed","Both","tile","26","m150bluff.wav","space","455.499039963","176","312208.990159","304486.730528","305253.923027","306021.219406","306787.9902","307555.597911","308306.027345","309073.064024","312959.337973","313726.728958","314493.93135","315261.313677","316028.464748","316795.63004","317562.868605","318313.511983","317572.694568","Mapping"
"Mixed","Both","tile","26","m150cave.wav","None","733.612882439","176","312208.990159","319080.755803","305253.923027","306021.219406","306787.9902","307555.597911","308306.027345","309073.064024","312959.337973","313726.728958","314493.93135","315261.313677","316028.464748","316795.63004","317562.868605","318313.511983","318323.447701","Mapping"
"Mixed","Both","tile","26","m150jaw.wav","None","731.547334231","176","312208.990159","319080.755803","319847.691693","306021.219406","306787.9902","307555.597911","308306.027345","309073.064024","312959.337973","313726.728958","314493.93135","315261.313677","316028.464748","316795.63004","317562.868605","318313.511983","319090.411725","Mapping"
"Mixed","Both","tile","26","m160tile.wav","None","729.961922858","176","312208.990159","319080.755803","319847.691693","320614.890684","306787.9902","307555.597911","308306.027345","309073.064024","312959.337973","313726.728958","314493.93135","315261.313677","316028.464748","316795.63004","317562.868605","318313.511983","319857.001965","Mapping"
"Mixed","Both","tile","26","m160bluff.wav","space","531.821380369","176","312208.990159","319080.755803","319847.691693","320614.890684","321382.102352","307555.597911","308306.027345","309073.064024","312959.337973","313726.728958","314493.93135","315261.313677","316028.464748","316795.63004","317562.868605","318313.511983","320624.250114","Mapping"
"Mixed","Both","tile","26","m160tile.wav","None","724.522119388","176","312208.990159","319080.755803","319847.691693","320614.890684","321382.102352","322149.373379","308306.027345","309073.064024","312959.337973","313726.728958","314493.93135","315261.313677","316028.464748","316795.63004","317562.868605","318313.511983","321391.38047","Mapping"
"Mixed","Both","tile","26","m150dime.wav","space","541.490286589","176","312208.990159","319080.755803","319847.691693","320614.890684","321382.102352","322149.373379","322900.110125","309073.064024","312959.337973","313726.728958","314493.93135","315261.313677","316028.464748","316795.63004","317562.868605","318313.511983","322158.526285","Mapping"
"Mixed","Both","tile","26","m160jolt.wav","None","734.916951507","176","312208.990159","319080.755803","319847.691693","320614.890684","321382.102352","322149.373379","322900.110125","323667.310353","312959.337973","313726.728958","314493.93135","315261.313677","316028.464748","316795.63004","317562.868605","318313.511983","322909.28189","Mapping"
"Mixed","Both","done","45","m160reek.wav","None","732.791115064","176","326802.960403","319080.755803","319847.691693","320614.890684","321382.102352","322149.373379","322900.110125","323667.310353","312959.337973","313726.728958","314493.93135","315261.313677","316028.464748","316795.63004","317562.868605","318313.511983","323677.58832","Mapping"
"Mixed","Both","done","45","m150reek.wav","None","720.468005631","176","326802.960403","319080.755803","319847.691693","320614.890684","321382.102352","322149.373379","322900.110125","323667.310353","327553.319655","313726.728958","314493.93135","315261.313677","316028.464748","316795.63004","317562.868605","318313.511983","326812.465759","Mapping"
"Mixed","Both","done","45","m160done.wav","None","734.865320381","176","326802.960403","319080.755803","319847.691693","320614.890684","321382.102352","322149.373379","322900.110125","323667.310353","327553.319655","328320.793806","314493.93135","315261.313677","316028.464748","316795.63004","317562.868605","318313.511983","327563.038338","Mapping"
"Mixed","Both","done","45","m150bluff.wav","space","497.254901566","176","326802.960403","319080.755803","319847.691693","320614.890684","321382.102352","322149.373379","322900.110125","323667.310353","327553.319655","328320.793806","329087.840996","315261.313677","316028.464748","316795.63004","317562.868605","318313.511983","328330.515889","Mapping"
"Mixed","Both","done","45","m150jaw.wav","None","729.099345393","176","326802.960403","319080.755803","319847.691693","320614.890684","321382.102352","322149.373379","322900.110125","323667.310353","327553.319655","328320.793806","329087.840996","329855.065339","316028.464748","316795.63004","317562.868605","318313.511983","329097.043678","Mapping"
"Mixed","Both","done","45","m160dime.wav","None","726.994533092","176","326802.960403","319080.755803","319847.691693","320614.890684","321382.102352","322149.373379","322900.110125","323667.310353","327553.319655","328320.793806","329087.840996","329855.065339","330622.14561","316795.63004","317562.868605","318313.511983","329864.847091","Mapping"
"Mixed","Both","done","45","m150done.wav","space","418.696969748","176","326802.960403","319080.755803","319847.691693","320614.890684","321382.102352","322149.373379","322900.110125","323667.310353","327553.319655","328320.793806","329087.840996","329855.065339","330622.14561","331389.322032","317562.868605","318313.511983","330633.029854","Mapping"
"Mixed","Both","done","45","m160jaw.wav","space","613.305891864","176","326802.960403","319080.755803","319847.691693","320614.890684","321382.102352","322149.373379","322900.110125","323667.310353","327553.319655","328320.793806","329087.840996","329855.065339","330622.14561","331389.322032","332139.773108","318313.511983","331398.404139","Mapping"
"Mixed","Both","done","45","m150lash.wav","None","734.089928214","176","326802.960403","319080.755803","319847.691693","320614.890684","321382.102352","322149.373379","322900.110125","323667.310353","327553.319655","328320.793806","329087.840996","329855.065339","330622.14561","331389.322032","332139.773108","332907.289924","332149.226834","Mapping"
"Mixed","Both","done","45","m150done.wav","None","732.759580016","176","326802.960403","333674.502827","319847.691693","320614.890684","321382.102352","322149.373379","322900.110125","323667.310353","327553.319655","328320.793806","329087.840996","329855.065339","330622.14561","331389.322032","332139.773108","332907.289924","332916.453341","Mapping"
"Mixed","Both","done","45","m160jolt.wav","space","511.4113749","176","326802.960403","333674.502827","334441.927511","320614.890684","321382.102352","322149.373379","322900.110125","323667.310353","327553.319655","328320.793806","329087.840996","329855.065339","330622.14561","331389.322032","332139.773108","332907.289924","333684.319825","Mapping"
"Mixed","Both","done","45","m160greet.wav","None","725.985718891","176","326802.960403","333674.502827","334441.927511","335208.841759","321382.102352","322149.373379","322900.110125","323667.310353","327553.319655","328320.793806","329087.840996","329855.065339","330622.14561","331389.322032","332139.773108","332907.289924","334451.584978","Mapping"
"Mixed","Both","done","45","m160done.wav","None","724.527375307","176","326802.960403","333674.502827","334441.927511","335208.841759","335976.192861","322149.373379","322900.110125","323667.310353","327553.319655","328320.793806","329087.840996","329855.065339","330622.14561","331389.322032","332139.773108","332907.289924","335218.201807","Mapping"
"Mixed","Both","done","45","m160ball.wav","space","433.376555331","176","326802.960403","333674.502827","334441.927511","335208.841759","335976.192861","336726.552114","322900.110125","323667.310353","327553.319655","328320.793806","329087.840996","329855.065339","330622.14561","331389.322032","332139.773108","332907.289924","335986.144346","Mapping"
"Mixed","Both","done","45","m150depth.wav","None","734.856663737","176","326802.960403","333674.502827","334441.927511","335208.841759","335976.192861","336726.552114","337493.856222","323667.310353","327553.319655","328320.793806","329087.840996","329855.065339","330622.14561","331389.322032","332139.773108","332907.289924","336736.059016","Mapping"
"Mixed","Both","done","45","m150jolt.wav","None","732.255018782","176","326802.960403","333674.502827","334441.927511","335208.841759","335976.192861","336726.552114","337493.856222","338261.094787","327553.319655","328320.793806","329087.840996","329855.065339","330622.14561","331389.322032","332139.773108","332907.289924","337503.578305","Mapping"
"Mixed","Both","ball","9","m150cave.wav","None","730.605609715","176","341396.953525","333674.502827","334441.927511","335208.841759","335976.192861","336726.552114","337493.856222","338261.094787","327553.319655","328320.793806","329087.840996","329855.065339","330622.14561","331389.322032","332139.773108","332907.289924","338270.143503","Mapping"
"Mixed","Both","ball","9","m160knife.wav","None","720.160074532","176","341396.953525","333674.502827","334441.927511","335208.841759","335976.192861","336726.552114","337493.856222","338261.094787","342147.002373","328320.793806","329087.840996","329855.065339","330622.14561","331389.322032","332139.773108","332907.289924","341407.021257","Mapping"
"Mixed","Both","ball","9","m150tile.wav","None","735.183454119","176","341396.953525","333674.502827","334441.927511","335208.841759","335976.192861","336726.552114","337493.856222","338261.094787","342147.002373","342914.679337","329087.840996","329855.065339","330622.14561","331389.322032","332139.773108","332907.289924","342156.980756","Mapping"
"Mixed","Both","ball","9","m160ball.wav","None","732.650753111","176","341396.953525","333674.502827","334441.927511","335208.841759","335976.192861","336726.552114","337493.856222","338261.094787","342147.002373","342914.679337","343681.671186","329855.065339","330622.14561","331389.322032","332139.773108","332907.289924","342924.46851","Mapping"
"Mixed","Both","ball","9","m160greet.wav","space","359.695741907","176","341396.953525","333674.502827","334441.927511","335208.841759","335976.192861","336726.552114","337493.856222","338261.094787","342147.002373","342914.679337","343681.671186","344449.223557","330622.14561","331389.322032","332139.773108","332907.289924","343691.539506","Mapping"
"Mixed","Both","ball","9","m150ball.wav","None","727.408817038","176","341396.953525","333674.502827","334441.927511","335208.841759","335976.192861","336726.552114","337493.856222","338261.094787","342147.002373","342914.679337","343681.671186","344449.223557","345216.018775","331389.322032","332139.773108","332907.289924","344459.121556","Mapping"
"Mixed","Both","ball","9","m160greet.wav","space","658.140443731","176","341396.953525","333674.502827","334441.927511","335208.841759","335976.192861","336726.552114","337493.856222","338261.094787","342147.002373","342914.679337","343681.671186","344449.223557","345216.018775","345983.385644","332139.773108","332907.289924","345225.046468","Mapping"
"Mixed","Both","ball","9","m160cling.wav","None","722.118960228","176","341396.953525","333674.502827","334441.927511","335208.841759","335976.192861","336726.552114","337493.856222","338261.094787","342147.002373","342914.679337","343681.671186","344449.223557","345216.018775","345983.385644","346750.700573","332907.289924","345992.715394","Mapping"
"Mixed","Both","ball","9","m160ball.wav","None","719.367059879","176","341396.953525","333674.502827","334441.927511","335208.841759","335976.192861","336726.552114","337493.856222","338261.094787","342147.002373","342914.679337","343681.671186","344449.223557","345216.018775","345983.385644","346750.700573","347501.275934","346760.356804","Mapping"
"Mixed","Both","ball","9","m150lash.wav","space","507.388795726","176","341396.953525","348268.539542","334441.927511","335208.841759","335976.192861","336726.552114","337493.856222","338261.094787","342147.002373","342914.679337","343681.671186","344449.223557","345216.018775","345983.385644","346750.700573","347501.275934","347511.710648","Mapping"
"Mixed","Both","ball","9","m150jolt.wav","None","730.232444592","176","341396.953525","348268.539542","349035.669588","335208.841759","335976.192861","336726.552114","337493.856222","338261.094787","342147.002373","342914.679337","343681.671186","344449.223557","345216.018775","345983.385644","346750.700573","347501.275934","348278.477733","Mapping"
"Mixed","Both","ball","9","m150priest.wav","None","728.083421011","176","341396.953525","348268.539542","349035.669588","349803.177129","335976.192861","336726.552114","337493.856222","338261.094787","342147.002373","342914.679337","343681.671186","344449.223557","345216.018775","345983.385644","346750.700573","347501.275934","349045.655701","Mapping"
"Mixed","Both","ball","9","m150ball.wav","None","726.560770534","176","341396.953525","348268.539542","349035.669588","349803.177129","350570.225247","336726.552114","337493.856222","338261.094787","342147.002373","342914.679337","343681.671186","344449.223557","345216.018775","345983.385644","346750.700573","347501.275934","349812.78142","Mapping"
"Mixed","Both","ball","9","m150lash.wav","space","414.949240629","176","341396.953525","348268.539542","349035.669588","349803.177129","350570.225247","351337.38281","337493.856222","338261.094787","342147.002373","342914.679337","343681.671186","344449.223557","345216.018775","345983.385644","346750.700573","347501.275934","350580.057085","Mapping"
