"Condition","Talker","Target","Trial","current_stimulus","response_response","response_time_response","subject_nr","time_Audio1","time_Audio10","time_Audio11","time_Audio12","time_Audio13","time_Audio14","time_Audio15","time_Audio16","time_Audio2","time_Audio3","time_Audio4","time_Audio5","time_Audio6","time_Audio7","time_Audio8","time_Audio9","time_response","title"
"Mixed","Both","cave","17","m160park.wav","NA","NA","180","176003.475736","NA","NA","NA","NA","NA","NA","NA","NA","NA","NA","NA","NA","NA","NA","NA","NA","Mapping"
"Mixed","Both","cave","17","m150cave.wav","space","0.0810036435723","180","176003.475736","NA","NA","NA","NA","NA","NA","NA","176769.72276","NA","NA","NA","NA","NA","NA","NA","176017.843059","Mapping"
"Mixed","Both","cave","17","m150jolt.wav","None","723.930976354","180","176003.475736","NA","NA","NA","NA","NA","NA","NA","176769.72276","177536.390262","NA","NA","NA","NA","NA","NA","176779.01468","Mapping"
"Mixed","Both","cave","17","m150knife.wav","space","29.7864566091","180","176003.475736","NA","NA","NA","NA","NA","NA","NA","176769.72276","177536.390262","178303.278513","NA","NA","NA","NA","NA","177546.379988","Mapping"
"Mixed","Both","cave","17","m150bluff.wav","None","722.579576075","180","176003.475736","NA","NA","NA","NA","NA","NA","NA","176769.72276","177536.390262","178303.278513","179069.344053","NA","NA","NA","NA","178313.509396","Mapping"
"Mixed","Both","cave","17","m160gnash.wav","None","723.966222256","180","176003.475736","NA","NA","NA","NA","NA","NA","NA","176769.72276","177536.390262","178303.278513","179069.344053","179836.792219","NA","NA","NA","179078.500555","Mapping"
"Mixed","Both","cave","17","m150park.wav","None","721.750370925","180","176003.475736","NA","NA","NA","NA","NA","NA","NA","176769.72276","177536.390262","178303.278513","179069.344053","179836.792219","180602.535908","NA","NA","179847.252508","Mapping"
"Mixed","Both","cave","17","m160cave.wav","None","724.451316288","180","176003.475736","NA","NA","NA","NA","NA","NA","NA","176769.72276","177536.390262","178303.278513","179069.344053","179836.792219","180602.535908","181369.01234","NA","180611.624083","Mapping"
"Mixed","Both","cave","17","m160lash.wav","space","454.190129181","180","176003.475736","NA","NA","NA","NA","NA","NA","NA","176769.72276","177536.390262","178303.278513","179069.344053","179836.792219","180602.535908","181369.01234","182136.342092","181377.910991","Mapping"
"Mixed","Both","cave","17","m160cave.wav","None","723.181538051","180","176003.475736","182902.464211","NA","NA","NA","NA","NA","NA","176769.72276","177536.390262","178303.278513","179069.344053","179836.792219","180602.535908","181369.01234","182136.342092","182145.677915","Mapping"
"Mixed","Both","cave","17","m160lash.wav","None","720.417521195","180","176003.475736","182902.464211","183652.569253","NA","NA","NA","NA","NA","176769.72276","177536.390262","178303.278513","179069.344053","179836.792219","180602.535908","181369.01234","182136.342092","182911.538472","Mapping"
"Mixed","Both","cave","17","m150cave.wav","space","0.0333909410983","180","176003.475736","182902.464211","183652.569253","184419.34311","NA","NA","NA","NA","176769.72276","177536.390262","178303.278513","179069.344053","179836.792219","180602.535908","181369.01234","182136.342092","183662.397281","Mapping"
"Mixed","Both","cave","17","m160done.wav","space","315.353001235","180","176003.475736","182902.464211","183652.569253","184419.34311","185185.955888","NA","NA","NA","176769.72276","177536.390262","178303.278513","179069.344053","179836.792219","180602.535908","181369.01234","182136.342092","184428.709232","Mapping"
"Mixed","Both","cave","17","m150done.wav","None","729.358837707","180","176003.475736","182902.464211","183652.569253","184419.34311","185185.955888","185952.517961","NA","NA","176769.72276","177536.390262","178303.278513","179069.344053","179836.792219","180602.535908","181369.01234","182136.342092","185195.588827","Mapping"
"Mixed","Both","cave","17","m160park.wav","None","729.254646227","180","176003.475736","182902.464211","183652.569253","184419.34311","185185.955888","185952.517961","186719.307895","NA","176769.72276","177536.390262","178303.278513","179069.344053","179836.792219","180602.535908","181369.01234","182136.342092","185962.133586","Mapping"
"Mixed","Both","cave","17","m150knife.wav","None","725.733152358","180","176003.475736","182902.464211","183652.569253","184419.34311","185185.955888","185952.517961","186719.307895","187486.777703","176769.72276","177536.390262","178303.278513","179069.344053","179836.792219","180602.535908","181369.01234","182136.342092","186728.917028","Mapping"
"Mixed","Both","tile","34","m150cave.wav","None","721.476133447","180","190652.691376","182902.464211","183652.569253","184419.34311","185185.955888","185952.517961","186719.307895","187486.777703","176769.72276","177536.390262","178303.278513","179069.344053","179836.792219","180602.535908","181369.01234","182136.342092","187496.706522","Mapping"
"Mixed","Both","tile","34","m160jaw.wav","None","720.483993646","180","190652.691376","182902.464211","183652.569253","184419.34311","185185.955888","185952.517961","186719.307895","187486.777703","191418.99498","177536.390262","178303.278513","179069.344053","179836.792219","180602.535908","181369.01234","182136.342092","190662.859805","Mapping"
"Mixed","Both","tile","34","m150reek.wav","None","722.394071519","180","190652.691376","182902.464211","183652.569253","184419.34311","185185.955888","185952.517961","186719.307895","187486.777703","191418.99498","192186.263825","178303.278513","179069.344053","179836.792219","180602.535908","181369.01234","182136.342092","191427.832723","Mapping"
"Mixed","Both","tile","34","m160jolt.wav","None","721.578160999","180","190652.691376","182902.464211","183652.569253","184419.34311","185185.955888","185952.517961","186719.307895","187486.777703","191418.99498","192186.263825","192953.539781","179069.344053","179836.792219","180602.535908","181369.01234","182136.342092","192195.840804","Mapping"
"Mixed","Both","tile","34","m150tile.wav","None","720.72576778","180","190652.691376","182902.464211","183652.569253","184419.34311","185185.955888","185952.517961","186719.307895","187486.777703","191418.99498","192186.263825","192953.539781","193718.607306","179836.792219","180602.535908","181369.01234","182136.342092","192963.400272","Mapping"
"Mixed","Both","tile","34","m150lash.wav","space","320.516827749","180","190652.691376","182902.464211","183652.569253","184419.34311","185185.955888","185952.517961","186719.307895","187486.777703","191418.99498","192186.263825","192953.539781","193718.607306","194486.144515","180602.535908","181369.01234","182136.342092","193727.428045","Mapping"
"Mixed","Both","tile","34","m160tile.wav","None","723.579754354","180","190652.691376","182902.464211","183652.569253","184419.34311","185185.955888","185952.517961","186719.307895","187486.777703","191418.99498","192186.263825","192953.539781","193718.607306","194486.144515","195252.755437","181369.01234","182136.342092","194495.70789","Mapping"
"Mixed","Both","tile","34","m160dime.wav","space","657.173474319","180","190652.691376","182902.464211","183652.569253","184419.34311","185185.955888","185952.517961","186719.307895","187486.777703","191418.99498","192186.263825","192953.539781","193718.607306","194486.144515","195252.755437","196018.822213","182136.342092","195262.719193","Mapping"
"Mixed","Both","tile","34","m160cling.wav","None","724.446369568","180","190652.691376","182902.464211","183652.569253","184419.34311","185185.955888","185952.517961","186719.307895","187486.777703","191418.99498","192186.263825","192953.539781","193718.607306","194486.144515","195252.755437","196018.822213","196786.439189","196027.940996","Mapping"
"Mixed","Both","tile","34","m150ball.wav","None","722.497954033","180","190652.691376","197552.806791","183652.569253","184419.34311","185185.955888","185952.517961","186719.307895","187486.777703","191418.99498","192186.263825","192953.539781","193718.607306","194486.144515","195252.755437","196018.822213","196786.439189","196796.624931","Mapping"
"Mixed","Both","tile","34","m160jaw.wav","None","723.300570156","180","190652.691376","197552.806791","198318.835848","184419.34311","185185.955888","185952.517961","186719.307895","187486.777703","191418.99498","192186.263825","192953.539781","193718.607306","194486.144515","195252.755437","196018.822213","196786.439189","197562.755706","Mapping"
"Mixed","Both","tile","34","m160tile.wav","None","721.716979984","180","190652.691376","197552.806791","198318.835848","199068.567717","185185.955888","185952.517961","186719.307895","187486.777703","191418.99498","192186.263825","192953.539781","193718.607306","194486.144515","195252.755437","196018.822213","196786.439189","198327.682866","Mapping"
"Mixed","Both","tile","34","m150depth.wav","space","418.219262036","180","190652.691376","197552.806791","198318.835848","199068.567717","199835.600971","185952.517961","186719.307895","187486.777703","191418.99498","192186.263825","192953.539781","193718.607306","194486.144515","195252.755437","196018.822213","196786.439189","199077.614152","Mapping"
"Mixed","Both","tile","34","m150tile.wav","None","734.41136186","180","190652.691376","197552.806791","198318.835848","199068.567717","199835.600971","200601.960226","186719.307895","187486.777703","191418.99498","192186.263825","192953.539781","193718.607306","194486.144515","195252.755437","196018.822213","196786.439189","199845.213196","Mapping"
"Mixed","Both","tile","34","m160done.wav","space","476.709447103","180","190652.691376","197552.806791","198318.835848","199068.567717","199835.600971","200601.960226","201369.122406","187486.777703","191418.99498","192186.263825","192953.539781","193718.607306","194486.144515","195252.755437","196018.822213","196786.439189","200611.091994","Mapping"
"Mixed","Both","tile","34","m150depth.wav","None","728.03248046","180","190652.691376","197552.806791","198318.835848","199068.567717","199835.600971","200601.960226","201369.122406","202135.361083","191418.99498","192186.263825","192953.539781","193718.607306","194486.144515","195252.755437","196018.822213","196786.439189","201378.691037","Mapping"
"Mixed","Both","tile","28","m150ball.wav","None","725.639781682","180","205252.518919","197552.806791","198318.835848","199068.567717","199835.600971","200601.960226","201369.122406","202135.361083","191418.99498","192186.263825","192953.539781","193718.607306","194486.144515","195252.755437","196018.822213","196786.439189","202144.570144","Mapping"
"Mixed","Both","tile","28","m160bluff.wav","space","0.0330817420036","180","205252.518919","197552.806791","198318.835848","199068.567717","199835.600971","200601.960226","201369.122406","202135.361083","206019.479827","192186.263825","192953.539781","193718.607306","194486.144515","195252.755437","196018.822213","196786.439189","205262.32345","Mapping"
"Mixed","Both","tile","28","m160tile.wav","None","719.350561034","180","205252.518919","197552.806791","198318.835848","199068.567717","199835.600971","200601.960226","201369.122406","202135.361083","206019.479827","206768.605714","192953.539781","193718.607306","194486.144515","195252.755437","196018.822213","196786.439189","206029.18975","Mapping"
"Mixed","Both","tile","28","m160jaw.wav","space","494.272703305","180","205252.518919","197552.806791","198318.835848","199068.567717","199835.600971","200601.960226","201369.122406","202135.361083","206019.479827","206768.605714","207535.517772","193718.607306","194486.144515","195252.755437","196018.822213","196786.439189","206777.451805","Mapping"
"Mixed","Both","tile","28","m150tile.wav","None","730.830815854","180","205252.518919","197552.806791","198318.835848","199068.567717","199835.600971","200601.960226","201369.122406","202135.361083","206019.479827","206768.605714","207535.517772","208302.19795","194486.144515","195252.755437","196018.822213","196786.439189","207544.51474","Mapping"
"Mixed","Both","tile","28","m160priest.wav","space","519.966312218","180","205252.518919","197552.806791","198318.835848","199068.567717","199835.600971","200601.960226","201369.122406","202135.361083","206019.479827","206768.605714","207535.517772","208302.19795","209068.901625","195252.755437","196018.822213","196786.439189","208311.740301","Mapping"
"Mixed","Both","tile","28","m160jaw.wav","None","726.565140067","180","205252.518919","197552.806791","198318.835848","199068.567717","199835.600971","200601.960226","201369.122406","202135.361083","206019.479827","206768.605714","207535.517772","208302.19795","209068.901625","209835.957758","196018.822213","196786.439189","209078.667818","Mapping"
"Mixed","Both","tile","28","m150cling.wav","None","723.11784816","180","205252.518919","197552.806791","198318.835848","199068.567717","199835.600971","200601.960226","201369.122406","202135.361083","206019.479827","206768.605714","207535.517772","208302.19795","209068.901625","209835.957758","210602.457996","196786.439189","209845.586987","Mapping"
"Mixed","Both","tile","28","m150ball.wav","None","723.653647117","180","205252.518919","197552.806791","198318.835848","199068.567717","199835.600971","200601.960226","201369.122406","202135.361083","206019.479827","206768.605714","207535.517772","208302.19795","209068.901625","209835.957758","210602.457996","211369.253496","210612.339202","Mapping"
"Mixed","Both","tile","28","m150tile.wav","None","720.361869782","180","205252.518919","212118.357741","198318.835848","199068.567717","199835.600971","200601.960226","201369.122406","202135.361083","206019.479827","206768.605714","207535.517772","208302.19795","209068.901625","209835.957758","210602.457996","211369.253496","211379.116151","Mapping"
"Mixed","Both","tile","28","m150depth.wav","space","296.177401673","180","205252.518919","212118.357741","212885.207655","199068.567717","199835.600971","200601.960226","201369.122406","202135.361083","206019.479827","206768.605714","207535.517772","208302.19795","209068.901625","209835.957758","210602.457996","211369.253496","212127.496311","Mapping"
"Mixed","Both","tile","28","m160tile.wav","None","732.062256662","180","205252.518919","212118.357741","212885.207655","213651.860935","199835.600971","200601.960226","201369.122406","202135.361083","206019.479827","206768.605714","207535.517772","208302.19795","209068.901625","209835.957758","210602.457996","211369.253496","212894.166595","Mapping"
"Mixed","Both","tile","28","m160romp.wav","None","728.845608654","180","205252.518919","212118.357741","212885.207655","213651.860935","214418.405385","200601.960226","201369.122406","202135.361083","206019.479827","206768.605714","207535.517772","208302.19795","209068.901625","209835.957758","210602.457996","211369.253496","213660.928394","Mapping"
"Mixed","Both","tile","28","m150jaw.wav","space","92.2288149595","180","205252.518919","212118.357741","212885.207655","213651.860935","214418.405385","215185.513769","201369.122406","202135.361083","206019.479827","206768.605714","207535.517772","208302.19795","209068.901625","209835.957758","210602.457996","211369.253496","214427.407609","Mapping"
"Mixed","Both","tile","28","m150romp.wav","None","728.784083156","180","205252.518919","212118.357741","212885.207655","213651.860935","214418.405385","215185.513769","215952.191164","202135.361083","206019.479827","206768.605714","207535.517772","208302.19795","209068.901625","209835.957758","210602.457996","211369.253496","215194.973261","Mapping"
"Mixed","Both","tile","28","m160cave.wav","None","729.702021228","180","205252.518919","212118.357741","212885.207655","213651.860935","214418.405385","215185.513769","215952.191164","216718.877834","206019.479827","206768.605714","207535.517772","208302.19795","209068.901625","209835.957758","210602.457996","211369.253496","215961.662714","Mapping"
"Mixed","Both","ball","1","m150bluff.wav","None","726.391074946","180","219835.615502","212118.357741","212885.207655","213651.860935","214418.405385","215185.513769","215952.191164","216718.877834","206019.479827","206768.605714","207535.517772","208302.19795","209068.901625","209835.957758","210602.457996","211369.253496","216728.56797","Mapping"
"Mixed","Both","ball","1","m160depth.wav","None","719.781859079","180","219835.615502","212118.357741","212885.207655","213651.860935","214418.405385","215185.513769","215952.191164","216718.877834","220601.864073","206768.605714","207535.517772","208302.19795","209068.901625","209835.957758","210602.457996","211369.253496","219845.708802","Mapping"
"Mixed","Both","ball","1","m150done.wav","None","721.231885953","180","219835.615502","212118.357741","212885.207655","213651.860935","214418.405385","215185.513769","215952.191164","216718.877834","220601.864073","221351.753929","207535.517772","208302.19795","209068.901625","209835.957758","210602.457996","211369.253496","220611.050874","Mapping"
"Mixed","Both","ball","1","m160ball.wav","None","735.327135772","180","219835.615502","212118.357741","212885.207655","213651.860935","214418.405385","215185.513769","215952.191164","216718.877834","220601.864073","221351.753929","222118.550666","208302.19795","209068.901625","209835.957758","210602.457996","211369.253496","221360.435849","Mapping"
"Mixed","Both","ball","1","m150knife.wav","space","375.462949509","180","219835.615502","212118.357741","212885.207655","213651.860935","214418.405385","215185.513769","215952.191164","216718.877834","220601.864073","221351.753929","222118.550666","222884.975465","209068.901625","209835.957758","210602.457996","211369.253496","222128.019124","Mapping"
"Mixed","Both","ball","1","m150lash.wav","None","732.266929699","180","219835.615502","212118.357741","212885.207655","213651.860935","214418.405385","215185.513769","215952.191164","216718.877834","220601.864073","221351.753929","222118.550666","222884.975465","223651.936682","209835.957758","210602.457996","211369.253496","222894.39662","Mapping"
"Mixed","Both","ball","1","m160tile.wav","None","728.668451775","180","219835.615502","212118.357741","212885.207655","213651.860935","214418.405385","215185.513769","215952.191164","216718.877834","220601.864073","221351.753929","222118.550666","222884.975465","223651.936682","224418.753515","210602.457996","211369.253496","223661.542105","Mapping"
"Mixed","Both","ball","1","m160cling.wav","None","725.502817659","180","219835.615502","212118.357741","212885.207655","213651.860935","214418.405385","215185.513769","215952.191164","216718.877834","220601.864073","221351.753929","222118.550666","222884.975465","223651.936682","224418.753515","225185.612704","211369.253496","224428.134168","Mapping"
"Mixed","Both","ball","1","m150reek.wav","None","722.221243195","180","219835.615502","212118.357741","212885.207655","213651.860935","214418.405385","215185.513769","215952.191164","216718.877834","220601.864073","221351.753929","222118.550666","222884.975465","223651.936682","224418.753515","225185.612704","225952.22981","225195.457428","Mapping"
"Mixed","Both","ball","1","m160ball.wav","None","719.148052158","180","219835.615502","226701.563463","212885.207655","213651.860935","214418.405385","215185.513769","215952.191164","216718.877834","220601.864073","221351.753929","222118.550666","222884.975465","223651.936682","224418.753515","225185.612704","225952.22981","225962.061548","Mapping"
"Mixed","Both","ball","1","m150priest.wav","space","440.718483645","180","219835.615502","226701.563463","227468.123371","213651.860935","214418.405385","215185.513769","215952.191164","216718.877834","220601.864073","221351.753929","222118.550666","222884.975465","223651.936682","224418.753515","225185.612704","225952.22981","226710.706052","Mapping"
"Mixed","Both","ball","1","m160lash.wav","None","733.891021693","180","219835.615502","226701.563463","227468.123371","228235.345531","214418.405385","215185.513769","215952.191164","216718.877834","220601.864073","221351.753929","222118.550666","222884.975465","223651.936682","224418.753515","225185.612704","225952.22981","227477.21371","Mapping"
"Mixed","Both","ball","1","m150ball.wav","None","730.088797864","180","219835.615502","226701.563463","227468.123371","228235.345531","229001.563803","215185.513769","215952.191164","216718.877834","220601.864073","221351.753929","222118.550666","222884.975465","223651.936682","224418.753515","225185.612704","225952.22981","228244.858202","Mapping"
"Mixed","Both","ball","1","m160romp.wav","space","572.78129668","180","219835.615502","226701.563463","227468.123371","228235.345531","229001.563803","229768.323747","215952.191164","216718.877834","220601.864073","221351.753929","222118.550666","222884.975465","223651.936682","224418.753515","225185.612704","225952.22981","229010.671146","Mapping"
"Mixed","Both","ball","1","m150ball.wav","None","724.423181498","180","219835.615502","226701.563463","227468.123371","228235.345531","229001.563803","229768.323747","230535.690601","216718.877834","220601.864073","221351.753929","222118.550666","222884.975465","223651.936682","224418.753515","225185.612704","225952.22981","229777.529408","Mapping"
"Mixed","Both","ball","1","m160lash.wav","space","277.82049519","180","219835.615502","226701.563463","227468.123371","228235.345531","229001.563803","229768.323747","230535.690601","231285.199555","220601.864073","221351.753929","222118.550666","222884.975465","223651.936682","224418.753515","225185.612704","225952.22981","230545.596541","Mapping"
"Mixed","Both","ball","12","m150dime.wav","None","733.969551977","180","234418.564609","226701.563463","227468.123371","228235.345531","229001.563803","229768.323747","230535.690601","231285.199555","220601.864073","221351.753929","222118.550666","222884.975465","223651.936682","224418.753515","225185.612704","225952.22981","231294.70666","Mapping"
"Mixed","Both","ball","12","m160dime.wav","None","725.123770069","180","234418.564609","226701.563463","227468.123371","228235.345531","229001.563803","229768.323747","230535.690601","231285.199555","235185.203358","221351.753929","222118.550666","222884.975465","223651.936682","224418.753515","225185.612704","225952.22981","234427.873225","Mapping"
"Mixed","Both","ball","12","m150ball.wav","None","722.359444015","180","234418.564609","226701.563463","227468.123371","228235.345531","229001.563803","229768.323747","230535.690601","231285.199555","235185.203358","235934.746939","222118.550666","222884.975465","223651.936682","224418.753515","225185.612704","225952.22981","235194.195997","Mapping"
"Mixed","Both","ball","12","m160tile.wav","space","351.353858365","180","234418.564609","226701.563463","227468.123371","228235.345531","229001.563803","229768.323747","230535.690601","231285.199555","235185.203358","235934.746939","236701.439793","222884.975465","223651.936682","224418.753515","225185.612704","225952.22981","235943.931267","Mapping"
"Mixed","Both","ball","12","m150cling.wav","None","732.698536944","180","234418.564609","226701.563463","227468.123371","228235.345531","229001.563803","229768.323747","230535.690601","231285.199555","235185.203358","235934.746939","236701.439793","237468.570128","223651.936682","224418.753515","225185.612704","225952.22981","236710.536624","Mapping"
"Mixed","Both","ball","12","m150ball.wav","None","729.390991852","180","234418.564609","226701.563463","227468.123371","228235.345531","229001.563803","229768.323747","230535.690601","231285.199555","235185.203358","235934.746939","236701.439793","237468.570128","238235.180432","224418.753515","225185.612704","225952.22981","237478.063939","Mapping"
"Mixed","Both","ball","12","m150reek.wav","space","450.473546749","180","234418.564609","226701.563463","227468.123371","228235.345531","229001.563803","229768.323747","230535.690601","231285.199555","235185.203358","235934.746939","236701.439793","237468.570128","238235.180432","239001.989536","225185.612704","225952.22981","238244.767923","Mapping"
"Mixed","Both","ball","12","m160ball.wav","None","722.24257607","180","234418.564609","226701.563463","227468.123371","228235.345531","229001.563803","229768.323747","230535.690601","231285.199555","235185.203358","235934.746939","236701.439793","237468.570128","238235.180432","239001.989536","239768.208734","225952.22981","239012.001522","Mapping"
"Mixed","Both","ball","12","m150knife.wav","space","421.946974704","180","234418.564609","226701.563463","227468.123371","228235.345531","229001.563803","229768.323747","230535.690601","231285.199555","235185.203358","235934.746939","236701.439793","237468.570128","238235.180432","239001.989536","239768.208734","240518.51845","239777.296291","Mapping"
"Mixed","Both","ball","12","m160tile.wav","None","732.869510306","180","234418.564609","241284.733011","227468.123371","228235.345531","229001.563803","229768.323747","230535.690601","231285.199555","235185.203358","235934.746939","236701.439793","237468.570128","238235.180432","239001.989536","239768.208734","240518.51845","240527.947334","Mapping"
"Mixed","Both","ball","12","m160cad.wav","None","730.652422411","180","234418.564609","241284.733011","242051.667021","228235.345531","229001.563803","229768.323747","230535.690601","231285.199555","235185.203358","235934.746939","236701.439793","237468.570128","238235.180432","239001.989536","239768.208734","240518.51845","241293.811292","Mapping"
"Mixed","Both","ball","12","m160dime.wav","None","730.027272133","180","234418.564609","241284.733011","242051.667021","242818.494056","229001.563803","229768.323747","230535.690601","231285.199555","235185.203358","235934.746939","236701.439793","237468.570128","238235.180432","239001.989536","239768.208734","240518.51845","242061.244618","Mapping"
"Mixed","Both","ball","12","m160greet.wav","None","726.927183103","180","234418.564609","241284.733011","242051.667021","242818.494056","243585.166813","229768.323747","230535.690601","231285.199555","235185.203358","235934.746939","236701.439793","237468.570128","238235.180432","239001.989536","239768.208734","240518.51845","242828.075672","Mapping"
"Mixed","Both","ball","12","m160ball.wav","None","727.190599311","180","234418.564609","241284.733011","242051.667021","242818.494056","243585.166813","244351.629951","230535.690601","231285.199555","235185.203358","235934.746939","236701.439793","237468.570128","238235.180432","239001.989536","239768.208734","240518.51845","243594.940736","Mapping"
"Mixed","Both","ball","12","m150bluff.wav","space","350.226918468","180","234418.564609","241284.733011","242051.667021","242818.494056","243585.166813","244351.629951","245118.141628","231285.199555","235185.203358","235934.746939","236701.439793","237468.570128","238235.180432","239001.989536","239768.208734","240518.51845","244360.926817","Mapping"
"Mixed","Both","ball","12","m150tile.wav","None","721.655763453","180","234418.564609","241284.733011","242051.667021","242818.494056","243585.166813","244351.629951","245118.141628","245867.872879","235185.203358","235934.746939","236701.439793","237468.570128","238235.180432","239001.989536","239768.208734","240518.51845","245127.138905","Mapping"
"Mixed","Both","tile","32","m150priest.wav","None","733.503008261","180","249001.878542","241284.733011","242051.667021","242818.494056","243585.166813","244351.629951","245118.141628","245867.872879","235185.203358","235934.746939","236701.439793","237468.570128","238235.180432","239001.989536","239768.208734","240518.51845","245878.975013","Mapping"
"Mixed","Both","tile","32","m150bluff.wav","None","719.212978613","180","249001.878542","241284.733011","242051.667021","242818.494056","243585.166813","244351.629951","245118.141628","245867.872879","249751.240639","235934.746939","236701.439793","237468.570128","238235.180432","239001.989536","239768.208734","240518.51845","249011.895166","Mapping"
"Mixed","Both","tile","32","m160park.wav","None","734.935102751","180","249001.878542","241284.733011","242051.667021","242818.494056","243585.166813","244351.629951","245118.141628","245867.872879","249751.240639","250518.43961","236701.439793","237468.570128","238235.180432","239001.989536","239768.208734","240518.51845","249759.980683","Mapping"
"Mixed","Both","tile","32","m150ball.wav","None","730.83947273","180","249001.878542","241284.733011","242051.667021","242818.494056","243585.166813","244351.629951","245118.141628","245867.872879","249751.240639","250518.43961","251284.58739","237468.570128","238235.180432","239001.989536","239768.208734","240518.51845","250527.824283","Mapping"
"Mixed","Both","tile","32","m160tile.wav","space","601.521507837","180","249001.878542","241284.733011","242051.667021","242818.494056","243585.166813","244351.629951","245118.141628","245867.872879","249751.240639","250518.43961","251284.58739","252051.583544","238235.180432","239001.989536","239768.208734","240518.51845","251293.563334","Mapping"
"Mixed","Both","tile","32","m160reek.wav","None","724.936101353","180","249001.878542","241284.733011","242051.667021","242818.494056","243585.166813","244351.629951","245118.141628","245867.872879","249751.240639","250518.43961","251284.58739","252051.583544","252817.846027","239001.989536","239768.208734","240518.51845","252060.919985","Mapping"
"Mixed","Both","tile","32","m160done.wav","None","731.541607296","180","249001.878542","241284.733011","242051.667021","242818.494056","243585.166813","244351.629951","245118.141628","245867.872879","249751.240639","250518.43961","251284.58739","252051.583544","252817.846027","253585.762283","239768.208734","240518.51845","252821.352062","Mapping"
"Mixed","Both","tile","32","m150knife.wav","None","720.939097926","180","249001.878542","241284.733011","242051.667021","242818.494056","243585.166813","244351.629951","245118.141628","245867.872879","249751.240639","250518.43961","251284.58739","252051.583544","252817.846027","253585.762283","254335.09408","240518.51845","253595.935968","Mapping"
"Mixed","Both","tile","32","m160knife.wav","None","736.593513051","180","249001.878542","241284.733011","242051.667021","242818.494056","243585.166813","244351.629951","245118.141628","245867.872879","249751.240639","250518.43961","251284.58739","252051.583544","252817.846027","253585.762283","254335.09408","255118.6799","254344.023648","Mapping"
"Mixed","Both","tile","32","m160tile.wav","None","719.164747512","180","249001.878542","255868.211424","242051.667021","242818.494056","243585.166813","244351.629951","245118.141628","245867.872879","249751.240639","250518.43961","251284.58739","252051.583544","252817.846027","253585.762283","254335.09408","255118.6799","255128.646748","Mapping"
"Mixed","Both","tile","32","m160depth.wav","space","441.433294443","180","249001.878542","255868.211424","256634.835951","242818.494056","243585.166813","244351.629951","245118.141628","245867.872879","249751.240639","250518.43961","251284.58739","252051.583544","252817.846027","253585.762283","254335.09408","255118.6799","255877.549102","Mapping"
"Mixed","Both","tile","32","m150tile.wav","None","730.703126872","180","249001.878542","255868.211424","256634.835951","257401.074318","243585.166813","244351.629951","245118.141628","245867.872879","249751.240639","250518.43961","251284.58739","252051.583544","252817.846027","253585.762283","254335.09408","255118.6799","256644.214749","Mapping"
"Mixed","Both","tile","32","m150knife.wav","space","629.08902159","180","249001.878542","255868.211424","256634.835951","257401.074318","258168.131688","244351.629951","245118.141628","245867.872879","249751.240639","250518.43961","251284.58739","252051.583544","252817.846027","253585.762283","254335.09408","255118.6799","257409.825802","Mapping"
"Mixed","Both","tile","32","m150ball.wav","None","726.020066068","180","249001.878542","255868.211424","256634.835951","257401.074318","258168.131688","258935.385693","245118.141628","245867.872879","249751.240639","250518.43961","251284.58739","252051.583544","252817.846027","253585.762283","254335.09408","255118.6799","258177.602929","Mapping"
"Mixed","Both","tile","32","m150tile.wav","None","722.652231809","180","249001.878542","255868.211424","256634.835951","257401.074318","258168.131688","258935.385693","259701.795962","245867.872879","249751.240639","250518.43961","251284.58739","252051.583544","252817.846027","253585.762283","254335.09408","255118.6799","258944.709458","Mapping"
"Mixed","Both","tile","32","m160lash.wav","space","439.579176949","180","249001.878542","255868.211424","256634.835951","257401.074318","258168.131688","258935.385693","259701.795962","260451.42673","249751.240639","250518.43961","251284.58739","252051.583544","252817.846027","253585.762283","254335.09408","255118.6799","259711.366448","Mapping"
"Mixed","Both","ball","6","m150priest.wav","None","732.955460669","180","263585.252455","255868.211424","256634.835951","257401.074318","258168.131688","258935.385693","259701.795962","260451.42673","249751.240639","250518.43961","251284.58739","252051.583544","252817.846027","253585.762283","254335.09408","255118.6799","260461.400998","Mapping"
"Mixed","Both","ball","6","m160ball.wav","None","720.260769827","180","263585.252455","255868.211424","256634.835951","257401.074318","258168.131688","258935.385693","259701.795962","260451.42673","264334.688443","250518.43961","251284.58739","252051.583544","252817.846027","253585.762283","254335.09408","255118.6799","263594.638673","Mapping"
"Mixed","Both","ball","6","m160park.wav","space","446.622163989","180","263585.252455","255868.211424","256634.835951","257401.074318","258168.131688","258935.385693","259701.795962","260451.42673","264334.688443","265101.097476","251284.58739","252051.583544","252817.846027","253585.762283","254335.09408","255118.6799","264344.253055","Mapping"
"Mixed","Both","ball","6","m160jaw.wav","None","731.517491629","180","263585.252455","255868.211424","256634.835951","257401.074318","258168.131688","258935.385693","259701.795962","260451.42673","264334.688443","265101.097476","265867.612554","252051.583544","252817.846027","253585.762283","254335.09408","255118.6799","265110.194307","Mapping"
"Mixed","Both","ball","6","m160done.wav","None","729.175497312","180","263585.252455","255868.211424","256634.835951","257401.074318","258168.131688","258935.385693","259701.795962","260451.42673","264334.688443","265101.097476","265867.612554","266634.6489","252817.846027","253585.762283","254335.09408","255118.6799","265876.249643","Mapping"
"Mixed","Both","ball","6","m150ball.wav","None","724.945376627","180","263585.252455","255868.211424","256634.835951","257401.074318","258168.131688","258935.385693","259701.795962","260451.42673","264334.688443","265101.097476","265867.612554","266634.6489","267401.171399","253585.762283","254335.09408","255118.6799","266644.3715","Mapping"
"Mixed","Both","ball","6","m150gnash.wav","space","428.529601777","180","263585.252455","255868.211424","256634.835951","257401.074318","258168.131688","258935.385693","259701.795962","260451.42673","264334.688443","265101.097476","265867.612554","266634.6489","267401.171399","268167.783249","254335.09408","255118.6799","267410.324809","Mapping"
"Mixed","Both","ball","6","m150jaw.wav","None","728.931868216","180","263585.252455","255868.211424","256634.835951","257401.074318","258168.131688","258935.385693","259701.795962","260451.42673","264334.688443","265101.097476","265867.612554","266634.6489","267401.171399","268167.783249","268934.818977","255118.6799","268171.331332","Mapping"
"Mixed","Both","ball","6","m160ball.wav","None","719.451042823","180","263585.252455","255868.211424","256634.835951","257401.074318","258168.131688","258935.385693","259701.795962","260451.42673","264334.688443","265101.097476","265867.612554","266634.6489","267401.171399","268167.783249","268934.818977","269684.7212","268944.636493","Mapping"
"Mixed","Both","ball","6","m150greet.wav","space","248.340430437","180","263585.252455","270450.923704","256634.835951","257401.074318","258168.131688","258935.385693","259701.795962","260451.42673","264334.688443","265101.097476","265867.612554","266634.6489","267401.171399","268167.783249","268934.818977","269684.7212","269694.486157","Mapping"
"Mixed","Both","ball","6","m160knife.wav","None","734.688381664","180","263585.252455","270450.923704","271218.060532","257401.074318","258168.131688","258935.385693","259701.795962","260451.42673","264334.688443","265101.097476","265867.612554","266634.6489","267401.171399","268167.783249","268934.818977","269684.7212","270459.710743","Mapping"
"Mixed","Both","ball","6","m160bluff.wav","None","730.695397593","180","263585.252455","270450.923704","271218.060532","271984.355788","258168.131688","258935.385693","259701.795962","260451.42673","264334.688443","265101.097476","265867.612554","266634.6489","267401.171399","268167.783249","268934.818977","269684.7212","271227.455716","Mapping"
"Mixed","Both","ball","6","m150tile.wav","None","728.668451775","180","263585.252455","270450.923704","271218.060532","271984.355788","272750.893436","258935.385693","259701.795962","260451.42673","264334.688443","265101.097476","265867.612554","266634.6489","267401.171399","268167.783249","268934.818977","269684.7212","271993.131387","Mapping"
"Mixed","Both","ball","6","m160cave.wav","None","726.078499807","180","263585.252455","270450.923704","271218.060532","271984.355788","272750.893436","273518.344075","259701.795962","260451.42673","264334.688443","265101.097476","265867.612554","266634.6489","267401.171399","268167.783249","268934.818977","269684.7212","272759.692842","Mapping"
"Mixed","Both","ball","6","m150ball.wav","space","0.0383376609534","180","263585.252455","270450.923704","271218.060532","271984.355788","272750.893436","273518.344075","274267.210566","260451.42673","264334.688443","265101.097476","265867.612554","266634.6489","267401.171399","268167.783249","268934.818977","269684.7212","273528.169321","Mapping"
"Mixed","Both","ball","6","m150priest.wav","space","682.316753315","180","263585.252455","270450.923704","271218.060532","271984.355788","272750.893436","273518.344075","274267.210566","275034.261443","264334.688443","265101.097476","265867.612554","266634.6489","267401.171399","268167.783249","268934.818977","269684.7212","274276.403241","Mapping"
"Mixed","Both","tile","25","m160romp.wav","None","732.612277148","180","278168.28844","270450.923704","271218.060532","271984.355788","272750.893436","273518.344075","274267.210566","275034.261443","264334.688443","265101.097476","265867.612554","266634.6489","267401.171399","268167.783249","268934.818977","269684.7212","275043.161021","Mapping"
"Mixed","Both","tile","25","m150jolt.wav","None","720.132771647","180","278168.28844","270450.923704","271218.060532","271984.355788","272750.893436","273518.344075","274267.210566","275034.261443","278917.677743","265101.097476","265867.612554","266634.6489","267401.171399","268167.783249","268934.818977","269684.7212","278177.705266","Mapping"
"Mixed","Both","tile","25","m150dime.wav","None","734.710023971","180","278168.28844","270450.923704","271218.060532","271984.355788","272750.893436","273518.344075","274267.210566","275034.261443","278917.677743","279684.460876","265867.612554","266634.6489","267401.171399","268167.783249","268934.818977","269684.7212","278927.024387","Mapping"
"Mixed","Both","tile","25","m160cad.wav","None","731.647344772","180","278168.28844","270450.923704","271218.060532","271984.355788","272750.893436","273518.344075","274267.210566","275034.261443","278917.677743","279684.460876","280451.133633","266634.6489","267401.171399","268167.783249","268934.818977","269684.7212","279694.004464","Mapping"
"Mixed","Both","tile","25","m150tile.wav","None","729.01750938","180","278168.28844","270450.923704","271218.060532","271984.355788","272750.893436","273518.344075","274267.210566","275034.261443","278917.677743","279684.460876","280451.133633","281217.896051","267401.171399","268167.783249","268934.818977","269684.7212","280460.492026","Mapping"
"Mixed","Both","tile","25","m160dime.wav","space","339.211043203","180","278168.28844","270450.923704","271218.060532","271984.355788","272750.893436","273518.344075","274267.210566","275034.261443","278917.677743","279684.460876","280451.133633","281217.896051","281984.981865","268167.783249","268934.818977","269684.7212","281227.45417","Mapping"
"Mixed","Both","tile","25","m160park.wav","None","722.057690145","180","278168.28844","270450.923704","271218.060532","271984.355788","272750.893436","273518.344075","274267.210566","275034.261443","278917.677743","279684.460876","280451.133633","281217.896051","281984.981865","282751.402646","268934.818977","269684.7212","281994.918723","Mapping"
"Mixed","Both","tile","25","m150lash.wav","None","719.553379342","180","278168.28844","270450.923704","271218.060532","271984.355788","272750.893436","273518.344075","274267.210566","275034.261443","278917.677743","279684.460876","280451.133633","281217.896051","281984.981865","282751.402646","283500.62314","269684.7212","282761.499346","Mapping"
"Mixed","Both","tile","25","m160knife.wav","None","735.512640094","180","278168.28844","270450.923704","271218.060532","271984.355788","272750.893436","273518.344075","274267.210566","275034.261443","278917.677743","279684.460876","280451.133633","281217.896051","281984.981865","282751.402646","283500.62314","284267.853957","283509.462739","Mapping"
"Mixed","Both","tile","25","m160tile.wav","None","731.616427423","180","278168.28844","285034.518985","271218.060532","271984.355788","272750.893436","273518.344075","274267.210566","275034.261443","278917.677743","279684.460876","280451.133633","281217.896051","281984.981865","282751.402646","283500.62314","284267.853957","284277.225953","Mapping"
"Mixed","Both","tile","25","m160priest.wav","space","378.659192007","180","278168.28844","285034.518985","285801.060653","271984.355788","272750.893436","273518.344075","274267.210566","275034.261443","278917.677743","279684.460876","280451.133633","281217.896051","281984.981865","282751.402646","283500.62314","284267.853957","285043.88387","Mapping"
"Mixed","Both","tile","25","m150tile.wav","None","726.205879822","180","278168.28844","285034.518985","285801.060653","286567.516061","272750.893436","273518.344075","274267.210566","275034.261443","278917.677743","279684.460876","280451.133633","281217.896051","281984.981865","282751.402646","283500.62314","284267.853957","285810.390292","Mapping"
"Mixed","Both","tile","25","m150romp.wav","space","566.219693515","180","278168.28844","285034.518985","285801.060653","286567.516061","287334.830354","273518.344075","274267.210566","275034.261443","278917.677743","279684.460876","280451.133633","281217.896051","281984.981865","282751.402646","283500.62314","284267.853957","286576.30279","Mapping"
"Mixed","Both","tile","25","m150jaw.wav","None","718.903804664","180","278168.28844","285034.518985","285801.060653","286567.516061","287334.830354","288084.349202","274267.210566","275034.261443","278917.677743","279684.460876","280451.133633","281217.896051","281984.981865","282751.402646","283500.62314","284267.853957","287344.857181","Mapping"
"Mixed","Both","tile","25","m160tile.wav","None","734.244717052","180","278168.28844","285034.518985","285801.060653","286567.516061","287334.830354","288084.349202","288850.641366","275034.261443","278917.677743","279684.460876","280451.133633","281217.896051","281984.981865","282751.402646","283500.62314","284267.853957","288093.521472","Mapping"
"Mixed","Both","tile","25","m150jolt.wav","space","339.032649761","180","278168.28844","285034.518985","285801.060653","286567.516061","287334.830354","288084.349202","288850.641366","289617.40904","278917.677743","279684.460876","280451.133633","281217.896051","281984.981865","282751.402646","283500.62314","284267.853957","288859.422531","Mapping"
"Mixed","Both","cave","22","m150knife.wav","None","729.139015079","180","292751.349159","285034.518985","285801.060653","286567.516061","287334.830354","288084.349202","288850.641366","289617.40904","278917.677743","279684.460876","280451.133633","281217.896051","281984.981865","282751.402646","283500.62314","284267.853957","289626.215557","Mapping"
"Mixed","Both","cave","22","m160knife.wav","None","617.435938446","180","292751.349159","285034.518985","285801.060653","286567.516061","287334.830354","288084.349202","288850.641366","289617.40904","293500.92644","279684.460876","280451.133633","281217.896051","281984.981865","282751.402646","283500.62314","284267.853957","292862.990091","Mapping"
"Mixed","Both","cave","22","m160jolt.wav","None","734.113317914","180","292751.349159","285034.518985","285801.060653","286567.516061","287334.830354","288084.349202","288850.641366","289617.40904","293500.92644","294267.422659","280451.133633","281217.896051","281984.981865","282751.402646","283500.62314","284267.853957","293510.343267","Mapping"
"Mixed","Both","cave","22","m160cave.wav","None","731.955282157","180","292751.349159","285034.518985","285801.060653","286567.516061","287334.830354","288084.349202","288850.641366","289617.40904","293500.92644","294267.422659","295033.990916","281217.896051","281984.981865","282751.402646","283500.62314","284267.853957","294276.404787","Mapping"
"Mixed","Both","cave","22","m150jaw.wav","space","459.387655836","180","292751.349159","285034.518985","285801.060653","286567.516061","287334.830354","288084.349202","288850.641366","289617.40904","293500.92644","294267.422659","295033.990916","295800.548351","281984.981865","282751.402646","283500.62314","284267.853957","295043.023129","Mapping"
"Mixed","Both","cave","22","m150knife.wav","None","725.987602724","180","292751.349159","285034.518985","285801.060653","286567.516061","287334.830354","288084.349202","288850.641366","289617.40904","293500.92644","294267.422659","295033.990916","295800.548351","296567.369203","282751.402646","283500.62314","284267.853957","295809.239546","Mapping"
"Mixed","Both","cave","22","m150gnash.wav","None","728.766150773","180","292751.349159","285034.518985","285801.060653","286567.516061","287334.830354","288084.349202","288850.641366","289617.40904","293500.92644","294267.422659","295033.990916","295800.548351","296567.369203","297334.597856","283500.62314","284267.853957","296570.846794","Mapping"
"Mixed","Both","cave","22","m150cave.wav","None","718.867631163","180","292751.349159","285034.518985","285801.060653","286567.516061","287334.830354","288084.349202","288850.641366","289617.40904","293500.92644","294267.422659","295033.990916","295800.548351","296567.369203","297334.597856","298083.818041","284267.853957","297344.664875","Mapping"
"Mixed","Both","cave","22","m160depth.wav","space","401.553538395","180","292751.349159","285034.518985","285801.060653","286567.516061","287334.830354","288084.349202","288850.641366","289617.40904","293500.92644","294267.422659","295033.990916","295800.548351","296567.369203","297334.597856","298083.818041","298850.513987","298092.819956","Mapping"
"Mixed","Both","cave","22","m150cad.wav","None","700.861019082","180","292751.349159","299617.623298","285801.060653","286567.516061","287334.830354","288084.349202","288850.641366","289617.40904","293500.92644","294267.422659","295033.990916","295800.548351","296567.369203","297334.597856","298083.818041","298850.513987","298890.309647","Mapping"
"Mixed","Both","cave","22","m150cave.wav","None","738.57191857","180","292751.349159","299617.623298","300384.20083","286567.516061","287334.830354","288084.349202","288850.641366","289617.40904","293500.92644","294267.422659","295033.990916","295800.548351","296567.369203","297334.597856","298083.818041","298850.513987","299621.193641","Mapping"
"Mixed","Both","cave","22","m150romp.wav","space","521.745609818","180","292751.349159","299617.623298","300384.20083","301150.822573","287334.830354","288084.349202","288850.641366","289617.40904","293500.92644","294267.422659","295033.990916","295800.548351","296567.369203","297334.597856","298083.818041","298850.513987","300388.590175","Mapping"
"Mixed","Both","cave","22","m160jaw.wav","None","726.359848399","180","292751.349159","299617.623298","300384.20083","301150.822573","301917.347236","288084.349202","288850.641366","289617.40904","293500.92644","294267.422659","295033.990916","295800.548351","296567.369203","297334.597856","298083.818041","298850.513987","301160.378837","Mapping"
"Mixed","Both","cave","22","m160jolt.wav","None","724.42503646","180","292751.349159","299617.623298","300384.20083","301150.822573","301917.347236","302684.667404","288850.641366","289617.40904","293500.92644","294267.422659","295033.990916","295800.548351","296567.369203","297334.597856","298083.818041","298850.513987","301926.190235","Mapping"
"Mixed","Both","cave","22","m160cave.wav","None","720.368980896","180","292751.349159","299617.623298","300384.20083","301150.822573","301917.347236","302684.667404","303433.850798","289617.40904","293500.92644","294267.422659","295033.990916","295800.548351","296567.369203","297334.597856","298083.818041","298850.513987","302694.303744","Mapping"
"Mixed","Both","cave","22","m160reek.wav","space","394.656481221","180","292751.349159","299617.623298","300384.20083","301150.822573","301917.347236","302684.667404","303433.850798","304200.761929","293500.92644","294267.422659","295033.990916","295800.548351","296567.369203","297334.597856","298083.818041","298850.513987","303443.675425","Mapping"
"Mixed","Both","tile","33","m150reek.wav","None","731.56324937","180","307334.454399","299617.623298","300384.20083","301150.822573","301917.347236","302684.667404","303433.850798","304200.761929","293500.92644","294267.422659","295033.990916","295800.548351","296567.369203","297334.597856","298083.818041","298850.513987","304210.484838","Mapping"
"Mixed","Both","tile","33","m160tile.wav","None","719.657571288","180","307334.454399","299617.623298","300384.20083","301150.822573","301917.347236","302684.667404","303433.850798","304200.761929","308083.716632","294267.422659","295033.990916","295800.548351","296567.369203","297334.597856","298083.818041","298850.513987","307344.655291","Mapping"
"Mixed","Both","tile","33","m160cad.wav","None","735.68268586","180","307334.454399","299617.623298","300384.20083","301150.822573","301917.347236","302684.667404","303433.850798","304200.761929","308083.716632","308850.830272","295033.990916","295800.548351","296567.369203","297334.597856","298083.818041","298850.513987","308092.762449","Mapping"
"Mixed","Both","tile","33","m150ball.wav","space","42.091588024","180","307334.454399","299617.623298","300384.20083","301150.822573","301917.347236","302684.667404","303433.850798","304200.761929","308083.716632","308850.830272","309617.348133","295800.548351","296567.369203","297334.597856","298083.818041","298850.513987","308860.129612","Mapping"
"Mixed","Both","tile","33","m160jaw.wav","None","728.801396675","180","307334.454399","299617.623298","300384.20083","301150.822573","301917.347236","302684.667404","303433.850798","304200.761929","308083.716632","308850.830272","309617.348133","310384.115807","296567.369203","297334.597856","298083.818041","298850.513987","309626.797732","Mapping"
"Mixed","Both","tile","33","m150tile.wav","None","726.073862286","180","307334.454399","299617.623298","300384.20083","301150.822573","301917.347236","302684.667404","303433.850798","304200.761929","308083.716632","308850.830272","309617.348133","310384.115807","311150.496085","297334.597856","298083.818041","298850.513987","310393.662795","Mapping"
"Mixed","Both","tile","33","m150romp.wav","space","326.533047715","180","307334.454399","299617.623298","300384.20083","301150.822573","301917.347236","302684.667404","303433.850798","304200.761929","308083.716632","308850.830272","309617.348133","310384.115807","311150.496085","311917.1101","298083.818041","298850.513987","311159.642075","Mapping"
"Mixed","Both","tile","33","m160cave.wav","None","721.156756626","180","307334.454399","299617.623298","300384.20083","301150.822573","301917.347236","302684.667404","303433.850798","304200.761929","308083.716632","308850.830272","309617.348133","310384.115807","311150.496085","311917.1101","312667.251933","298850.513987","311925.929292","Mapping"
"Mixed","Both","tile","33","m160romp.wav","None","734.933556989","180","307334.454399","299617.623298","300384.20083","301150.822573","301917.347236","302684.667404","303433.850798","304200.761929","308083.716632","308850.830272","309617.348133","310384.115807","311150.496085","311917.1101","312667.251933","313433.703631","312676.579718","Mapping"
"Mixed","Both","tile","33","m150tile.wav","None","733.192597283","180","307334.454399","314200.60796","300384.20083","301150.822573","301917.347236","302684.667404","303433.850798","304200.761929","308083.716632","308850.830272","309617.348133","310384.115807","311150.496085","311917.1101","312667.251933","313433.703631","313442.733371","Mapping"
"Mixed","Both","tile","33","m160romp.wav","space","340.101464884","180","307334.454399","314200.60796","314966.889612","301150.822573","301917.347236","302684.667404","303433.850798","304200.761929","308083.716632","308850.830272","309617.348133","310384.115807","311150.496085","311917.1101","312667.251933","313433.703631","314210.026332","Mapping"
"Mixed","Both","tile","33","m150cad.wav","None","727.886241162","180","307334.454399","314200.60796","314966.889612","315734.144544","301917.347236","302684.667404","303433.850798","304200.761929","308083.716632","308850.830272","309617.348133","310384.115807","311150.496085","311917.1101","312667.251933","313433.703631","314975.995409","Mapping"
"Mixed","Both","tile","33","m160jaw.wav","None","725.152832456","180","307334.454399","314200.60796","314966.889612","315734.144544","316500.927677","302684.667404","303433.850798","304200.761929","308083.716632","308850.830272","309617.348133","310384.115807","311150.496085","311917.1101","312667.251933","313433.703631","315743.042886","Mapping"
"Mixed","Both","tile","33","m150gnash.wav","None","721.268677618","180","307334.454399","314200.60796","314966.889612","315734.144544","316500.927677","317250.568339","303433.850798","304200.761929","308083.716632","308850.830272","309617.348133","310384.115807","311150.496085","311917.1101","312667.251933","313433.703631","316510.990987","Mapping"
"Mixed","Both","tile","33","m160tile.wav","None","736.627831357","180","307334.454399","314200.60796","314966.889612","315734.144544","316500.927677","317250.568339","318017.195957","304200.761929","308083.716632","308850.830272","309617.348133","310384.115807","311150.496085","311917.1101","312667.251933","313433.703631","317259.713711","Mapping"
"Mixed","Both","tile","33","m150knife.wav","space","235.096337041","180","307334.454399","314200.60796","314966.889612","315734.144544","316500.927677","317250.568339","318017.195957","318783.925912","308083.716632","308850.830272","309617.348133","310384.115807","311150.496085","311917.1101","312667.251933","313433.703631","318026.970807","Mapping"
"Mixed","Both","ball","4","m160lash.wav","None","730.22297956","180","321917.641879","314200.60796","314966.889612","315734.144544","316500.927677","317250.568339","318017.195957","318783.925912","308083.716632","308850.830272","309617.348133","310384.115807","311150.496085","311917.1101","312667.251933","313433.703631","318793.384168","Mapping"
"Mixed","Both","ball","4","m160ball.wav","None","719.613049878","180","321917.641879","314200.60796","314966.889612","315734.144544","316500.927677","317250.568339","318017.195957","318783.925912","322667.148051","308850.830272","309617.348133","310384.115807","311150.496085","311917.1101","312667.251933","313433.703631","321927.205872","Mapping"
"Mixed","Both","ball","4","m150cave.wav","space","513.228789205","180","321917.641879","314200.60796","314966.889612","315734.144544","316500.927677","317250.568339","318017.195957","318783.925912","322667.148051","323433.920362","309617.348133","310384.115807","311150.496085","311917.1101","312667.251933","313433.703631","322676.785318","Mapping"
"Mixed","Both","ball","4","m160cling.wav","None","730.927896453","180","321917.641879","314200.60796","314966.889612","315734.144544","316500.927677","317250.568339","318017.195957","318783.925912","322667.148051","323433.920362","324200.459556","310384.115807","311150.496085","311917.1101","312667.251933","313433.703631","323443.650073","Mapping"
"Mixed","Both","ball","4","m160jolt.wav","None","728.656394174","180","321917.641879","314200.60796","314966.889612","315734.144544","316500.927677","317250.568339","318017.195957","318783.925912","322667.148051","323433.920362","324200.459556","324967.226921","311150.496085","311917.1101","312667.251933","313433.703631","324210.015511","Mapping"
"Mixed","Both","ball","4","m150ball.wav","None","725.920202909","180","321917.641879","314200.60796","314966.889612","315734.144544","316500.927677","317250.568339","318017.195957","318783.925912","322667.148051","323433.920362","324200.459556","324967.226921","325733.823931","311917.1101","312667.251933","313433.703631","324976.854295","Mapping"
"Mixed","Both","ball","4","m150park.wav","space","351.202362916","180","321917.641879","314200.60796","314966.889612","315734.144544","316500.927677","317250.568339","318017.195957","318783.925912","322667.148051","323433.920362","324200.459556","324967.226921","325733.823931","326500.595624","312667.251933","313433.703631","325742.762774","Mapping"
"Mixed","Both","ball","4","m150dime.wav","None","719.037986128","180","321917.641879","314200.60796","314966.889612","315734.144544","316500.927677","317250.568339","318017.195957","318783.925912","322667.148051","323433.920362","324200.459556","324967.226921","325733.823931","326500.595624","327250.366139","313433.703631","326510.791569","Mapping"
"Mixed","Both","ball","4","m150ball.wav","None","734.211326111","180","321917.641879","314200.60796","314966.889612","315734.144544","316500.927677","317250.568339","318017.195957","318783.925912","322667.148051","323433.920362","324200.459556","324967.226921","325733.823931","326500.595624","327250.366139","328017.239242","327259.940026","Mapping"
"Mixed","Both","ball","4","m150jolt.wav","space","442.989676958","180","321917.641879","328783.722784","314966.889612","315734.144544","316500.927677","317250.568339","318017.195957","318783.925912","322667.148051","323433.920362","324200.459556","324967.226921","325733.823931","326500.595624","327250.366139","328017.239242","328026.926595","Mapping"
"Mixed","Both","ball","4","m150bluff.wav","None","728.634751868","180","321917.641879","328783.722784","329550.367716","315734.144544","316500.927677","317250.568339","318017.195957","318783.925912","322667.148051","323433.920362","324200.459556","324967.226921","325733.823931","326500.595624","327250.366139","328017.239242","328792.895363","Mapping"
"Mixed","Both","ball","4","m160bluff.wav","None","725.859295344","180","321917.641879","328783.722784","329550.367716","330317.453839","316500.927677","317250.568339","318017.195957","318783.925912","322667.148051","323433.920362","324200.459556","324967.226921","325733.823931","326500.595624","327250.366139","328017.239242","329559.895227","Mapping"
"Mixed","Both","ball","4","m160ball.wav","None","722.607401898","180","321917.641879","328783.722784","329550.367716","330317.453839","331084.3761","317250.568339","318017.195957","318783.925912","322667.148051","323433.920362","324200.459556","324967.226921","325733.823931","326500.595624","327250.366139","328017.239242","330327.469536","Mapping"
"Mixed","Both","ball","4","m160greet.wav","space","384.005740751","180","321917.641879","328783.722784","329550.367716","330317.453839","331084.3761","331833.708516","318017.195957","318783.925912","322667.148051","323433.920362","324200.459556","324967.226921","325733.823931","326500.595624","327250.366139","328017.239242","331093.90794","Mapping"
"Mixed","Both","ball","4","m150dime.wav","None","734.279035358","180","321917.641879","328783.722784","329550.367716","330317.453839","331084.3761","331833.708516","332600.040873","318783.925912","322667.148051","323433.920362","324200.459556","324967.226921","325733.823931","326500.595624","327250.366139","328017.239242","331843.316412","Mapping"
"Mixed","Both","ball","4","m160romp.wav","None","734.546780121","180","321917.641879","328783.722784","329550.367716","330317.453839","331084.3761","331833.708516","332600.040873","333367.097934","322667.148051","323433.920362","324200.459556","324967.226921","325733.823931","326500.595624","327250.366139","328017.239242","332607.247104","Mapping"
"Mixed","Both","cave","18","m150park.wav","None","730.388696771","180","336500.637362","328783.722784","329550.367716","330317.453839","331084.3761","331833.708516","332600.040873","333367.097934","322667.148051","323433.920362","324200.459556","324967.226921","325733.823931","326500.595624","327250.366139","328017.239242","333376.245469","Mapping"
"Mixed","Both","cave","18","m150cave.wav","None","719.350870233","180","336500.637362","328783.722784","329550.367716","330317.453839","331084.3761","331833.708516","332600.040873","333367.097934","337250.212171","323433.920362","324200.459556","324967.226921","325733.823931","326500.595624","327250.366139","328017.239242","336510.37573","Mapping"
"Mixed","Both","cave","18","m150jaw.wav","space","426.032711286","180","336500.637362","328783.722784","329550.367716","330317.453839","331084.3761","331833.708516","332600.040873","333367.097934","337250.212171","338016.773625","324200.459556","324967.226921","325733.823931","326500.595624","327250.366139","328017.239242","337259.778947","Mapping"
"Mixed","Both","cave","18","m150cave.wav","None","731.705160346","180","336500.637362","328783.722784","329550.367716","330317.453839","331084.3761","331833.708516","332600.040873","333367.097934","337250.212171","338016.773625","338783.279738","324967.226921","325733.823931","326500.595624","327250.366139","328017.239242","338025.264475","Mapping"
"Mixed","Both","cave","18","m160dime.wav","space","693.239257904","180","336500.637362","328783.722784","329550.367716","330317.453839","331084.3761","331833.708516","332600.040873","333367.097934","337250.212171","338016.773625","338783.279738","339550.236008","325733.823931","326500.595624","327250.366139","328017.239242","338792.556508","Mapping"
"Mixed","Both","cave","18","m160cling.wav","None","724.702056497","180","336500.637362","328783.722784","329550.367716","330317.453839","331084.3761","331833.708516","332600.040873","333367.097934","337250.212171","338016.773625","338783.279738","339550.236008","340316.718932","326500.595624","327250.366139","328017.239242","339559.661491","Mapping"
"Mixed","Both","cave","18","m160cave.wav","None","722.824750934","180","336500.637362","328783.722784","329550.367716","330317.453839","331084.3761","331833.708516","332600.040873","333367.097934","337250.212171","338016.773625","338783.279738","339550.236008","340316.718932","341083.849268","327250.366139","328017.239242","340325.760112","Mapping"
"Mixed","Both","cave","18","m160reek.wav","space","536.040585954","180","336500.637362","328783.722784","329550.367716","330317.453839","331084.3761","331833.708516","332600.040873","333367.097934","337250.212171","338016.773625","338783.279738","339550.236008","340316.718932","341083.849268","341833.584228","328017.239242","341093.682552","Mapping"
"Mixed","Both","cave","18","m160reek.wav","None","732.384106843","180","336500.637362","328783.722784","329550.367716","330317.453839","331084.3761","331833.708516","332600.040873","333367.097934","337250.212171","338016.773625","338783.279738","339550.236008","340316.718932","341083.849268","341833.584228","342600.237817","341843.524177","Mapping"
"Mixed","Both","cave","18","m160bluff.wav","None","730.453005061","180","336500.637362","343366.448049","329550.367716","330317.453839","331084.3761","331833.708516","332600.040873","333367.097934","337250.212171","338016.773625","338783.279738","339550.236008","340316.718932","341083.849268","341833.584228","342600.237817","342609.701947","Mapping"
"Mixed","Both","cave","18","m160cave.wav","None","729.405832244","180","336500.637362","343366.448049","344133.567563","330317.453839","331084.3761","331833.708516","332600.040873","333367.097934","337250.212171","338016.773625","338783.279738","339550.236008","340316.718932","341083.849268","341833.584228","342600.237817","343375.495104","Mapping"
"Mixed","Both","cave","18","m150park.wav","space","567.029111553","180","336500.637362","343366.448049","344133.567563","344900.386251","331084.3761","331833.708516","332600.040873","333367.097934","337250.212171","338016.773625","338783.279738","339550.236008","340316.718932","341083.849268","341833.584228","342600.237817","344142.654501","Mapping"
"Mixed","Both","cave","18","m160park.wav","None","721.627628664","180","336500.637362","343366.448049","344133.567563","344900.386251","345666.648116","331833.708516","332600.040873","333367.097934","337250.212171","338016.773625","338783.279738","339550.236008","340316.718932","341083.849268","341833.584228","342600.237817","344910.54355","Mapping"
"Mixed","Both","cave","18","m150ball.wav","None","720.768433763","180","336500.637362","343366.448049","344133.567563","344900.386251","345666.648116","346416.779129","332600.040873","333367.097934","337250.212171","338016.773625","338783.279738","339550.236008","340316.718932","341083.849268","341833.584228","342600.237817","345675.503482","Mapping"
"Mixed","Both","cave","18","m150lash.wav","None","734.028913314","180","336500.637362","343366.448049","344133.567563","344900.386251","345666.648116","346416.779129","347183.535054","333367.097934","337250.212171","338016.773625","338783.279738","339550.236008","340316.718932","341083.849268","341833.584228","342600.237817","346426.429382","Mapping"
"Mixed","Both","cave","18","m150depth.wav","None","732.209423324","180","336500.637362","343366.448049","344133.567563","344900.386251","345666.648116","346416.779129","347183.535054","347950.127426","337250.212171","338016.773625","338783.279738","339550.236008","340316.718932","341083.849268","341833.584228","342600.237817","347192.501414","Mapping"
"Mixed","Both","done","44","m160cad.wav","None","729.364093859","180","351083.928416","343366.448049","344133.567563","344900.386251","345666.648116","346416.779129","347183.535054","347950.127426","337250.212171","338016.773625","338783.279738","339550.236008","340316.718932","341083.849268","341833.584228","342600.237817","347959.475307","Mapping"
"Mixed","Both","done","44","m150done.wav","None","720.255513676","180","351083.928416","343366.448049","344133.567563","344900.386251","345666.648116","346416.779129","347183.535054","347950.127426","351833.255885","338016.773625","338783.279738","339550.236008","340316.718932","341083.849268","341833.584228","342600.237817","351093.387909","Mapping"
"Mixed","Both","done","44","m150priest.wav","space","666.518881451","180","351083.928416","343366.448049","344133.567563","344900.386251","345666.648116","346416.779129","347183.535054","347950.127426","351833.255885","352600.19917","338783.279738","339550.236008","340316.718932","341083.849268","341833.584228","342600.237817","351843.064126","Mapping"
"Mixed","Both","done","44","m150cad.wav","None","731.021576328","180","351083.928416","343366.448049","344133.567563","344900.386251","345666.648116","346416.779129","347183.535054","347950.127426","351833.255885","352600.19917","353366.725688","339550.236008","340316.718932","341083.849268","341833.584228","342600.237817","352609.880031","Mapping"
"Mixed","Both","done","44","m150ball.wav","None","730.189279653","180","351083.928416","343366.448049","344133.567563","344900.386251","345666.648116","346416.779129","347183.535054","347950.127426","351833.255885","352600.19917","353366.725688","354133.352069","340316.718932","341083.849268","341833.584228","342600.237817","353376.088718","Mapping"
"Mixed","Both","done","44","m160done.wav","None","727.921177866","180","351083.928416","343366.448049","344133.567563","344900.386251","345666.648116","346416.779129","347183.535054","347950.127426","351833.255885","352600.19917","353366.725688","354133.352069","354900.00844","341083.849268","341833.584228","342600.237817","354142.610908","Mapping"
"Mixed","Both","done","44","m160greet.wav","space","279.648333089","180","351083.928416","343366.448049","344133.567563","344900.386251","345666.648116","346416.779129","347183.535054","347950.127426","351833.255885","352600.19917","353366.725688","354133.352069","354900.00844","355666.985734","341833.584228","342600.237817","354909.875115","Mapping"
"Mixed","Both","done","44","m160done.wav","None","720.394333126","180","351083.928416","343366.448049","344133.567563","344900.386251","345666.648116","346416.779129","347183.535054","347950.127426","351833.255885","352600.19917","353366.725688","354133.352069","354900.00844","355666.985734","356416.481703","342600.237817","355677.480651","Mapping"
"Mixed","Both","done","44","m160tile.wav","space","604.104348691","180","351083.928416","343366.448049","344133.567563","344900.386251","345666.648116","346416.779129","347183.535054","347950.127426","351833.255885","352600.19917","353366.725688","354133.352069","354900.00844","355666.985734","356416.481703","357183.044394","356425.376953","Mapping"
"Mixed","Both","done","44","m160jolt.wav","None","733.087787172","180","351083.928416","357949.625018","344133.567563","344900.386251","345666.648116","346416.779129","347183.535054","347950.127426","351833.255885","352600.19917","353366.725688","354133.352069","354900.00844","355666.985734","356416.481703","357183.044394","357192.129168","Mapping"
"Mixed","Both","done","44","m150done.wav","None","730.64685706","180","351083.928416","357949.625018","358716.244907","344900.386251","345666.648116","346416.779129","347183.535054","347950.127426","351833.255885","352600.19917","353366.725688","354133.352069","354900.00844","355666.985734","356416.481703","357183.044394","357958.816147","Mapping"
"Mixed","Both","done","44","m150jaw.wav","space","512.121018022","180","351083.928416","357949.625018","358716.244907","359482.951982","345666.648116","346416.779129","347183.535054","347950.127426","351833.255885","352600.19917","353366.725688","354133.352069","354900.00844","355666.985734","356416.481703","357183.044394","358725.346685","Mapping"
"Mixed","Both","done","44","m160reek.wav","None","725.09316192","180","351083.928416","357949.625018","358716.244907","359482.951982","360249.768197","346416.779129","347183.535054","347950.127426","351833.255885","352600.19917","353366.725688","354133.352069","354900.00844","355666.985734","356416.481703","357183.044394","359491.909994","Mapping"
"Mixed","Both","done","44","m150jaw.wav","None","722.405510955","180","351083.928416","357949.625018","358716.244907","359482.951982","360249.768197","361016.395505","347183.535054","347950.127426","351833.255885","352600.19917","353366.725688","354133.352069","354900.00844","355666.985734","356416.481703","357183.044394","360259.093507","Mapping"
"Mixed","Both","done","44","m150reek.wav","None","720.260769827","180","351083.928416","357949.625018","358716.244907","359482.951982","360249.768197","361016.395505","361766.061829","347950.127426","351833.255885","352600.19917","353366.725688","354133.352069","354900.00844","355666.985734","356416.481703","357183.044394","361025.540568","Mapping"
"Mixed","Both","done","44","m160bluff.wav","None","735.085052438","180","351083.928416","357949.625018","358716.244907","359482.951982","360249.768197","361016.395505","361766.061829","362533.321708","351833.255885","352600.19917","353366.725688","354133.352069","354900.00844","355666.985734","356416.481703","357183.044394","361775.100845","Mapping"
"Mixed","Both","done","41","m150knife.wav","None","731.924364809","180","365666.910296","357949.625018","358716.244907","359482.951982","360249.768197","361016.395505","361766.061829","362533.321708","351833.255885","352600.19917","353366.725688","354133.352069","354900.00844","355666.985734","356416.481703","357183.044394","362542.790785","Mapping"
"Mixed","Both","done","41","m150done.wav","None","718.975842232","180","365666.910296","357949.625018","358716.244907","359482.951982","360249.768197","361016.395505","361766.061829","362533.321708","366416.339174","352600.19917","353366.725688","354133.352069","354900.00844","355666.985734","356416.481703","357183.044394","365677.014107","Mapping"
"Mixed","Both","done","41","m160lash.wav","space","347.463828977","180","365666.910296","357949.625018","358716.244907","359482.951982","360249.768197","361016.395505","361766.061829","362533.321708","366416.339174","367183.198363","353366.725688","354133.352069","354900.00844","355666.985734","356416.481703","357183.044394","366425.892037","Mapping"
"Mixed","Both","done","41","m160gnash.wav","None","731.019412167","180","365666.910296","357949.625018","358716.244907","359482.951982","360249.768197","361016.395505","361766.061829","362533.321708","366416.339174","367183.198363","367949.475996","354133.352069","354900.00844","355666.985734","356416.481703","357183.044394","367192.661566","Mapping"
"Mixed","Both","done","41","m150greet.wav","None","729.626273271","180","365666.910296","357949.625018","358716.244907","359482.951982","360249.768197","361016.395505","361766.061829","362533.321708","366416.339174","367183.198363","367949.475996","368716.099286","354900.00844","355666.985734","356416.481703","357183.044394","367958.598489","Mapping"
"Mixed","Both","done","41","m150dime.wav","None","727.502556052","180","365666.910296","357949.625018","358716.244907","359482.951982","360249.768197","361016.395505","361766.061829","362533.321708","366416.339174","367183.198363","367949.475996","368716.099286","369483.199012","355666.985734","356416.481703","357183.044394","368725.129954","Mapping"
"Mixed","Both","done","41","m150park.wav","space","352.785952855","180","365666.910296","357949.625018","358716.244907","359482.951982","360249.768197","361016.395505","361766.061829","362533.321708","366416.339174","367183.198363","367949.475996","368716.099286","369483.199012","370250.106742","356416.481703","357183.044394","369492.524014","Mapping"
"Mixed","Both","done","41","m160lash.wav","None","720.487703802","180","365666.910296","357949.625018","358716.244907","359482.951982","360249.768197","361016.395505","361766.061829","362533.321708","366416.339174","367183.198363","367949.475996","368716.099286","369483.199012","370250.106742","370999.89519","357183.044394","370260.001861","Mapping"
"Mixed","Both","done","41","m160done.wav","None","735.926933587","180","365666.910296","357949.625018","358716.244907","359482.951982","360249.768197","361016.395505","361766.061829","362533.321708","366416.339174","367183.198363","367949.475996","368716.099286","369483.199012","370250.106742","370999.89519","371765.933522","371009.182163","Mapping"
"Mixed","Both","done","41","m160park.wav","space","542.185731465","180","365666.910296","372533.533183","358716.244907","359482.951982","360249.768197","361016.395505","361766.061829","362533.321708","366416.339174","367183.198363","367949.475996","368716.099286","369483.199012","370250.106742","370999.89519","371765.933522","371775.069927","Mapping"
"Mixed","Both","done","41","m150gnash.wav","None","728.890438797","180","365666.910296","372533.533183","373299.761967","359482.951982","360249.768197","361016.395505","361766.061829","362533.321708","366416.339174","367183.198363","367949.475996","368716.099286","369483.199012","370250.106742","370999.89519","371765.933522","372543.700685","Mapping"
"Mixed","Both","done","41","m160done.wav","None","727.743093623","180","365666.910296","372533.533183","373299.761967","374065.932934","360249.768197","361016.395505","361766.061829","362533.321708","366416.339174","367183.198363","367949.475996","368716.099286","369483.199012","370250.106742","370999.89519","371765.933522","373309.251449","Mapping"
"Mixed","Both","done","41","m160ball.wav","space","410.220617428","180","365666.910296","372533.533183","373299.761967","374065.932934","374833.429332","361016.395505","361766.061829","362533.321708","366416.339174","367183.198363","367949.475996","368716.099286","369483.199012","370250.106742","370999.89519","371765.933522","374075.020181","Mapping"
"Mixed","Both","done","41","m160gnash.wav","None","721.450472018","180","365666.910296","372533.533183","373299.761967","374065.932934","374833.429332","375600.093123","361766.061829","362533.321708","366416.339174","367183.198363","367949.475996","368716.099286","369483.199012","370250.106742","370999.89519","371765.933522","374843.196453","Mapping"
"Mixed","Both","done","41","m150done.wav","None","718.946470413","180","365666.910296","372533.533183","373299.761967","374065.932934","374833.429332","375600.093123","376349.638251","362533.321708","366416.339174","367183.198363","367949.475996","368716.099286","369483.199012","370250.106742","370999.89519","371765.933522","375610.206519","Mapping"
"Mixed","Both","done","41","m150jaw.wav","space","326.543559553","180","365666.910296","372533.533183","373299.761967","374065.932934","374833.429332","375600.093123","376349.638251","377116.020384","366416.339174","367183.198363","367949.475996","368716.099286","369483.199012","370250.106742","370999.89519","371765.933522","376358.688397","Mapping"
"Mixed","Both","tile","26","m160park.wav","None","731.993619818","180","380249.991729","372533.533183","373299.761967","374065.932934","374833.429332","375600.093123","376349.638251","377116.020384","366416.339174","367183.198363","367949.475996","368716.099286","369483.199012","370250.106742","370999.89519","371765.933522","377124.743115","Mapping"
"Mixed","Both","tile","26","m160tile.wav","None","719.545340864","180","380249.991729","372533.533183","373299.761967","374065.932934","374833.429332","375600.093123","376349.638251","377116.020384","380999.18378","367183.198363","367949.475996","368716.099286","369483.199012","370250.106742","370999.89519","371765.933522","380259.611374","Mapping"
"Mixed","Both","tile","26","m160priest.wav","space","677.069140365","180","380249.991729","372533.533183","373299.761967","374065.932934","374833.429332","375600.093123","376349.638251","377116.020384","380999.18378","381766.367602","367949.475996","368716.099286","369483.199012","370250.106742","370999.89519","371765.933522","381008.092943","Mapping"
"Mixed","Both","tile","26","m150knife.wav","None","731.056822231","180","380249.991729","372533.533183","373299.761967","374065.932934","374833.429332","375600.093123","376349.638251","377116.020384","380999.18378","381766.367602","382532.709853","368716.099286","369483.199012","370250.106742","370999.89519","371765.933522","381775.812564","Mapping"
"Mixed","Both","tile","26","m150cad.wav","None","729.752725456","180","380249.991729","372533.533183","373299.761967","374065.932934","374833.429332","375600.093123","376349.638251","377116.020384","380999.18378","381766.367602","382532.709853","383299.591921","369483.199012","370250.106742","370999.89519","371765.933522","382541.743612","Mapping"
"Mixed","Both","tile","26","m160lash.wav","None","726.988090202","180","380249.991729","372533.533183","373299.761967","374065.932934","374833.429332","375600.093123","376349.638251","377116.020384","380999.18378","381766.367602","382532.709853","383299.591921","384066.321875","370250.106742","370999.89519","371765.933522","383308.940111","Mapping"
"Mixed","Both","tile","26","m160cling.wav","None","725.507146213","180","380249.991729","372533.533183","373299.761967","374065.932934","374833.429332","375600.093123","376349.638251","377116.020384","380999.18378","381766.367602","382532.709853","383299.591921","384066.321875","384832.529944","370999.89519","371765.933522","384075.538666","Mapping"
"Mixed","Both","tile","26","m150tile.wav","None","726.275443798","180","380249.991729","372533.533183","373299.761967","374065.932934","374833.429332","375600.093123","376349.638251","377116.020384","380999.18378","381766.367602","382532.709853","383299.591921","384066.321875","384832.529944","385599.488688","371765.933522","384841.293486","Mapping"
"Mixed","Both","tile","26","m150done.wav","space","491.985123605","180","380249.991729","372533.533183","373299.761967","374065.932934","374833.429332","375600.093123","376349.638251","377116.020384","380999.18378","381766.367602","382532.709853","383299.591921","384066.321875","384832.529944","385599.488688","386349.500359","385609.121936","Mapping"
"Mixed","Both","tile","26","m150tile.wav","None","736.738206353","180","380249.991729","387116.082838","373299.761967","374065.932934","374833.429332","375600.093123","376349.638251","377116.020384","380999.18378","381766.367602","382532.709853","383299.591921","384066.321875","384832.529944","385599.488688","386349.500359","386358.416633","Mapping"
"Mixed","Both","tile","26","m160done.wav","None","734.194012359","180","380249.991729","387116.082838","387882.516294","374065.932934","374833.429332","375600.093123","376349.638251","377116.020384","380999.18378","381766.367602","382532.709853","383299.591921","384066.321875","384832.529944","385599.488688","386349.500359","387125.46009","Mapping"
"Mixed","Both","tile","26","m160tile.wav","space","297.731929459","180","380249.991729","387116.082838","387882.516294","388649.49297","374833.429332","375600.093123","376349.638251","377116.020384","380999.18378","381766.367602","382532.709853","383299.591921","384066.321875","384832.529944","385599.488688","386349.500359","387891.297149","Mapping"
"Mixed","Both","tile","26","m160reek.wav","space","577.971094055","180","380249.991729","387116.082838","387882.516294","388649.49297","389415.708149","375600.093123","376349.638251","377116.020384","380999.18378","381766.367602","382532.709853","383299.591921","384066.321875","384832.529944","385599.488688","386349.500359","388659.048306","Mapping"
"Mixed","Both","tile","26","m150cad.wav","None","726.358611602","180","380249.991729","387116.082838","387882.516294","388649.49297","389415.708149","390182.749751","376349.638251","377116.020384","380999.18378","381766.367602","382532.709853","383299.591921","384066.321875","384832.529944","385599.488688","386349.500359","389424.426242","Mapping"
"Mixed","Both","tile","26","m150depth.wav","None","723.960966105","180","380249.991729","387116.082838","387882.516294","388649.49297","389415.708149","390182.749751","390949.923989","377116.020384","380999.18378","381766.367602","382532.709853","383299.591921","384066.321875","384832.529944","385599.488688","386349.500359","390191.405391","Mapping"
"Mixed","Both","tile","26","m150depth.wav","None","719.433110673","180","380249.991729","387116.082838","387882.516294","388649.49297","389415.708149","390182.749751","390949.923989","391699.002882","380999.18378","381766.367602","382532.709853","383299.591921","384066.321875","384832.529944","385599.488688","386349.500359","390960.596681","Mapping"
"Mixed","Both","ball","7","m160cad.wav","None","737.025738461","180","394833.128505","387116.082838","387882.516294","388649.49297","389415.708149","390182.749751","390949.923989","391699.002882","380999.18378","381766.367602","382532.709853","383299.591921","384066.321875","384832.529944","385599.488688","386349.500359","391707.731487","Mapping"
"Mixed","Both","ball","7","m160ball.wav","None","720.177292824","180","394833.128505","387116.082838","387882.516294","388649.49297","389415.708149","390182.749751","390949.923989","391699.002882","395582.704241","381766.367602","382532.709853","383299.591921","384066.321875","384832.529944","385599.488688","386349.500359","394842.724653","Mapping"
"Mixed","Both","ball","7","m160jolt.wav","space","388.891620096","180","394833.128505","387116.082838","387882.516294","388649.49297","389415.708149","390182.749751","390949.923989","391699.002882","395582.704241","396349.08452","382532.709853","383299.591921","384066.321875","384832.529944","385599.488688","386349.500359","395592.095097","Mapping"
"Mixed","Both","ball","7","m150gnash.wav","None","734.32170134","180","394833.128505","387116.082838","387882.516294","388649.49297","389415.708149","390182.749751","390949.923989","391699.002882","395582.704241","396349.08452","397115.664525","383299.591921","384066.321875","384832.529944","385599.488688","386349.500359","396356.103701","Mapping"
"Mixed","Both","ball","7","m150ball.wav","None","730.255133705","180","394833.128505","387116.082838","387882.516294","388649.49297","389415.708149","390182.749751","390949.923989","391699.002882","395582.704241","396349.08452","397115.664525","397882.400354","384066.321875","384832.529944","385599.488688","386349.500359","397124.775578","Mapping"
"Mixed","Both","ball","7","m150jolt.wav","space","425.732503179","180","394833.128505","387116.082838","387882.516294","388649.49297","389415.708149","390182.749751","390949.923989","391699.002882","395582.704241","396349.08452","397115.664525","397882.400354","398649.705991","384832.529944","385599.488688","386349.500359","397891.191412","Mapping"
"Mixed","Both","ball","7","m160depth.wav","None","723.31262799","180","394833.128505","387116.082838","387882.516294","388649.49297","389415.708149","390182.749751","390949.923989","391699.002882","395582.704241","396349.08452","397115.664525","397882.400354","398649.705991","399416.481703","385599.488688","386349.500359","398659.450542","Mapping"
"Mixed","Both","ball","7","m160done.wav","None","721.54662502","180","394833.128505","387116.082838","387882.516294","388649.49297","389415.708149","390182.749751","390949.923989","391699.002882","395582.704241","396349.08452","397115.664525","397882.400354","398649.705991","399416.481703","400183.111176","386349.500359","399425.850298","Mapping"
"Mixed","Both","ball","7","m150cad.wav","None","719.501129119","180","394833.128505","387116.082838","387882.516294","388649.49297","389415.708149","390182.749751","390949.923989","391699.002882","395582.704241","396349.08452","397115.664525","397882.400354","398649.705991","399416.481703","400183.111176","400932.478838","400193.180978","Mapping"
"Mixed","Both","ball","7","m160ball.wav","None","735.078868922","180","394833.128505","401698.997936","387882.516294","388649.49297","389415.708149","390182.749751","390949.923989","391699.002882","395582.704241","396349.08452","397115.664525","397882.400354","398649.705991","399416.481703","400183.111176","400932.478838","400942.185051","Mapping"
"Mixed","Both","ball","7","m150priest.wav","space","369.072010741","180","394833.128505","401698.997936","402465.560627","388649.49297","389415.708149","390182.749751","390949.923989","391699.002882","395582.704241","396349.08452","397115.664525","397882.400354","398649.705991","399416.481703","400183.111176","400932.478838","401707.754366","Mapping"
"Mixed","Both","ball","7","m150tile.wav","None","730.646238895","180","394833.128505","401698.997936","402465.560627","403232.333866","389415.708149","390182.749751","390949.923989","391699.002882","395582.704241","396349.08452","397115.664525","397882.400354","398649.705991","399416.481703","400183.111176","400932.478838","402474.477828","Mapping"
"Mixed","Both","ball","7","m150cad.wav","None","728.337635519","180","394833.128505","401698.997936","402465.560627","403232.333866","403998.931803","390182.749751","390949.923989","391699.002882","395582.704241","396349.08452","397115.664525","397882.400354","398649.705991","399416.481703","400183.111176","400932.478838","403241.442136","Mapping"
"Mixed","Both","ball","7","m160bluff.wav","None","726.823300589","180","394833.128505","401698.997936","402465.560627","403232.333866","403998.931803","404766.379042","390949.923989","391699.002882","395582.704241","396349.08452","397115.664525","397882.400354","398649.705991","399416.481703","400183.111176","400932.478838","404007.62949","Mapping"
"Mixed","Both","ball","7","m150ball.wav","None","722.667072201","180","394833.128505","401698.997936","402465.560627","403232.333866","403998.931803","404766.379042","405532.470861","391699.002882","395582.704241","396349.08452","397115.664525","397882.400354","398649.705991","399416.481703","400183.111176","400932.478838","404776.389792","Mapping"
"Mixed","Both","ball","7","m160lash.wav","space","383.42511165","180","394833.128505","401698.997936","402465.560627","403232.333866","403998.931803","404766.379042","405532.470861","406282.3635","395582.704241","396349.08452","397115.664525","397882.400354","398649.705991","399416.481703","400183.111176","400932.478838","405541.353125","Mapping"
"Mixed","Both","cave","24","m160bluff.wav","None","735.174094327","180","409416.309802","401698.997936","402465.560627","403232.333866","403998.931803","404766.379042","405532.470861","406282.3635","395582.704241","396349.08452","397115.664525","397882.400354","398649.705991","399416.481703","400183.111176","400932.478838","406291.835051","Mapping"
"Mixed","Both","cave","24","m150dime.wav","None","719.658498419","180","409416.309802","401698.997936","402465.560627","403232.333866","403998.931803","404766.379042","405532.470861","406282.3635","410165.293779","396349.08452","397115.664525","397882.400354","398649.705991","399416.481703","400183.111176","400932.478838","409426.219452","Mapping"
"Mixed","Both","cave","24","m160romp.wav","None","736.037927214","180","409416.309802","401698.997936","402465.560627","403232.333866","403998.931803","404766.379042","405532.470861","406282.3635","410165.293779","410932.496461","397115.664525","397882.400354","398649.705991","399416.481703","400183.111176","400932.478838","410174.500057","Mapping"
"Mixed","Both","cave","24","m150depth.wav","None","734.171751887","180","409416.309802","401698.997936","402465.560627","403232.333866","403998.931803","404766.379042","405532.470861","406282.3635","410165.293779","410932.496461","411698.783987","397882.400354","398649.705991","399416.481703","400183.111176","400932.478838","410941.594219","Mapping"
"Mixed","Both","cave","24","m160jolt.wav","None","734.3241747","180","409416.309802","401698.997936","402465.560627","403232.333866","403998.931803","404766.379042","405532.470861","406282.3635","410165.293779","410932.496461","411698.783987","412465.90752","398649.705991","399416.481703","400183.111176","400932.478838","411706.018044","Mapping"
"Mixed","Both","cave","24","m150knife.wav","None","729.744996177","180","409416.309802","401698.997936","402465.560627","403232.333866","403998.931803","404766.379042","405532.470861","406282.3635","410165.293779","410932.496461","411698.783987","412465.90752","413232.219781","399416.481703","400183.111176","400932.478838","412475.175325","Mapping"
"Mixed","Both","cave","24","m150lash.wav","None","728.884255281","180","409416.309802","401698.997936","402465.560627","403232.333866","403998.931803","404766.379042","405532.470861","406282.3635","410165.293779","410932.496461","411698.783987","412465.90752","413232.219781","413998.798549","400183.111176","400932.478838","413241.2387","Mapping"
"Mixed","Both","cave","24","m150cave.wav","None","726.887299446","180","409416.309802","401698.997936","402465.560627","403232.333866","403998.931803","404766.379042","405532.470861","406282.3635","410165.293779","410932.496461","411698.783987","412465.90752","413232.219781","413998.798549","414766.318444","400932.478838","414007.86199","Mapping"
"Mixed","Both","cave","24","m150dime.wav","space","340.352204861","180","409416.309802","401698.997936","402465.560627","403232.333866","403998.931803","404766.379042","405532.470861","406282.3635","410165.293779","410932.496461","411698.783987","412465.90752","413232.219781","413998.798549","414766.318444","415532.39635","414776.280653","Mapping"
"Mixed","Both","cave","24","m150cave.wav","None","721.369777573","180","409416.309802","416282.002076","402465.560627","403232.333866","403998.931803","404766.379042","405532.470861","406282.3635","410165.293779","410932.496461","411698.783987","412465.90752","413232.219781","413998.798549","414766.318444","415532.39635","415541.150925","Mapping"
"Mixed","Both","cave","24","m150jaw.wav","space","481.488661142","180","409416.309802","416282.002076","417048.69462","403232.333866","403998.931803","404766.379042","405532.470861","406282.3635","410165.293779","410932.496461","411698.783987","412465.90752","413232.219781","413998.798549","414766.318444","415532.39635","416291.062424","Mapping"
"Mixed","Both","cave","24","m160cave.wav","None","732.718633255","180","409416.309802","416282.002076","417048.69462","417815.814443","403998.931803","404766.379042","405532.470861","406282.3635","410165.293779","410932.496461","411698.783987","412465.90752","413232.219781","413998.798549","414766.318444","415532.39635","417057.438374","Mapping"
"Mixed","Both","cave","24","m160priest.wav","space","315.379590029","180","409416.309802","416282.002076","417048.69462","417815.814443","418582.468032","404766.379042","405532.470861","406282.3635","410165.293779","410932.496461","411698.783987","412465.90752","413232.219781","413998.798549","414766.318444","415532.39635","417825.21612","Mapping"
"Mixed","Both","cave","24","m160cave.wav","None","726.69715737","180","409416.309802","416282.002076","417048.69462","417815.814443","418582.468032","419349.053602","405532.470861","406282.3635","410165.293779","410932.496461","411698.783987","412465.90752","413232.219781","413998.798549","414766.318444","415532.39635","418591.788087","Mapping"
"Mixed","Both","cave","24","m160dime.wav","space","510.358416243","180","409416.309802","416282.002076","417048.69462","417815.814443","418582.468032","419349.053602","420116.214546","406282.3635","410165.293779","410932.496461","411698.783987","412465.90752","413232.219781","413998.798549","414766.318444","415532.39635","419358.217834","Mapping"
"Mixed","Both","cave","24","m160gnash.wav","None","720.183785306","180","409416.309802","416282.002076","417048.69462","417815.814443","418582.468032","419349.053602","420116.214546","420865.866029","410165.293779","410932.496461","411698.783987","412465.90752","413232.219781","413998.798549","414766.318444","415532.39635","420126.183557","Mapping"
"Mixed","Both","done","48","m160lash.wav","None","735.857060179","180","423999.396492","416282.002076","417048.69462","417815.814443","418582.468032","419349.053602","420116.214546","420865.866029","410165.293779","410932.496461","411698.783987","412465.90752","413232.219781","413998.798549","414766.318444","415532.39635","420875.110027","Mapping"
"Mixed","Both","done","48","m150done.wav","None","719.246369554","180","423999.396492","416282.002076","417048.69462","417815.814443","418582.468032","419349.053602","420116.214546","420865.866029","424748.539384","410932.496461","411698.783987","412465.90752","413232.219781","413998.798549","414766.318444","415532.39635","424009.185255","Mapping"
"Mixed","Both","done","48","m150greet.wav","space","591.148715001","180","423999.396492","416282.002076","417048.69462","417815.814443","418582.468032","419349.053602","420116.214546","420865.866029","424748.539384","425515.385897","411698.783987","412465.90752","413232.219781","413998.798549","414766.318444","415532.39635","424757.337862","Mapping"
"Mixed","Both","done","48","m150done.wav","None","732.227664674","180","423999.396492","416282.002076","417048.69462","417815.814443","418582.468032","419349.053602","420116.214546","420865.866029","424748.539384","425515.385897","426282.033612","412465.90752","413232.219781","413998.798549","414766.318444","415532.39635","425524.039063","Mapping"
"Mixed","Both","done","48","m160jaw.wav","space","329.279751051","180","423999.396492","416282.002076","417048.69462","417815.814443","418582.468032","419349.053602","420116.214546","420865.866029","424748.539384","425515.385897","426282.033612","427048.934849","413232.219781","413998.798549","414766.318444","415532.39635","426291.179601","Mapping"
"Mixed","Both","done","48","m160reek.wav","None","725.69945245","180","423999.396492","416282.002076","417048.69462","417815.814443","418582.468032","419349.053602","420116.214546","420865.866029","424748.539384","425515.385897","426282.033612","427048.934849","427816.016334","413998.798549","414766.318444","415532.39635","427058.328796","Mapping"
"Mixed","Both","done","48","m150depth.wav","None","722.79568878","180","423999.396492","416282.002076","417048.69462","417815.814443","418582.468032","419349.053602","420116.214546","420865.866029","424748.539384","425515.385897","426282.033612","427048.934849","427816.016334","428582.906132","414766.318444","415532.39635","427825.98751","Mapping"
"Mixed","Both","done","48","m150knife.wav","None","726.273279637","180","423999.396492","416282.002076","417048.69462","417815.814443","418582.468032","419349.053602","420116.214546","420865.866029","424748.539384","425515.385897","426282.033612","427048.934849","427816.016334","428582.906132","429348.756486","415532.39635","428587.363187","Mapping"
"Mixed","Both","done","48","m160priest.wav","None","720.632397104","180","423999.396492","416282.002076","417048.69462","417815.814443","418582.468032","419349.053602","420116.214546","420865.866029","424748.539384","425515.385897","426282.033612","427048.934849","427816.016334","428582.906132","429348.756486","430098.769394","429357.752217","Mapping"
"Mixed","Both","done","48","m150jaw.wav","None","734.918098198","180","423999.396492","430865.55129","417048.69462","417815.814443","418582.468032","419349.053602","420116.214546","420865.866029","424748.539384","425515.385897","426282.033612","427048.934849","427816.016334","428582.906132","429348.756486","430098.769394","430108.196732","Mapping"
"Mixed","Both","done","48","m150dime.wav","None","732.848486397","180","423999.396492","430865.55129","431631.890757","417815.814443","418582.468032","419349.053602","420116.214546","420865.866029","424748.539384","425515.385897","426282.033612","427048.934849","427816.016334","428582.906132","429348.756486","430098.769394","430874.95173","Mapping"
"Mixed","Both","done","48","m160lash.wav","space","339.403040474","180","423999.396492","430865.55129","431631.890757","432398.844554","418582.468032","419349.053602","420116.214546","420865.866029","424748.539384","425515.385897","426282.033612","427048.934849","427816.016334","428582.906132","429348.756486","430098.769394","431640.998101","Mapping"
"Mixed","Both","done","48","m160done.wav","None","727.462363429","180","423999.396492","430865.55129","431631.890757","432398.844554","433165.542973","419349.053602","420116.214546","420865.866029","424748.539384","425515.385897","426282.033612","427048.934849","427816.016334","428582.906132","429348.756486","430098.769394","432408.268183","Mapping"
"Mixed","Both","done","48","m160priest.wav","space","541.458553867","180","423999.396492","430865.55129","431631.890757","432398.844554","433165.542973","433932.715047","420116.214546","420865.866029","424748.539384","425515.385897","426282.033612","427048.934849","427816.016334","428582.906132","429348.756486","430098.769394","433174.928573","Mapping"
