"Condition","Talker","Target","Trial","current_stimulus","response_response","response_time_response","subject_nr","time_Audio1","time_Audio10","time_Audio11","time_Audio12","time_Audio13","time_Audio14","time_Audio15","time_Audio16","time_Audio2","time_Audio3","time_Audio4","time_Audio5","time_Audio6","time_Audio7","time_Audio8","time_Audio9","time_response","title"
"Blocked","m160","cave","12","m160dime.wav","NA","NA","170","148403.97807","NA","NA","NA","NA","NA","NA","NA","NA","NA","NA","NA","NA","NA","NA","NA","NA","Mapping"
"Blocked","m160","cave","12","m160jolt.wav","None","717.879764736","170","148403.97807","NA","NA","NA","NA","NA","NA","NA","149171.119328","NA","NA","NA","NA","NA","NA","NA","148417.379182","Mapping"
"Blocked","m160","cave","12","m160gnash.wav","None","718.544795644","170","148403.97807","NA","NA","NA","NA","NA","NA","NA","149171.119328","149919.790888","NA","NA","NA","NA","NA","NA","149181.276904","Mapping"
"Blocked","m160","cave","12","m160cave.wav","None","735.360726248","170","148403.97807","NA","NA","NA","NA","NA","NA","NA","149171.119328","149919.790888","150686.589891","NA","NA","NA","NA","NA","149929.349904","Mapping"
"Blocked","m160","cave","12","m160tile.wav","space","410.699804313","170","148403.97807","NA","NA","NA","NA","NA","NA","NA","149171.119328","149919.790888","150686.589891","151453.569142","NA","NA","NA","NA","150695.667216","Mapping"
"Blocked","m160","cave","12","m160cave.wav","None","731.506264303","170","148403.97807","NA","NA","NA","NA","NA","NA","NA","149171.119328","149919.790888","150686.589891","151453.569142","152220.30631","NA","NA","NA","151462.803218","Mapping"
"Blocked","m160","cave","12","m160jaw.wav","space","588.961032685","170","148403.97807","NA","NA","NA","NA","NA","NA","NA","149171.119328","149919.790888","150686.589891","151453.569142","152220.30631","152986.474291","NA","NA","152229.343443","Mapping"
"Blocked","m160","cave","12","m160cave.wav","None","727.957882918","170","148403.97807","NA","NA","NA","NA","NA","NA","NA","149171.119328","149919.790888","150686.589891","151453.569142","152220.30631","152986.474291","153753.208677","NA","152995.631383","Mapping"
"Blocked","m160","cave","12","m160tile.wav","space","487.346004695","170","148403.97807","NA","NA","NA","NA","NA","NA","NA","149171.119328","149919.790888","150686.589891","151453.569142","152220.30631","152986.474291","153753.208677","154520.126093","153762.945469","Mapping"
"Blocked","m160","cave","12","m160jolt.wav","None","722.873839084","170","148403.97807","155286.909638","NA","NA","NA","NA","NA","NA","149171.119328","149919.790888","150686.589891","151453.569142","152220.30631","152986.474291","153753.208677","154520.126093","154530.091364","Mapping"
"Blocked","m160","cave","12","m160cave.wav","None","721.181115601","170","148403.97807","155286.909638","156053.280127","NA","NA","NA","NA","NA","149171.119328","149919.790888","150686.589891","151453.569142","152220.30631","152986.474291","153753.208677","154520.126093","155296.564498","Mapping"
"Blocked","m160","cave","12","m160jaw.wav","space","635.365766007","170","148403.97807","155286.909638","156053.280127","156802.959591","NA","NA","NA","NA","149171.119328","149919.790888","150686.589891","151453.569142","152220.30631","152986.474291","153753.208677","154520.126093","156062.923548","Mapping"
"Blocked","m160","cave","12","m160greet.wav","None","734.863885213","170","148403.97807","155286.909638","156053.280127","156802.959591","157569.409229","NA","NA","NA","149171.119328","149919.790888","150686.589891","151453.569142","152220.30631","152986.474291","153753.208677","154520.126093","156812.389992","Mapping"
"Blocked","m160","cave","12","m160park.wav","None","733.94564027","170","148403.97807","155286.909638","156053.280127","156802.959591","157569.409229","158336.348287","NA","NA","149171.119328","149919.790888","150686.589891","151453.569142","152220.30631","152986.474291","153753.208677","154520.126093","157578.20397","Mapping"
"Blocked","m160","cave","12","m160knife.wav","None","731.265418231","170","148403.97807","155286.909638","156053.280127","156802.959591","157569.409229","158336.348287","159103.116064","NA","149171.119328","149919.790888","150686.589891","151453.569142","152220.30631","152986.474291","153753.208677","154520.126093","158345.39284","Mapping"
"Blocked","m160","cave","12","m160depth.wav","None","729.564038105","170","148403.97807","155286.909638","156053.280127","156802.959591","157569.409229","158336.348287","159103.116064","159869.778103","149171.119328","149919.790888","150686.589891","151453.569142","152220.30631","152986.474291","153753.208677","154520.126093","159112.166491","Mapping"
"Blocked","m160","done","23","m160reek.wav","None","727.205355652","170","163020.229511","155286.909638","156053.280127","156802.959591","157569.409229","158336.348287","159103.116064","159869.778103","149171.119328","149919.790888","150686.589891","151453.569142","152220.30631","152986.474291","153753.208677","154520.126093","159879.355052","Mapping"
"Blocked","m160","done","23","m160gnash.wav","None","720.782900695","170","163020.229511","155286.909638","156053.280127","156802.959591","157569.409229","158336.348287","159103.116064","159869.778103","163786.55548","149919.790888","150686.589891","151453.569142","152220.30631","152986.474291","153753.208677","154520.126093","163030.031539","Mapping"
"Blocked","m160","done","23","m160done.wav","None","719.620718621","170","163020.229511","155286.909638","156053.280127","156802.959591","157569.409229","158336.348287","159103.116064","159869.778103","163786.55548","164536.132299","150686.589891","151453.569142","152220.30631","152986.474291","153753.208677","154520.126093","163796.502818","Mapping"
"Blocked","m160","done","23","m160lash.wav","space","448.987504002","170","163020.229511","155286.909638","156053.280127","156802.959591","157569.409229","158336.348287","159103.116064","159869.778103","163786.55548","164536.132299","165303.21605","151453.569142","152220.30631","152986.474291","153753.208677","154520.126093","164545.069569","Mapping"
"Blocked","m160","done","23","m160done.wav","None","733.630592935","170","163020.229511","155286.909638","156053.280127","156802.959591","157569.409229","158336.348287","159103.116064","159869.778103","163786.55548","164536.132299","165303.21605","166069.637553","152220.30631","152986.474291","153753.208677","154520.126093","165312.181455","Mapping"
"Blocked","m160","done","23","m160cad.wav","space","666.82877671","170","163020.229511","155286.909638","156053.280127","156802.959591","157569.409229","158336.348287","159103.116064","159869.778103","163786.55548","164536.132299","165303.21605","166069.637553","166836.16603","152986.474291","153753.208677","154520.126093","166079.230579","Mapping"
"Blocked","m160","done","23","m160gnash.wav","None","730.83412135","170","163020.229511","155286.909638","156053.280127","156802.959591","157569.409229","158336.348287","159103.116064","159869.778103","163786.55548","164536.132299","165303.21605","166069.637553","166836.16603","167602.973071","153753.208677","154520.126093","166845.268089","Mapping"
"Blocked","m160","done","23","m160greet.wav","None","728.95187512","170","163020.229511","155286.909638","156053.280127","156802.959591","157569.409229","158336.348287","159103.116064","159869.778103","163786.55548","164536.132299","165303.21605","166069.637553","166836.16603","167602.973071","168369.608213","154520.126093","167612.057817","Mapping"
"Blocked","m160","done","23","m160done.wav","None","727.003465407","170","163020.229511","155286.909638","156053.280127","156802.959591","157569.409229","158336.348287","159103.116064","159869.778103","163786.55548","164536.132299","165303.21605","166069.637553","166836.16603","167602.973071","168369.608213","169136.124631","168378.948644","Mapping"
"Blocked","m160","done","23","m160jolt.wav","space","440.33992989","170","163020.229511","169903.426041","156053.280127","156802.959591","157569.409229","158336.348287","159103.116064","159869.778103","163786.55548","164536.132299","165303.21605","166069.637553","166836.16603","167602.973071","168369.608213","169136.124631","169145.643765","Mapping"
"Blocked","m160","done","23","m160done.wav","None","722.655872349","170","163020.229511","169903.426041","170669.792201","156802.959591","157569.409229","158336.348287","159103.116064","159869.778103","163786.55548","164536.132299","165303.21605","166069.637553","166836.16603","167602.973071","168369.608213","169136.124631","169912.847785","Mapping"
"Blocked","m160","done","23","m160ball.wav","space","625.645051245","170","163020.229511","169903.426041","170669.792201","171420.145355","157569.409229","158336.348287","159103.116064","159869.778103","163786.55548","164536.132299","165303.21605","166069.637553","166836.16603","167602.973071","168369.608213","169136.124631","170680.3415","Mapping"
"Blocked","m160","done","23","m160greet.wav","None","735.72276812","170","163020.229511","169903.426041","170669.792201","171420.145355","172186.025804","158336.348287","159103.116064","159869.778103","163786.55548","164536.132299","165303.21605","166069.637553","166836.16603","167602.973071","168369.608213","169136.124631","171429.072112","Mapping"
"Blocked","m160","done","23","m160ball.wav","None","734.708680306","170","163020.229511","169903.426041","170669.792201","171420.145355","172186.025804","172952.894989","159103.116064","159869.778103","163786.55548","164536.132299","165303.21605","166069.637553","166836.16603","167602.973071","168369.608213","169136.124631","172194.949779","Mapping"
"Blocked","m160","done","23","m160romp.wav","None","732.931243256","170","163020.229511","169903.426041","170669.792201","171420.145355","172186.025804","172952.894989","173719.456239","159869.778103","163786.55548","164536.132299","165303.21605","166069.637553","166836.16603","167602.973071","168369.608213","169136.124631","172961.924393","Mapping"
"Blocked","m160","done","23","m160dime.wav","None","730.846797582","170","163020.229511","169903.426041","170669.792201","171420.145355","172186.025804","172952.894989","173719.456239","174486.040676","163786.55548","164536.132299","165303.21605","166069.637553","166836.16603","167602.973071","168369.608213","169136.124631","173729.01742","Mapping"
"Blocked","m160","cave","9","m160priest.wav","space","378.69728636","170","177619.976979","169903.426041","170669.792201","171420.145355","172186.025804","172952.894989","173719.456239","174486.040676","163786.55548","164536.132299","165303.21605","166069.637553","166836.16603","167602.973071","168369.608213","169136.124631","174495.220646","Mapping"
"Blocked","m160","cave","9","m160gnash.wav","None","720.906260889","170","177619.976979","169903.426041","170669.792201","171420.145355","172186.025804","172952.894989","173719.456239","174486.040676","178386.441766","164536.132299","165303.21605","166069.637553","166836.16603","167602.973071","168369.608213","169136.124631","177629.454684","Mapping"
"Blocked","m160","cave","9","m160priest.wav","None","719.386983663","170","177619.976979","169903.426041","170669.792201","171420.145355","172186.025804","172952.894989","173719.456239","174486.040676","178386.441766","179135.870491","165303.21605","166069.637553","166836.16603","167602.973071","168369.608213","169136.124631","178395.950697","Mapping"
"Blocked","m160","cave","9","m160cave.wav","None","735.343412496","170","177619.976979","169903.426041","170669.792201","171420.145355","172186.025804","172952.894989","173719.456239","174486.040676","178386.441766","179135.870491","179902.671658","166069.637553","166836.16603","167602.973071","168369.608213","169136.124631","179144.916281","Mapping"
"Blocked","m160","cave","9","m160romp.wav","space","361.472319812","170","177619.976979","169903.426041","170669.792201","171420.145355","172186.025804","172952.894989","173719.456239","174486.040676","178386.441766","179135.870491","179902.671658","180669.375436","166836.16603","167602.973071","168369.608213","169136.124631","179912.35589","Mapping"
"Blocked","m160","cave","9","m160cave.wav","None","731.191216502","170","177619.976979","169903.426041","170669.792201","171420.145355","172186.025804","172952.894989","173719.456239","174486.040676","178386.441766","179135.870491","179902.671658","180669.375436","181435.892783","167602.973071","168369.608213","169136.124631","180678.583541","Mapping"
"Blocked","m160","cave","9","m160priest.wav","None","729.288873728","170","177619.976979","169903.426041","170669.792201","171420.145355","172186.025804","172952.894989","173719.456239","174486.040676","178386.441766","179135.870491","179902.671658","180669.375436","181435.892783","182202.708481","168369.608213","169136.124631","181445.469731","Mapping"
"Blocked","m160","cave","9","m160jaw.wav","space","0.0401926226914","170","177619.976979","169903.426041","170669.792201","171420.145355","172186.025804","172952.894989","173719.456239","174486.040676","178386.441766","179135.870491","179902.671658","180669.375436","181435.892783","182202.708481","182969.287043","169136.124631","182211.74685","Mapping"
"Blocked","m160","cave","9","m160cave.wav","None","725.795835257","170","177619.976979","169903.426041","170669.792201","171420.145355","172186.025804","172952.894989","173719.456239","174486.040676","178386.441766","179135.870491","179902.671658","180669.375436","181435.892783","182202.708481","182969.287043","183736.17818","182978.458357","Mapping"
"Blocked","m160","cave","9","m160done.wav","space","480.174732395","170","177619.976979","184503.042419","170669.792201","171420.145355","172186.025804","172952.894989","173719.456239","174486.040676","178386.441766","179135.870491","179902.671658","180669.375436","181435.892783","182202.708481","182969.287043","183736.17818","183745.597142","Mapping"
"Blocked","m160","cave","9","m160reek.wav","None","721.127319615","170","177619.976979","184503.042419","185269.558219","171420.145355","172186.025804","172952.894989","173719.456239","174486.040676","178386.441766","179135.870491","179902.671658","180669.375436","181435.892783","182202.708481","182969.287043","183736.17818","184512.627097","Mapping"
"Blocked","m160","cave","9","m160knife.wav","None","719.514053781","170","177619.976979","184503.042419","185269.558219","186019.005495","172186.025804","172952.894989","173719.456239","174486.040676","178386.441766","179135.870491","179902.671658","180669.375436","181435.892783","182202.708481","182969.287043","183736.17818","185279.170723","Mapping"
"Blocked","m160","cave","9","m160cave.wav","None","735.546230339","170","177619.976979","184503.042419","185269.558219","186019.005495","186785.913327","172952.894989","173719.456239","174486.040676","178386.441766","179135.870491","179902.671658","180669.375436","181435.892783","182202.708481","182969.287043","183736.17818","186028.08282","Mapping"
"Blocked","m160","cave","9","m160greet.wav","space","486.262043472","170","177619.976979","184503.042419","185269.558219","186019.005495","186785.913327","187552.162311","173719.456239","174486.040676","178386.441766","179135.870491","179902.671658","180669.375436","181435.892783","182202.708481","182969.287043","183736.17818","186795.432151","Mapping"
"Blocked","m160","cave","9","m160ball.wav","None","735.016616527","170","177619.976979","184503.042419","185269.558219","186019.005495","186785.913327","187552.162311","188319.196904","174486.040676","178386.441766","179135.870491","179902.671658","180669.375436","181435.892783","182202.708481","182969.287043","183736.17818","187560.847295","Mapping"
"Blocked","m160","cave","9","m160dime.wav","None","732.416470069","170","177619.976979","184503.042419","185269.558219","186019.005495","186785.913327","187552.162311","188319.196904","189085.585016","178386.441766","179135.870491","179902.671658","180669.375436","181435.892783","182202.708481","182969.287043","183736.17818","188328.63658","Mapping"
"Blocked","m160","done","19","m160dime.wav","None","731.829040684","170","192219.531213","184503.042419","185269.558219","186019.005495","186785.913327","187552.162311","188319.196904","189085.585016","178386.441766","179135.870491","179902.671658","180669.375436","181435.892783","182202.708481","182969.287043","183736.17818","189094.249286","Mapping"
"Blocked","m160","done","19","m160romp.wav","None","720.513610635","170","192219.531213","184503.042419","185269.558219","186019.005495","186785.913327","187552.162311","188319.196904","189085.585016","192986.064945","179135.870491","179902.671658","180669.375436","181435.892783","182202.708481","182969.287043","183736.17818","192229.651379","Mapping"
"Blocked","m160","done","19","m160jolt.wav","None","719.444180839","170","192219.531213","184503.042419","185269.558219","186019.005495","186785.913327","187552.162311","188319.196904","189085.585016","192986.064945","193735.700508","179902.671658","180669.375436","181435.892783","182202.708481","182969.287043","183736.17818","192995.583461","Mapping"
"Blocked","m160","done","19","m160done.wav","None","734.831730835","170","192219.531213","184503.042419","185269.558219","186019.005495","186785.913327","187552.162311","188319.196904","189085.585016","192986.064945","193735.700508","194502.542486","180669.375436","181435.892783","182202.708481","182969.287043","183736.17818","193745.158734","Mapping"
"Blocked","m160","done","19","m160jaw.wav","space","369.988804683","170","192219.531213","184503.042419","185269.558219","186019.005495","186785.913327","187552.162311","188319.196904","189085.585016","192986.064945","193735.700508","194502.542486","195269.102807","181435.892783","182202.708481","182969.287043","183736.17818","194511.609918","Mapping"
"Blocked","m160","done","19","m160tile.wav","None","730.754664168","170","192219.531213","184503.042419","185269.558219","186019.005495","186785.913327","187552.162311","188319.196904","189085.585016","192986.064945","193735.700508","194502.542486","195269.102807","196035.671476","182202.708481","182969.287043","183736.17818","195278.703253","Mapping"
"Blocked","m160","done","19","m160done.wav","None","729.993170593","170","192219.531213","184503.042419","185269.558219","186019.005495","186785.913327","187552.162311","188319.196904","189085.585016","192986.064945","193735.700508","194502.542486","195269.102807","196035.671476","196802.245092","182969.287043","183736.17818","196044.58834","Mapping"
"Blocked","m160","done","19","m160jaw.wav","space","462.405621074","170","192219.531213","184503.042419","185269.558219","186019.005495","186785.913327","187552.162311","188319.196904","189085.585016","192986.064945","193735.700508","194502.542486","195269.102807","196035.671476","196802.245092","197569.014415","183736.17818","196811.14928","Mapping"
"Blocked","m160","done","19","m160greet.wav","None","725.645576604","170","192219.531213","184503.042419","185269.558219","186019.005495","186785.913327","187552.162311","188319.196904","189085.585016","192986.064945","193735.700508","194502.542486","195269.102807","196035.671476","196802.245092","197569.014415","198335.941724","197578.571577","Mapping"
"Blocked","m160","done","19","m160cling.wav","None","723.730248865","170","192219.531213","199102.867798","185269.558219","186019.005495","186785.913327","187552.162311","188319.196904","189085.585016","192986.064945","193735.700508","194502.542486","195269.102807","196035.671476","196802.245092","197569.014415","198335.941724","198345.496413","Mapping"
"Blocked","m160","done","19","m160done.wav","None","721.83316201","170","192219.531213","199102.867798","199869.262093","186019.005495","186785.913327","187552.162311","188319.196904","189085.585016","192986.064945","193735.700508","194502.542486","195269.102807","196035.671476","196802.245092","197569.014415","198335.941724","199112.373946","Mapping"
"Blocked","m160","done","19","m160cad.wav","space","394.518915564","170","192219.531213","199102.867798","199869.262093","200618.685253","186785.913327","187552.162311","188319.196904","189085.585016","192986.064945","193735.700508","194502.542486","195269.102807","196035.671476","196802.245092","197569.014415","198335.941724","199878.936432","Mapping"
"Blocked","m160","done","19","m160reek.wav","None","735.454405658","170","192219.531213","199102.867798","199869.262093","200618.685253","201385.627403","187552.162311","188319.196904","189085.585016","192986.064945","193735.700508","194502.542486","195269.102807","196035.671476","196802.245092","197569.014415","198335.941724","200628.376906","Mapping"
"Blocked","m160","done","19","m160done.wav","None","733.897409402","170","192219.531213","199102.867798","199869.262093","200618.685253","201385.627403","202152.379412","188319.196904","189085.585016","192986.064945","193735.700508","194502.542486","195269.102807","196035.671476","196802.245092","197569.014415","198335.941724","201394.731008","Mapping"
"Blocked","m160","done","19","m160priest.wav","space","568.129870109","170","192219.531213","199102.867798","199869.262093","200618.685253","201385.627403","202152.379412","202918.994767","189085.585016","192986.064945","193735.700508","194502.542486","195269.102807","196035.671476","196802.245092","197569.014415","198335.941724","202161.30617","Mapping"
"Blocked","m160","done","19","m160dime.wav","None","730.23216147","170","192219.531213","199102.867798","199869.262093","200618.685253","201385.627403","202152.379412","202918.994767","203685.489234","192986.064945","193735.700508","194502.542486","195269.102807","196035.671476","196802.245092","197569.014415","198335.941724","202928.150313","Mapping"
"Blocked","m160","cave","8","m160dime.wav","None","728.765443433","170","206819.265077","199102.867798","199869.262093","200618.685253","201385.627403","202152.379412","202918.994767","203685.489234","192986.064945","193735.700508","194502.542486","195269.102807","196035.671476","196802.245092","197569.014415","198335.941724","203695.010223","Mapping"
"Blocked","m160","cave","8","m160cave.wav","None","720.973351505","170","206819.265077","199102.867798","199869.262093","200618.685253","201385.627403","202152.379412","202918.994767","203685.489234","207585.908566","193735.700508","194502.542486","195269.102807","196035.671476","196802.245092","197569.014415","198335.941724","206828.812036","Mapping"
"Blocked","m160","cave","8","m160jolt.wav","space","398.054620251","170","206819.265077","199102.867798","199869.262093","200618.685253","201385.627403","202152.379412","202918.994767","203685.489234","207585.908566","208335.348112","194502.542486","195269.102807","196035.671476","196802.245092","197569.014415","198335.941724","207595.28548","Mapping"
"Blocked","m160","cave","8","m160romp.wav","None","735.217888374","170","206819.265077","199102.867798","199869.262093","200618.685253","201385.627403","202152.379412","202918.994767","203685.489234","207585.908566","208335.348112","209102.267384","195269.102807","196035.671476","196802.245092","197569.014415","198335.941724","208344.654225","Mapping"
"Blocked","m160","cave","8","m160depth.wav","None","733.63368446","170","206819.265077","199102.867798","199869.262093","200618.685253","201385.627403","202152.379412","202918.994767","203685.489234","207585.908566","208335.348112","209102.267384","209868.974871","196035.671476","196802.245092","197569.014415","198335.941724","209111.380573","Mapping"
"Blocked","m160","cave","8","m160lash.wav","None","732.410286553","170","206819.265077","199102.867798","199869.262093","200618.685253","201385.627403","202152.379412","202918.994767","203685.489234","207585.908566","208335.348112","209102.267384","209868.974871","210635.400702","196802.245092","197569.014415","198335.941724","209878.205237","Mapping"
"Blocked","m160","cave","8","m160cave.wav","None","731.138657313","170","206819.265077","199102.867798","199869.262093","200618.685253","201385.627403","202152.379412","202918.994767","203685.489234","207585.908566","208335.348112","209102.267384","209868.974871","210635.400702","211401.978338","197569.014415","198335.941724","210644.550683","Mapping"
"Blocked","m160","cave","8","m160jaw.wav","space","430.298911873","170","206819.265077","199102.867798","199869.262093","200618.685253","201385.627403","202152.379412","202918.994767","203685.489234","207585.908566","208335.348112","209102.267384","209868.974871","210635.400702","211401.978338","212168.819388","198335.941724","211410.988881","Mapping"
"Blocked","m160","cave","8","m160cad.wav","None","727.461660281","170","206819.265077","199102.867798","199869.262093","200618.685253","201385.627403","202152.379412","202918.994767","203685.489234","207585.908566","208335.348112","209102.267384","209868.974871","210635.400702","211401.978338","212168.819388","212935.357758","212177.952365","Mapping"
"Blocked","m160","cave","8","m160cave.wav","None","726.042555179","170","206819.265077","213702.533334","199869.262093","200618.685253","201385.627403","202152.379412","202918.994767","203685.489234","207585.908566","208335.348112","209102.267384","209868.974871","210635.400702","211401.978338","212168.819388","212935.357758","212944.448996","Mapping"
"Blocked","m160","cave","8","m160cad.wav","space","488.832509145","170","206819.265077","213702.533334","214469.102003","200618.685253","201385.627403","202152.379412","202918.994767","203685.489234","207585.908566","208335.348112","209102.267384","209868.974871","210635.400702","211401.978338","212168.819388","212935.357758","213712.356076","Mapping"
"Blocked","m160","cave","8","m160depth.wav","None","722.111417912","170","206819.265077","213702.533334","214469.102003","215235.744874","201385.627403","202152.379412","202918.994767","203685.489234","207585.908566","208335.348112","209102.267384","209868.974871","210635.400702","211401.978338","212168.819388","212935.357758","214478.586201","Mapping"
"Blocked","m160","cave","8","m160jaw.wav","None","720.700351521","170","206819.265077","213702.533334","214469.102003","215235.744874","215985.780197","202152.379412","202918.994767","203685.489234","207585.908566","208335.348112","209102.267384","209868.974871","210635.400702","211401.978338","212168.819388","212935.357758","215245.152087","Mapping"
"Blocked","m160","cave","8","m160priest.wav","None","736.134896055","170","206819.265077","213702.533334","214469.102003","215235.744874","215985.780197","216751.75278","202918.994767","203685.489234","207585.908566","208335.348112","209102.267384","209868.974871","210635.400702","211401.978338","212168.819388","212935.357758","215994.881947","Mapping"
"Blocked","m160","cave","8","m160cave.wav","None","735.106895212","170","206819.265077","213702.533334","214469.102003","215235.744874","215985.780197","216751.75278","217518.721829","203685.489234","207585.908566","208335.348112","209102.267384","209868.974871","210635.400702","211401.978338","212168.819388","212935.357758","216760.863496","Mapping"
"Blocked","m160","cave","8","m160cling.wav","space","473.347569816","170","206819.265077","213702.533334","214469.102003","215235.744874","215985.780197","216751.75278","217518.721829","218285.226808","207585.908566","208335.348112","209102.267384","209868.974871","210635.400702","211401.978338","212168.819388","212935.357758","217527.814612","Mapping"
"Blocked","m160","cave","11","m160jaw.wav","None","732.339176815","170","221435.625039","213702.533334","214469.102003","215235.744874","215985.780197","216751.75278","217518.721829","218285.226808","207585.908566","208335.348112","209102.267384","209868.974871","210635.400702","211401.978338","212168.819388","212935.357758","218294.209526","Mapping"
"Blocked","m160","cave","11","m160cave.wav","None","721.367856022","170","221435.625039","213702.533334","214469.102003","215235.744874","215985.780197","216751.75278","217518.721829","218285.226808","222202.147641","208335.348112","209102.267384","209868.974871","210635.400702","211401.978338","212168.819388","212935.357758","221445.060696","Mapping"
"Blocked","m160","cave","11","m160tile.wav","space","445.261657704","170","221435.625039","213702.533334","214469.102003","215235.744874","215985.780197","216751.75278","217518.721829","218285.226808","222202.147641","222951.796188","209102.267384","209868.974871","210635.400702","211401.978338","212168.819388","212935.357758","222211.793535","Mapping"
"Blocked","m160","cave","11","m160gnash.wav","None","734.99250086","170","221435.625039","213702.533334","214469.102003","215235.744874","215985.780197","216751.75278","217518.721829","218285.226808","222202.147641","222951.796188","223718.613432","209868.974871","210635.400702","211401.978338","212168.819388","212935.357758","222960.976468","Mapping"
"Blocked","m160","cave","11","m160gnash.wav","None","733.324820641","170","221435.625039","213702.533334","214469.102003","215235.744874","215985.780197","216751.75278","217518.721829","218285.226808","222202.147641","222951.796188","223718.613432","224485.114392","210635.400702","211401.978338","212168.819388","212935.357758","223727.772379","Mapping"
"Blocked","m160","cave","11","m160cave.wav","None","731.984863989","170","221435.625039","213702.533334","214469.102003","215235.744874","215985.780197","216751.75278","217518.721829","218285.226808","222202.147641","222951.796188","223718.613432","224485.114392","225252.470217","211401.978338","212168.819388","212935.357758","224494.52377","Mapping"
"Blocked","m160","cave","11","m160knife.wav","space","363.431550097","170","221435.625039","213702.533334","214469.102003","215235.744874","215985.780197","216751.75278","217518.721829","218285.226808","222202.147641","222951.796188","223718.613432","224485.114392","225252.470217","226018.56245","212168.819388","212935.357758","225261.587734","Mapping"
"Blocked","m160","cave","11","m160ball.wav","None","728.155444842","170","221435.625039","213702.533334","214469.102003","215235.744874","215985.780197","216751.75278","217518.721829","218285.226808","222202.147641","222951.796188","223718.613432","224485.114392","225252.470217","226018.56245","226785.089071","212935.357758","226027.754478","Mapping"
"Blocked","m160","cave","11","m160knife.wav","None","727.057570592","170","221435.625039","213702.533334","214469.102003","215235.744874","215985.780197","216751.75278","217518.721829","218285.226808","222202.147641","222951.796188","223718.613432","224485.114392","225252.470217","226018.56245","226785.089071","227551.894567","226793.962651","Mapping"
"Blocked","m160","cave","11","m160cave.wav","None","725.029085297","170","221435.625039","228318.969662","214469.102003","215235.744874","215985.780197","216751.75278","217518.721829","218285.226808","222202.147641","222951.796188","223718.613432","224485.114392","225252.470217","226018.56245","226785.089071","227551.894567","227561.158942","Mapping"
"Blocked","m160","cave","11","m160reek.wav","space","432.291223668","170","221435.625039","228318.969662","229085.421773","215235.744874","215985.780197","216751.75278","217518.721829","218285.226808","222202.147641","222951.796188","223718.613432","224485.114392","225252.470217","226018.56245","226785.089071","227551.894567","228328.671826","Mapping"
"Blocked","m160","cave","11","m160cling.wav","None","720.932850149","170","221435.625039","228318.969662","229085.421773","229852.03218","215985.780197","216751.75278","217518.721829","218285.226808","222202.147641","222951.796188","223718.613432","224485.114392","225252.470217","226018.56245","226785.089071","227551.894567","229094.946471","Mapping"
"Blocked","m160","cave","11","m160tile.wav","None","719.651326537","170","221435.625039","228318.969662","229085.421773","229852.03218","230601.754001","216751.75278","217518.721829","218285.226808","222202.147641","222951.796188","223718.613432","224485.114392","225252.470217","226018.56245","226785.089071","227551.894567","229861.251725","Mapping"
"Blocked","m160","cave","11","m160cave.wav","None","735.161309596","170","221435.625039","228318.969662","229085.421773","229852.03218","230601.754001","231368.452833","217518.721829","218285.226808","222202.147641","222951.796188","223718.613432","224485.114392","225252.470217","226018.56245","226785.089071","227551.894567","230610.828544","Mapping"
"Blocked","m160","cave","11","m160park.wav","space","350.814810488","170","221435.625039","228318.969662","229085.421773","229852.03218","230601.754001","231368.452833","232134.809409","218285.226808","222202.147641","222951.796188","223718.613432","224485.114392","225252.470217","226018.56245","226785.089071","227551.894567","231378.086669","Mapping"
"Blocked","m160","cave","11","m160ball.wav","None","732.310113963","170","221435.625039","228318.969662","229085.421773","229852.03218","230601.754001","231368.452833","232134.809409","232901.766709","222202.147641","222951.796188","223718.613432","224485.114392","225252.470217","226018.56245","226785.089071","227551.894567","232143.581889","Mapping"
"Blocked","m160","cave","7","m160jaw.wav","None","730.029343627","170","236035.123621","228318.969662","229085.421773","229852.03218","230601.754001","231368.452833","232134.809409","232901.766709","222202.147641","222951.796188","223718.613432","224485.114392","225252.470217","226018.56245","226785.089071","227551.894567","232911.052107","Mapping"
"Blocked","m160","cave","7","m160cave.wav","None","721.329828259","170","236035.123621","228318.969662","229085.421773","229852.03218","230601.754001","231368.452833","232134.809409","232901.766709","236801.905929","222951.796188","223718.613432","224485.114392","225252.470217","226018.56245","226785.089071","227551.894567","236044.86505","Mapping"
"Blocked","m160","cave","7","m160bluff.wav","space","373.967864085","170","236035.123621","228318.969662","229085.421773","229852.03218","230601.754001","231368.452833","232134.809409","232901.766709","236801.905929","237551.197381","223718.613432","224485.114392","225252.470217","226018.56245","226785.089071","227551.894567","236810.832687","Mapping"
"Blocked","m160","cave","7","m160tile.wav","None","736.183436587","170","236035.123621","228318.969662","229085.421773","229852.03218","230601.754001","231368.452833","232134.809409","232901.766709","236801.905929","237551.197381","238318.295973","224485.114392","225252.470217","226018.56245","226785.089071","227551.894567","237559.93678","Mapping"
"Blocked","m160","cave","7","m160cave.wav","None","733.345535584","170","236035.123621","228318.969662","229085.421773","229852.03218","230601.754001","231368.452833","232134.809409","232901.766709","236801.905929","237551.197381","238318.295973","239084.838672","225252.470217","226018.56245","226785.089071","227551.894567","238327.929501","Mapping"
"Blocked","m160","cave","7","m160lash.wav","space","424.300642218","170","236035.123621","228318.969662","229085.421773","229852.03218","230601.754001","231368.452833","232134.809409","232901.766709","236801.905929","237551.197381","238318.295973","239084.838672","239851.709094","226018.56245","226785.089071","227551.894567","239088.457235","Mapping"
"Blocked","m160","cave","7","m160jaw.wav","None","730.174036697","170","236035.123621","228318.969662","229085.421773","229852.03218","230601.754001","231368.452833","232134.809409","232901.766709","236801.905929","237551.197381","238318.295973","239084.838672","239851.709094","240618.349182","226785.089071","227551.894567","239860.725203","Mapping"
"Blocked","m160","cave","7","m160park.wav","None","728.202748578","170","236035.123621","228318.969662","229085.421773","229852.03218","230601.754001","231368.452833","232134.809409","232901.766709","236801.905929","237551.197381","238318.295973","239084.838672","239851.709094","240618.349182","241384.802839","227551.894567","240628.051037","Mapping"
"Blocked","m160","cave","7","m160cave.wav","None","728.128856048","170","236035.123621","228318.969662","229085.421773","229852.03218","230601.754001","231368.452833","232134.809409","232901.766709","236801.905929","237551.197381","238318.295973","239084.838672","239851.709094","240618.349182","241384.802839","242151.674497","241393.603763","Mapping"
"Blocked","m160","cave","7","m160ball.wav","space","551.438227296","170","236035.123621","242918.708781","229085.421773","229852.03218","230601.754001","231368.452833","232134.809409","232901.766709","236801.905929","237551.197381","238318.295973","239084.838672","239851.709094","240618.349182","241384.802839","242151.674497","242161.266905","Mapping"
"Blocked","m160","cave","7","m160park.wav","None","722.943402827","170","236035.123621","242918.708781","243685.133376","229852.03218","230601.754001","231368.452833","232134.809409","232901.766709","236801.905929","237551.197381","238318.295973","239084.838672","239851.709094","240618.349182","241384.802839","242151.674497","242928.664468","Mapping"
"Blocked","m160","cave","7","m160gnash.wav","None","722.216227558","170","236035.123621","242918.708781","243685.133376","244452.144162","230601.754001","231368.452833","232134.809409","232901.766709","236801.905929","237551.197381","238318.295973","239084.838672","239851.709094","240618.349182","241384.802839","242151.674497","243694.601805","Mapping"
"Blocked","m160","cave","7","m160cave.wav","None","720.893584657","170","236035.123621","242918.708781","243685.133376","244452.144162","245218.553607","231368.452833","232134.809409","232901.766709","236801.905929","237551.197381","238318.295973","239084.838672","239851.709094","240618.349182","241384.802839","242151.674497","244461.432653","Mapping"
"Blocked","m160","cave","7","m160done.wav","space","522.031836677","170","236035.123621","242918.708781","243685.133376","244452.144162","245218.553607","245968.296762","232134.809409","232901.766709","236801.905929","237551.197381","238318.295973","239084.838672","239851.709094","240618.349182","241384.802839","242151.674497","245222.63995","Mapping"
"Blocked","m160","cave","7","m160tile.wav","None","734.459486324","170","236035.123621","242918.708781","243685.133376","244452.144162","245218.553607","245968.296762","246734.709298","232901.766709","236801.905929","237551.197381","238318.295973","239084.838672","239851.709094","240618.349182","241384.802839","242151.674497","245977.977902","Mapping"
"Blocked","m160","cave","7","m160reek.wav","None","734.066527337","170","236035.123621","242918.708781","243685.133376","244452.144162","245218.553607","245968.296762","246734.709298","247501.520668","236801.905929","237551.197381","238318.295973","239084.838672","239851.709094","240618.349182","241384.802839","242151.674497","246743.734682","Mapping"
"Blocked","m160","ball","3","m160park.wav","None","732.335157227","170","250635.012072","242918.708781","243685.133376","244452.144162","245218.553607","245968.296762","246734.709298","247501.520668","236801.905929","237551.197381","238318.295973","239084.838672","239851.709094","240618.349182","241384.802839","242151.674497","247511.015996","Mapping"
"Blocked","m160","ball","3","m160reek.wav","None","721.528317314","170","250635.012072","242918.708781","243685.133376","244452.144162","245218.553607","245968.296762","246734.709298","247501.520668","251401.414406","237551.197381","238318.295973","239084.838672","239851.709094","240618.349182","241384.802839","242151.674497","250644.457931","Mapping"
"Blocked","m160","ball","3","m160tile.wav","None","721.370020881","170","250635.012072","242918.708781","243685.133376","244452.144162","245218.553607","245968.296762","246734.709298","247501.520668","251401.414406","252151.754883","238318.295973","239084.838672","239851.709094","240618.349182","241384.802839","242151.674497","251410.268507","Mapping"
"Blocked","m160","ball","3","m160ball.wav","None","736.231976189","170","250635.012072","242918.708781","243685.133376","244452.144162","245218.553607","245968.296762","246734.709298","247501.520668","251401.414406","252151.754883","252917.882052","239084.838672","239851.709094","240618.349182","241384.802839","242151.674497","252160.75677","Mapping"
"Blocked","m160","ball","3","m160dime.wav","space","377.406488638","170","250635.012072","242918.708781","243685.133376","244452.144162","245218.553607","245968.296762","246734.709298","247501.520668","251401.414406","252151.754883","252917.882052","253684.594796","239851.709094","240618.349182","241384.802839","242151.674497","252927.130968","Mapping"
"Blocked","m160","ball","3","m160lash.wav","None","733.40767948","170","250635.012072","242918.708781","243685.133376","244452.144162","245218.553607","245968.296762","246734.709298","247501.520668","251401.414406","252151.754883","252917.882052","253684.594796","254451.27384","240618.349182","241384.802839","242151.674497","253693.79981","Mapping"
"Blocked","m160","ball","3","m160ball.wav","None","732.653914951","170","250635.012072","242918.708781","243685.133376","244452.144162","245218.553607","245968.296762","246734.709298","247501.520668","251401.414406","252151.754883","252917.882052","253684.594796","254451.27384","255218.057075","241384.802839","242151.674497","254460.39043","Mapping"
"Blocked","m160","ball","3","m160tile.wav","space","549.257319421","170","250635.012072","242918.708781","243685.133376","244452.144162","245218.553607","245968.296762","246734.709298","247501.520668","251401.414406","252151.754883","252917.882052","253684.594796","254451.27384","255218.057075","255984.55989","242151.674497","255227.223133","Mapping"
"Blocked","m160","ball","3","m160ball.wav","None","727.304909378","170","250635.012072","242918.708781","243685.133376","244452.144162","245218.553607","245968.296762","246734.709298","247501.520668","251401.414406","252151.754883","252917.882052","253684.594796","254451.27384","255218.057075","255984.55989","256751.391666","255995.791534","Mapping"
"Blocked","m160","ball","3","m160bluff.wav","space","543.758674525","170","250635.012072","257517.96961","243685.133376","244452.144162","245218.553607","245968.296762","246734.709298","247501.520668","251401.414406","252151.754883","252917.882052","253684.594796","254451.27384","255218.057075","255984.55989","256751.391666","256760.717875","Mapping"
"Blocked","m160","ball","3","m160romp.wav","None","726.21600097","170","250635.012072","257517.96961","258284.505198","244452.144162","245218.553607","245968.296762","246734.709298","247501.520668","251401.414406","252151.754883","252917.882052","253684.594796","254451.27384","255218.057075","255984.55989","256751.391666","257527.122374","Mapping"
"Blocked","m160","ball","3","m160cling.wav","None","725.6106399","170","250635.012072","257517.96961","258284.505198","259051.853601","245218.553607","245968.296762","246734.709298","247501.520668","251401.414406","252151.754883","252917.882052","253684.594796","254451.27384","255218.057075","255984.55989","256751.391666","258293.140096","Mapping"
"Blocked","m160","ball","3","m160ball.wav","None","723.44302712","170","250635.012072","257517.96961","258284.505198","259051.853601","259818.402484","245968.296762","246734.709298","247501.520668","251401.414406","252151.754883","252917.882052","253684.594796","254451.27384","255218.057075","255984.55989","256751.391666","259060.911449","Mapping"
"Blocked","m160","ball","3","m160cad.wav","space","388.592065778","170","250635.012072","257517.96961","258284.505198","259051.853601","259818.402484","260585.229312","246734.709298","247501.520668","251401.414406","252151.754883","252917.882052","253684.594796","254451.27384","255218.057075","255984.55989","256751.391666","259827.806605","Mapping"
"Blocked","m160","ball","3","m160knife.wav","None","719.811169431","170","250635.012072","257517.96961","258284.505198","259051.853601","259818.402484","260585.229312","261334.292595","247501.520668","251401.414406","252151.754883","252917.882052","253684.594796","254451.27384","255218.057075","255984.55989","256751.391666","260594.668679","Mapping"
"Blocked","m160","ball","3","m160bluff.wav","None","736.661417875","170","250635.012072","257517.96961","258284.505198","259051.853601","259818.402484","260585.229312","261334.292595","262101.121897","251401.414406","252151.754883","252917.882052","253684.594796","254451.27384","255218.057075","255984.55989","256751.391666","261343.215333","Mapping"
"Blocked","m160","ball","4","m160cling.wav","None","734.495969024","170","265234.66926","257517.96961","258284.505198","259051.853601","259818.402484","260585.229312","261334.292595","262101.121897","251401.414406","252151.754883","252917.882052","253684.594796","254451.27384","255218.057075","255984.55989","256751.391666","262110.887132","Mapping"
"Blocked","m160","ball","4","m160ball.wav","None","721.138759051","170","265234.66926","257517.96961","258284.505198","259051.853601","259818.402484","260585.229312","261334.292595","262101.121897","266001.40952","252151.754883","252917.882052","253684.594796","254451.27384","255218.057075","255984.55989","256751.391666","265244.487674","Mapping"
"Blocked","m160","ball","4","m160cad.wav","space","461.345466319","170","265234.66926","257517.96961","258284.505198","259051.853601","259818.402484","260585.229312","261334.292595","262101.121897","266001.40952","266750.952949","252917.882052","253684.594796","254451.27384","255218.057075","255984.55989","256751.391666","266010.952151","Mapping"
"Blocked","m160","ball","4","m160bluff.wav","None","735.809954815","170","265234.66926","257517.96961","258284.505198","259051.853601","259818.402484","260585.229312","261334.292595","262101.121897","266001.40952","266750.952949","267517.67775","253684.594796","254451.27384","255218.057075","255984.55989","256751.391666","266760.186098","Mapping"
"Blocked","m160","ball","4","m160park.wav","None","734.197307844","170","265234.66926","257517.96961","258284.505198","259051.853601","259818.402484","260585.229312","261334.292595","262101.121897","266001.40952","266750.952949","267517.67775","268284.308873","254451.27384","255218.057075","255984.55989","256751.391666","267527.318698","Mapping"
"Blocked","m160","ball","4","m160ball.wav","None","733.379235025","170","265234.66926","257517.96961","258284.505198","259051.853601","259818.402484","260585.229312","261334.292595","262101.121897","266001.40952","266750.952949","267517.67775","268284.308873","269050.887126","255218.057075","255984.55989","256751.391666","268293.373831","Mapping"
"Blocked","m160","ball","4","m160cling.wav","space","396.249667276","170","265234.66926","257517.96961","258284.505198","259051.853601","259818.402484","260585.229312","261334.292595","262101.121897","266001.40952","266750.952949","267517.67775","268284.308873","269050.887126","269817.726012","255984.55989","256751.391666","269059.949302","Mapping"
"Blocked","m160","ball","4","m160ball.wav","None","730.025633704","170","265234.66926","257517.96961","258284.505198","259051.853601","259818.402484","260585.229312","261334.292595","262101.121897","266001.40952","266750.952949","267517.67775","268284.308873","269050.887126","269817.726012","270584.66909","256751.391666","269827.317493","Mapping"
"Blocked","m160","ball","4","m160jaw.wav","None","729.215908796","170","265234.66926","257517.96961","258284.505198","259051.853601","259818.402484","260585.229312","261334.292595","262101.121897","266001.40952","266750.952949","267517.67775","268284.308873","269050.887126","269817.726012","270584.66909","271350.793787","270593.675306","Mapping"
"Blocked","m160","ball","4","m160gnash.wav","space","72.4878208712","170","265234.66926","272117.780149","258284.505198","259051.853601","259818.402484","260585.229312","261334.292595","262101.121897","266001.40952","266750.952949","267517.67775","268284.308873","269050.887126","269817.726012","270584.66909","271350.793787","271359.723946","Mapping"
"Blocked","m160","ball","4","m160dime.wav","None","726.104080677","170","265234.66926","272117.780149","272884.293166","259051.853601","259818.402484","260585.229312","261334.292595","262101.121897","266001.40952","266750.952949","267517.67775","268284.308873","269050.887126","269817.726012","270584.66909","271350.793787","272126.917453","Mapping"
"Blocked","m160","ball","4","m160cave.wav","None","725.352789741","170","265234.66926","272117.780149","272884.293166","273651.450192","259818.402484","260585.229312","261334.292595","262101.121897","266001.40952","266750.952949","267517.67775","268284.308873","269050.887126","269817.726012","270584.66909","271350.793787","272893.664206","Mapping"
"Blocked","m160","ball","4","m160ball.wav","None","723.673670087","170","265234.66926","272117.780149","272884.293166","273651.450192","274418.140985","260585.229312","261334.292595","262101.121897","266001.40952","266750.952949","267517.67775","268284.308873","269050.887126","269817.726012","270584.66909","271350.793787","273660.960669","Mapping"
"Blocked","m160","ball","4","m160jaw.wav","space","436.109512579","170","265234.66926","272117.780149","272884.293166","273651.450192","274418.140985","275184.517039","261334.292595","262101.121897","266001.40952","266750.952949","267517.67775","268284.308873","269050.887126","269817.726012","270584.66909","271350.793787","274428.01845","Mapping"
"Blocked","m160","ball","4","m160reek.wav","None","720.831131563","170","265234.66926","272117.780149","272884.293166","273651.450192","274418.140985","275184.517039","275951.434765","262101.121897","266001.40952","266750.952949","267517.67775","268284.308873","269050.887126","269817.726012","270584.66909","271350.793787","275194.119649","Mapping"
"Blocked","m160","ball","4","m160park.wav","None","719.322675839","170","265234.66926","272117.780149","272884.293166","273651.450192","274418.140985","275184.517039","275951.434765","276700.591108","266001.40952","266750.952949","267517.67775","268284.308873","269050.887126","269817.726012","270584.66909","271350.793787","275961.119306","Mapping"
"Blocked","m160","ball","5","m160lash.wav","None","736.460146494","170","279834.637787","272117.780149","272884.293166","273651.450192","274418.140985","275184.517039","275951.434765","276700.591108","266001.40952","266750.952949","267517.67775","268284.308873","269050.887126","269817.726012","270584.66909","271350.793787","276709.556822","Mapping"
"Blocked","m160","ball","5","m160cad.wav","None","721.366619691","170","279834.637787","272117.780149","272884.293166","273651.450192","274418.140985","275184.517039","275951.434765","276700.591108","280601.453176","266750.952949","267517.67775","268284.308873","269050.887126","269817.726012","270584.66909","271350.793787","279844.160321","Mapping"
"Blocked","m160","ball","5","m160reek.wav","None","719.523328822","170","279834.637787","272117.780149","272884.293166","273651.450192","274418.140985","275184.517039","275951.434765","276700.591108","280601.453176","281367.864166","267517.67775","268284.308873","269050.887126","269817.726012","270584.66909","271350.793787","280611.523875","Mapping"
"Blocked","m160","ball","5","m160ball.wav","None","718.953213654","170","279834.637787","272117.780149","272884.293166","273651.450192","274418.140985","275184.517039","275951.434765","276700.591108","280601.453176","281367.864166","282117.3909","268284.308873","269050.887126","269817.726012","270584.66909","271350.793787","281377.380209","Mapping"
"Blocked","m160","ball","5","m160jaw.wav","space","361.481594853","170","279834.637787","272117.780149","272884.293166","273651.450192","274418.140985","275184.517039","275951.434765","276700.591108","280601.453176","281367.864166","282117.3909","282883.724288","269050.887126","269817.726012","270584.66909","271350.793787","282126.492031","Mapping"
"Blocked","m160","ball","5","m160lash.wav","None","737.3196478","170","279834.637787","272117.780149","272884.293166","273651.450192","274418.140985","275184.517039","275951.434765","276700.591108","280601.453176","281367.864166","282117.3909","282883.724288","283650.700138","269817.726012","270584.66909","271350.793787","282892.301371","Mapping"
"Blocked","m160","ball","5","m160jolt.wav","None","735.248187091","170","279834.637787","272117.780149","272884.293166","273651.450192","274418.140985","275184.517039","275951.434765","276700.591108","280601.453176","281367.864166","282117.3909","282883.724288","283650.700138","284417.448128","270584.66909","271350.793787","283659.94318","Mapping"
"Blocked","m160","ball","5","m160ball.wav","None","733.962026425","170","279834.637787","272117.780149","272884.293166","273651.450192","274418.140985","275184.517039","275951.434765","276700.591108","280601.453176","281367.864166","282117.3909","282883.724288","283650.700138","284417.448128","285184.014323","271350.793787","284426.923359","Mapping"
"Blocked","m160","ball","5","m160park.wav","space","383.012725972","170","279834.637787","272117.780149","272884.293166","273651.450192","274418.140985","275184.517039","275951.434765","276700.591108","280601.453176","281367.864166","282117.3909","282883.724288","283650.700138","284417.448128","285184.014323","285950.835896","285192.93026","Mapping"
"Blocked","m160","ball","5","m160ball.wav","None","731.412275229","170","279834.637787","286717.433627","272884.293166","273651.450192","274418.140985","275184.517039","275951.434765","276700.591108","280601.453176","281367.864166","282117.3909","282883.724288","283650.700138","284417.448128","285184.014323","285950.835896","285960.027306","Mapping"
"Blocked","m160","ball","5","m160priest.wav","space","456.965718884","170","279834.637787","286717.433627","287483.984983","273651.450192","274418.140985","275184.517039","275951.434765","276700.591108","280601.453176","281367.864166","282117.3909","282883.724288","283650.700138","284417.448128","285184.014323","285950.835896","286726.918443","Mapping"
"Blocked","m160","ball","5","m160jaw.wav","None","728.795433417","170","279834.637787","286717.433627","287483.984983","288250.739465","274418.140985","275184.517039","275951.434765","276700.591108","280601.453176","281367.864166","282117.3909","282883.724288","283650.700138","284417.448128","285184.014323","285950.835896","287492.945131","Mapping"
"Blocked","m160","ball","5","m160gnash.wav","None","727.545446251","170","279834.637787","286717.433627","287483.984983","288250.739465","289017.44417","275184.517039","275951.434765","276700.591108","280601.453176","281367.864166","282117.3909","282883.724288","283650.700138","284417.448128","285184.014323","285950.835896","288259.767322","Mapping"
"Blocked","m160","ball","5","m160romp.wav","None","726.051830687","170","279834.637787","286717.433627","287483.984983","288250.739465","289017.44417","289783.929981","275951.434765","276700.591108","280601.453176","281367.864166","282117.3909","282883.724288","283650.700138","284417.448128","285184.014323","285950.835896","289026.852311","Mapping"
"Blocked","m160","ball","5","m160ball.wav","None","725.912084337","170","279834.637787","286717.433627","287483.984983","288250.739465","289017.44417","289783.929981","290551.173266","276700.591108","280601.453176","281367.864166","282117.3909","282883.724288","283650.700138","284417.448128","285184.014323","285950.835896","289792.898477","Mapping"
"Blocked","m160","ball","5","m160park.wav","space","399.110137485","170","279834.637787","286717.433627","287483.984983","288250.739465","289017.44417","289783.929981","290551.173266","291317.692158","280601.453176","281367.864166","282117.3909","282883.724288","283650.700138","284417.448128","285184.014323","285950.835896","290560.740631","Mapping"
"Blocked","m160","cave","10","m160cling.wav","None","721.459371969","170","294434.17718","286717.433627","287483.984983","288250.739465","289017.44417","289783.929981","290551.173266","291317.692158","280601.453176","281367.864166","282117.3909","282883.724288","283650.700138","284417.448128","285184.014323","285950.835896","291327.262614","Mapping"
"Blocked","m160","cave","10","m160cave.wav","None","721.568200737","170","294434.17718","286717.433627","287483.984983","288250.739465","289017.44417","289783.929981","290551.173266","291317.692158","295201.086249","281367.864166","282117.3909","282883.724288","283650.700138","284417.448128","285184.014323","285950.835896","294443.734961","Mapping"
"Blocked","m160","cave","10","m160cling.wav","space","621.249536052","170","294434.17718","286717.433627","287483.984983","288250.739465","289017.44417","289783.929981","290551.173266","291317.692158","295201.086249","295950.166536","282117.3909","282883.724288","283650.700138","284417.448128","285184.014323","285950.835896","295210.51294","Mapping"
"Blocked","m160","cave","10","m160lash.wav","None","736.81755038","170","294434.17718","286717.433627","287483.984983","288250.739465","289017.44417","289783.929981","290551.173266","291317.692158","295201.086249","295950.166536","296717.148261","282883.724288","283650.700138","284417.448128","285184.014323","285950.835896","295958.898515","Mapping"
"Blocked","m160","cave","10","m160greet.wav","None","735.131319612","170","294434.17718","286717.433627","287483.984983","288250.739465","289017.44417","289783.929981","290551.173266","291317.692158","295201.086249","295950.166536","296717.148261","297483.662515","283650.700138","284417.448128","285184.014323","285950.835896","296726.259904","Mapping"
"Blocked","m160","cave","10","m160cad.wav","None","734.564296436","170","294434.17718","286717.433627","287483.984983","288250.739465","289017.44417","289783.929981","290551.173266","291317.692158","295201.086249","295950.166536","296717.148261","297483.662515","298250.556435","284417.448128","285184.014323","285950.835896","297492.486627","Mapping"
"Blocked","m160","cave","10","m160park.wav","None","733.020594344","170","294434.17718","286717.433627","287483.984983","288250.739465","289017.44417","289783.929981","290551.173266","291317.692158","295201.086249","295950.166536","296717.148261","297483.662515","298250.556435","299017.280309","285184.014323","285950.835896","298260.004767","Mapping"
"Blocked","m160","cave","10","m160cave.wav","None","732.354635373","170","294434.17718","286717.433627","287483.984983","288250.739465","289017.44417","289783.929981","290551.173266","291317.692158","295201.086249","295950.166536","296717.148261","297483.662515","298250.556435","299017.280309","299783.749115","285950.835896","299026.500781","Mapping"
"Blocked","m160","cave","10","m160dime.wav","space","518.165626097","170","294434.17718","286717.433627","287483.984983","288250.739465","289017.44417","289783.929981","290551.173266","291317.692158","295201.086249","295950.166536","296717.148261","297483.662515","298250.556435","299017.280309","299783.749115","300550.569141","299793.49178","Mapping"
"Blocked","m160","cave","10","m160dime.wav","None","729.790352751","170","294434.17718","301317.162854","287483.984983","288250.739465","289017.44417","289783.929981","290551.173266","291317.692158","295201.086249","295950.166536","296717.148261","297483.662515","298250.556435","299017.280309","299783.749115","300550.569141","300559.621733","Mapping"
"Blocked","m160","cave","10","m160cling.wav","None","728.410821874","170","294434.17718","301317.162854","302083.752546","288250.739465","289017.44417","289783.929981","290551.173266","291317.692158","295201.086249","295950.166536","296717.148261","297483.662515","298250.556435","299017.280309","299783.749115","300550.569141","301326.687553","Mapping"
"Blocked","m160","cave","10","m160cave.wav","None","728.10504958","170","294434.17718","301317.162854","302083.752546","302850.529598","289017.44417","289783.929981","290551.173266","291317.692158","295201.086249","295950.166536","296717.148261","297483.662515","298250.556435","299017.280309","299783.749115","300550.569141","302092.731245","Mapping"
"Blocked","m160","cave","10","m160cad.wav","space","364.140484482","170","294434.17718","301317.162854","302083.752546","302850.529598","303617.23183","289783.929981","290551.173266","291317.692158","295201.086249","295950.166536","296717.148261","297483.662515","298250.556435","299017.280309","299783.749115","300550.569141","302859.492529","Mapping"
"Blocked","m160","cave","10","m160cave.wav","None","724.915309809","170","294434.17718","301317.162854","302083.752546","302850.529598","303617.23183","304384.052785","290551.173266","291317.692158","295201.086249","295950.166536","296717.148261","297483.662515","298250.556435","299017.280309","299783.749115","300550.569141","303626.318431","Mapping"
"Blocked","m160","cave","10","m160depth.wav","space","533.94026123","170","294434.17718","301317.162854","302083.752546","302850.529598","303617.23183","304384.052785","305151.062953","291317.692158","295201.086249","295950.166536","296717.148261","297483.662515","298250.556435","299017.280309","299783.749115","300550.569141","304393.655704","Mapping"
"Blocked","m160","cave","10","m160jaw.wav","None","721.522443462","170","294434.17718","301317.162854","302083.752546","302850.529598","303617.23183","304384.052785","305151.062953","305917.525266","295201.086249","295950.166536","296717.148261","297483.662515","298250.556435","299017.280309","299783.749115","300550.569141","305160.301357","Mapping"
"Blocked","m160","tile","13","m160jaw.wav","None","720.16084427","170","309034.173532","301317.162854","302083.752546","302850.529598","303617.23183","304384.052785","305151.062953","305917.525266","295201.086249","295950.166536","296717.148261","297483.662515","298250.556435","299017.280309","299783.749115","300550.569141","305927.305961","Mapping"
"Blocked","m160","tile","13","m160jaw.wav","None","721.472666599","170","309034.173532","301317.162854","302083.752546","302850.529598","303617.23183","304384.052785","305151.062953","305917.525266","309800.381396","295950.166536","296717.148261","297483.662515","298250.556435","299017.280309","299783.749115","300550.569141","309043.602078","Mapping"
"Blocked","m160","tile","13","m160bluff.wav","None","721.854804084","170","309034.173532","301317.162854","302083.752546","302850.529598","303617.23183","304384.052785","305151.062953","305917.525266","309800.381396","310567.646632","296717.148261","297483.662515","298250.556435","299017.280309","299783.749115","300550.569141","309809.368443","Mapping"
"Blocked","m160","tile","13","m160tile.wav","None","719.313709997","170","309034.173532","301317.162854","302083.752546","302850.529598","303617.23183","304384.052785","305151.062953","305917.525266","309800.381396","310567.646632","311333.441132","297483.662515","298250.556435","299017.280309","299783.749115","300550.569141","310577.750103","Mapping"
"Blocked","m160","tile","13","m160ball.wav","space","409.236178268","170","309034.173532","301317.162854","302083.752546","302850.529598","303617.23183","304384.052785","305151.062953","305917.525266","309800.381396","310567.646632","311333.441132","312083.503353","298250.556435","299017.280309","299783.749115","300550.569141","311342.204028","Mapping"
"Blocked","m160","tile","13","m160dime.wav","None","735.22901861","170","309034.173532","301317.162854","302083.752546","302850.529598","303617.23183","304384.052785","305151.062953","305917.525266","309800.381396","310567.646632","311333.441132","312083.503353","312850.291844","299017.280309","299783.749115","300550.569141","312092.520698","Mapping"
"Blocked","m160","tile","13","m160tile.wav","None","734.476800077","170","309034.173532","301317.162854","302083.752546","302850.529598","303617.23183","304384.052785","305151.062953","305917.525266","309800.381396","310567.646632","311333.441132","312083.503353","312850.291844","313616.999023","299783.749115","300550.569141","312859.122758","Mapping"
"Blocked","m160","tile","13","m160cling.wav","space","525.331024081","170","309034.173532","301317.162854","302083.752546","302850.529598","303617.23183","304384.052785","305151.062953","305917.525266","309800.381396","310567.646632","311333.441132","312083.503353","312850.291844","313616.999023","314383.522552","300550.569141","313626.090261","Mapping"
"Blocked","m160","tile","13","m160tile.wav","None","731.524195988","170","309034.173532","301317.162854","302083.752546","302850.529598","303617.23183","304384.052785","305151.062953","305917.525266","309800.381396","310567.646632","311333.441132","312083.503353","312850.291844","313616.999023","314383.522552","315150.325884","314393.074768","Mapping"
"Blocked","m160","tile","13","m160romp.wav","space","488.005161751","170","309034.173532","315917.096443","302083.752546","302850.529598","303617.23183","304384.052785","305151.062953","305917.525266","309800.381396","310567.646632","311333.441132","312083.503353","312850.291844","313616.999023","314383.522552","315150.325884","315159.397953","Mapping"
"Blocked","m160","tile","13","m160lash.wav","None","728.8863305","170","309034.173532","315917.096443","316683.465695","302850.529598","303617.23183","304384.052785","305151.062953","305917.525266","309800.381396","310567.646632","311333.441132","312083.503353","312850.291844","313616.999023","314383.522552","315150.325884","315926.125537","Mapping"
"Blocked","m160","tile","13","m160reek.wav","None","728.641465306","170","309034.173532","315917.096443","316683.465695","317450.307365","303617.23183","304384.052785","305151.062953","305917.525266","309800.381396","310567.646632","311333.441132","312083.503353","312850.291844","313616.999023","314383.522552","315150.325884","316692.409767","Mapping"
"Blocked","m160","tile","13","m160reek.wav","None","726.953997742","170","309034.173532","315917.096443","316683.465695","317450.307365","318216.916226","304384.052785","305151.062953","305917.525266","309800.381396","310567.646632","311333.441132","312083.503353","312850.291844","313616.999023","314383.522552","315150.325884","317460.113411","Mapping"
"Blocked","m160","tile","13","m160tile.wav","None","727.00408427","170","309034.173532","315917.096443","316683.465695","317450.307365","318216.916226","318983.417496","305151.062953","305917.525266","309800.381396","310567.646632","311333.441132","312083.503353","312850.291844","313616.999023","314383.522552","315150.325884","318225.962634","Mapping"
"Blocked","m160","tile","13","m160jaw.wav","None","725.999579765","170","309034.173532","315917.096443","316683.465695","317450.307365","318216.916226","318983.417496","319750.202277","305917.525266","309800.381396","310567.646632","311333.441132","312083.503353","312850.291844","313616.999023","314383.522552","315150.325884","318992.980223","Mapping"
"Blocked","m160","tile","13","m160romp.wav","space","224.051943514","170","309034.173532","315917.096443","316683.465695","317450.307365","318216.916226","318983.417496","319750.202277","320517.244908","309800.381396","310567.646632","311333.441132","312083.503353","312850.291844","313616.999023","314383.522552","315150.325884","319759.284858","Mapping"
"Blocked","m160","ball","1","m160priest.wav","None","722.835810855","170","323650.630883","315917.096443","316683.465695","317450.307365","318216.916226","318983.417496","319750.202277","320517.244908","309800.381396","310567.646632","311333.441132","312083.503353","312850.291844","313616.999023","314383.522552","315150.325884","320526.809181","Mapping"
"Blocked","m160","ball","1","m160cave.wav","None","721.830379218","170","323650.630883","315917.096443","316683.465695","317450.307365","318216.916226","318983.417496","319750.202277","320517.244908","324417.070627","310567.646632","311333.441132","312083.503353","312850.291844","313616.999023","314383.522552","315150.325884","323660.044589","Mapping"
"Blocked","m160","ball","1","m160ball.wav","None","720.725085121","170","323650.630883","315917.096443","316683.465695","317450.307365","318216.916226","318983.417496","319750.202277","320517.244908","324417.070627","325183.996701","311333.441132","312083.503353","312850.291844","313616.999023","314383.522552","315150.325884","324427.028478","Mapping"
"Blocked","m160","ball","1","m160jaw.wav","space","421.571570914","170","323650.630883","315917.096443","316683.465695","317450.307365","318216.916226","318983.417496","319750.202277","320517.244908","324417.070627","325183.996701","325933.290317","312083.503353","312850.291844","313616.999023","314383.522552","315150.325884","325193.639194","Mapping"
"Blocked","m160","ball","1","m160ball.wav","None","736.200749874","170","323650.630883","315917.096443","316683.465695","317450.307365","318216.916226","318983.417496","319750.202277","320517.244908","324417.070627","325183.996701","325933.290317","326699.961632","312850.291844","313616.999023","314383.522552","315150.325884","325942.311063","Mapping"
"Blocked","m160","ball","1","m160reek.wav","None","735.193463508","170","323650.630883","315917.096443","316683.465695","317450.307365","318216.916226","318983.417496","319750.202277","320517.244908","324417.070627","325183.996701","325933.290317","326699.961632","327466.62398","313616.999023","314383.522552","315150.325884","326709.118105","Mapping"
"Blocked","m160","ball","1","m160knife.wav","space","131.419324316","170","323650.630883","315917.096443","316683.465695","317450.307365","318216.916226","318983.417496","319750.202277","320517.244908","324417.070627","325183.996701","325933.290317","326699.961632","327466.62398","328233.298077","314383.522552","315150.325884","327475.737788","Mapping"
"Blocked","m160","ball","1","m160ball.wav","None","732.30949603","170","323650.630883","315917.096443","316683.465695","317450.307365","318216.916226","318983.417496","319750.202277","320517.244908","324417.070627","325183.996701","325933.290317","326699.961632","327466.62398","328233.298077","329000.113467","315150.325884","328242.663552","Mapping"
"Blocked","m160","ball","1","m160depth.wav","space","437.998251989","170","323650.630883","315917.096443","316683.465695","317450.307365","318216.916226","318983.417496","319750.202277","320517.244908","324417.070627","325183.996701","325933.290317","326699.961632","327466.62398","328233.298077","329000.113467","329766.703469","329009.152145","Mapping"
"Blocked","m160","ball","1","m160priest.wav","None","728.801616933","170","323650.630883","330533.209376","316683.465695","317450.307365","318216.916226","318983.417496","319750.202277","320517.244908","324417.070627","325183.996701","325933.290317","326699.961632","327466.62398","328233.298077","329000.113467","329766.703469","329776.448299","Mapping"
"Blocked","m160","ball","1","m160ball.wav","None","728.805326857","170","323650.630883","330533.209376","331300.051972","317450.307365","318216.916226","318983.417496","319750.202277","320517.244908","324417.070627","325183.996701","325933.290317","326699.961632","327466.62398","328233.298077","329000.113467","329766.703469","330542.408824","Mapping"
"Blocked","m160","ball","1","m160jolt.wav","space","394.041243009","170","323650.630883","330533.209376","331300.051972","332066.677529","318216.916226","318983.417496","319750.202277","320517.244908","324417.070627","325183.996701","325933.290317","326699.961632","327466.62398","328233.298077","329000.113467","329766.703469","331309.063134","Mapping"
"Blocked","m160","ball","1","m160bluff.wav","None","725.916721392","170","323650.630883","330533.209376","331300.051972","332066.677529","332833.201677","318983.417496","319750.202277","320517.244908","324417.070627","325183.996701","325933.290317","326699.961632","327466.62398","328233.298077","329000.113467","329766.703469","332075.814525","Mapping"
"Blocked","m160","ball","1","m160cad.wav","None","725.186145399","170","323650.630883","330533.209376","331300.051972","332066.677529","332833.201677","333600.432286","319750.202277","320517.244908","324417.070627","325183.996701","325933.290317","326699.961632","327466.62398","328233.298077","329000.113467","329766.703469","332842.42555","Mapping"
"Blocked","m160","ball","1","m160knife.wav","None","723.481673747","170","323650.630883","330533.209376","331300.051972","332066.677529","332833.201677","333600.432286","334367.06279","320517.244908","324417.070627","325183.996701","325933.290317","326699.961632","327466.62398","328233.298077","329000.113467","329766.703469","333609.963477","Mapping"
"Blocked","m160","ball","1","m160reek.wav","None","722.991015762","170","323650.630883","330533.209376","331300.051972","332066.677529","332833.201677","333600.432286","334367.06279","335133.612908","324417.070627","325183.996701","325933.290317","326699.961632","327466.62398","328233.298077","329000.113467","329766.703469","334376.47495","Mapping"
"Blocked","m160","ball","6","m160jaw.wav","None","722.260439303","170","338249.721976","330533.209376","331300.051972","332066.677529","332833.201677","333600.432286","334367.06279","335133.612908","324417.070627","325183.996701","325933.290317","326699.961632","327466.62398","328233.298077","329000.113467","329766.703469","335143.08814","Mapping"
"Blocked","m160","ball","6","m160cling.wav","None","722.429248039","170","338249.721976","330533.209376","331300.051972","332066.677529","332833.201677","333600.432286","334367.06279","335133.612908","339016.899716","325183.996701","325933.290317","326699.961632","327466.62398","328233.298077","329000.113467","329766.703469","338259.310055","Mapping"
"Blocked","m160","ball","6","m160romp.wav","None","721.144014969","170","338249.721976","330533.209376","331300.051972","332066.677529","332833.201677","333600.432286","334367.06279","335133.612908","339016.899716","339783.052547","325933.290317","326699.961632","327466.62398","328233.298077","329000.113467","329766.703469","339026.532007","Mapping"
"Blocked","m160","ball","6","m160priest.wav","None","721.097639296","170","338249.721976","330533.209376","331300.051972","332066.677529","332833.201677","333600.432286","334367.06279","335133.612908","339016.899716","339783.052547","340550.106309","326699.961632","327466.62398","328233.298077","329000.113467","329766.703469","339792.419877","Mapping"
"Blocked","m160","ball","6","m160cad.wav","None","719.92772771","170","338249.721976","330533.209376","331300.051972","332066.677529","332833.201677","333600.432286","334367.06279","335133.612908","339016.899716","339783.052547","340550.106309","341316.773295","327466.62398","328233.298077","329000.113467","329766.703469","340559.691297","Mapping"
"Blocked","m160","ball","6","m160ball.wav","None","719.070390798","170","338249.721976","330533.209376","331300.051972","332066.677529","332833.201677","333600.432286","334367.06279","335133.612908","339016.899716","339783.052547","340550.106309","341316.773295","342065.875534","328233.298077","329000.113467","329766.703469","341326.393838","Mapping"
"Blocked","m160","ball","6","m160done.wav","space","380.332194269","170","338249.721976","330533.209376","331300.051972","332066.677529","332833.201677","333600.432286","334367.06279","335133.612908","339016.899716","339783.052547","340550.106309","341316.773295","342065.875534","342832.98371","329000.113467","329766.703469","342074.549078","Mapping"
"Blocked","m160","ball","6","m160cling.wav","None","734.07858517","170","338249.721976","330533.209376","331300.051972","332066.677529","332833.201677","333600.432286","334367.06279","335133.612908","339016.899716","339783.052547","340550.106309","341316.773295","342065.875534","342832.98371","343599.750559","329766.703469","342842.325687","Mapping"
"Blocked","m160","ball","6","m160priest.wav","None","733.518363442","170","338249.721976","330533.209376","331300.051972","332066.677529","332833.201677","333600.432286","334367.06279","335133.612908","339016.899716","339783.052547","340550.106309","341316.773295","342065.875534","342832.98371","343599.750559","344366.42311","343608.753373","Mapping"
"Blocked","m160","ball","6","m160ball.wav","None","732.993696351","170","338249.721976","345132.933346","331300.051972","332066.677529","332833.201677","333600.432286","334367.06279","335133.612908","339016.899716","339783.052547","340550.106309","341316.773295","342065.875534","342832.98371","343599.750559","344366.42311","344375.554231","Mapping"
"Blocked","m160","ball","6","m160jaw.wav","space","392.706542276","170","338249.721976","345132.933346","345899.791401","332066.677529","332833.201677","333600.432286","334367.06279","335133.612908","339016.899716","339783.052547","340550.106309","341316.773295","342065.875534","342832.98371","343599.750559","344366.42311","345142.163093","Mapping"
"Blocked","m160","ball","6","m160ball.wav","None","730.16290646","170","338249.721976","345132.933346","345899.791401","346665.845915","332833.201677","333600.432286","334367.06279","335133.612908","339016.899716","339783.052547","340550.106309","341316.773295","342065.875534","342832.98371","343599.750559","344366.42311","345908.914793","Mapping"
"Blocked","m160","ball","6","m160cling.wav","space","612.297734711","170","338249.721976","345132.933346","345899.791401","346665.845915","347432.930594","333600.432286","334367.06279","335133.612908","339016.899716","339783.052547","340550.106309","341316.773295","342065.875534","342832.98371","343599.750559","344366.42311","346674.533064","Mapping"
"Blocked","m160","ball","6","m160ball.wav","None","730.212992523","170","338249.721976","345132.933346","345899.791401","346665.845915","347432.930594","348199.783084","334367.06279","335133.612908","339016.899716","339783.052547","340550.106309","341316.773295","342065.875534","342832.98371","343599.750559","344366.42311","347441.916713","Mapping"
"Blocked","m160","ball","6","m160done.wav","space","493.613254279","170","338249.721976","345132.933346","345899.791401","346665.845915","347432.930594","348199.783084","348966.245707","335133.612908","339016.899716","339783.052547","340550.106309","341316.773295","342065.875534","342832.98371","343599.750559","344366.42311","348209.209157","Mapping"
"Blocked","m160","ball","6","m160cave.wav","None","727.01057652","170","338249.721976","345132.933346","345899.791401","346665.845915","347432.930594","348199.783084","348966.245707","349732.830762","339016.899716","339783.052547","340550.106309","341316.773295","342065.875534","342832.98371","343599.750559","344366.42311","348975.681673","Mapping"
"Blocked","m160","tile","17","m160done.wav","None","726.688417606","170","352866.168815","345132.933346","345899.791401","346665.845915","347432.930594","348199.783084","348966.245707","349732.830762","339016.899716","339783.052547","340550.106309","341316.773295","342065.875534","342832.98371","343599.750559","344366.42311","349741.890464","Mapping"
"Blocked","m160","tile","17","m160jolt.wav","None","722.059167922","170","352866.168815","345132.933346","345899.791401","346665.845915","347432.930594","348199.783084","348966.245707","349732.830762","353633.123951","339783.052547","340550.106309","341316.773295","342065.875534","342832.98371","343599.750559","344366.42311","352875.377539","Mapping"
"Blocked","m160","tile","17","m160cad.wav","None","400.673626456","170","352866.168815","345132.933346","345899.791401","346665.845915","347432.930594","348199.783084","348966.245707","349732.830762","353633.123951","354400.173693","340550.106309","341316.773295","342065.875534","342832.98371","343599.750559","344366.42311","353962.737518","Mapping"
"Blocked","m160","tile","17","m160tile.wav","None","719.718108419","170","352866.168815","345132.933346","345899.791401","346665.845915","347432.930594","348199.783084","348966.245707","349732.830762","353633.123951","354400.173693","355166.602307","341316.773295","342065.875534","342832.98371","343599.750559","344366.42311","354409.842158","Mapping"
"Blocked","m160","tile","17","m160jolt.wav","space","366.099406034","170","352866.168815","345132.933346","345899.791401","346665.845915","347432.930594","348199.783084","348966.245707","349732.830762","353633.123951","354400.173693","355166.602307","355916.089775","342065.875534","342832.98371","343599.750559","344366.42311","355176.577162","Mapping"
"Blocked","m160","tile","17","m160dime.wav","None","735.023417976","170","352866.168815","345132.933346","345899.791401","346665.845915","347432.930594","348199.783084","348966.245707","349732.830762","353633.123951","354400.173693","355166.602307","355916.089775","356682.67112","342832.98371","343599.750559","344366.42311","355925.273147","Mapping"
"Blocked","m160","tile","17","m160tile.wav","None","733.949659858","170","352866.168815","345132.933346","345899.791401","346665.845915","347432.930594","348199.783084","348966.245707","349732.830762","353633.123951","354400.173693","355166.602307","355916.089775","356682.67112","357449.541543","343599.750559","344366.42311","356692.385652","Mapping"
"Blocked","m160","tile","17","m160cad.wav","space","651.959400624","170","352866.168815","345132.933346","345899.791401","346665.845915","347432.930594","348199.783084","348966.245707","349732.830762","353633.123951","354400.173693","355166.602307","355916.089775","356682.67112","357449.541543","358216.202964","344366.42311","357458.634635","Mapping"
"Blocked","m160","tile","17","m160tile.wav","None","731.343329884","170","352866.168815","345132.933346","345899.791401","346665.845915","347432.930594","348199.783084","348966.245707","349732.830762","353633.123951","354400.173693","355166.602307","355916.089775","356682.67112","357449.541543","358216.202964","358982.69774","358226.004063","Mapping"
"Blocked","m160","tile","17","m160greet.wav","space","590.880070813","170","352866.168815","359749.501072","345899.791401","346665.845915","347432.930594","348199.783084","348966.245707","349732.830762","353633.123951","354400.173693","355166.602307","355916.089775","356682.67112","357449.541543","358216.202964","358982.69774","358991.716632","Mapping"
"Blocked","m160","tile","17","m160park.wav","None","729.186846409","170","352866.168815","359749.501072","360516.112716","346665.845915","347432.930594","348199.783084","348966.245707","349732.830762","353633.123951","354400.173693","355166.602307","355916.089775","356682.67112","357449.541543","358216.202964","358982.69774","359758.903029","Mapping"
"Blocked","m160","tile","17","m160romp.wav","None","723.712316714","170","352866.168815","359749.501072","360516.112716","361282.854831","347432.930594","348199.783084","348966.245707","349732.830762","353633.123951","354400.173693","355166.602307","355916.089775","356682.67112","357449.541543","358216.202964","358982.69774","360530.465772","Mapping"
"Blocked","m160","tile","17","m160tile.wav","None","728.272003122","170","352866.168815","359749.501072","360516.112716","361282.854831","362049.421954","348199.783084","348966.245707","349732.830762","353633.123951","354400.173693","355166.602307","355916.089775","356682.67112","357449.541543","358216.202964","358982.69774","361292.208248","Mapping"
"Blocked","m160","tile","17","m160dime.wav","space","428.169945255","170","352866.168815","359749.501072","360516.112716","361282.854831","362049.421954","362816.05926","348966.245707","349732.830762","353633.123951","354400.173693","355166.602307","355916.089775","356682.67112","357449.541543","358216.202964","358982.69774","362058.347475","Mapping"
"Blocked","m160","tile","17","m160reek.wav","None","726.351419464","170","352866.168815","359749.501072","360516.112716","361282.854831","362049.421954","362816.05926","363582.655136","349732.830762","353633.123951","354400.173693","355166.602307","355916.089775","356682.67112","357449.541543","358216.202964","358982.69774","362825.148952","Mapping"
"Blocked","m160","tile","17","m160knife.wav","None","725.96711712","170","352866.168815","359749.501072","360516.112716","361282.854831","362049.421954","362816.05926","363582.655136","364349.383648","353633.123951","354400.173693","355166.602307","355916.089775","356682.67112","357449.541543","358216.202964","358982.69774","363591.786257","Mapping"
"Blocked","m160","tile","15","m160cling.wav","None","725.906209555","170","367482.924209","359749.501072","360516.112716","361282.854831","362049.421954","362816.05926","363582.655136","364349.383648","353633.123951","354400.173693","355166.602307","355916.089775","356682.67112","357449.541543","358216.202964","358982.69774","364358.411196","Mapping"
"Blocked","m160","tile","15","m160tile.wav","None","721.867789514","170","367482.924209","359749.501072","360516.112716","361282.854831","362049.421954","362816.05926","363582.655136","364349.383648","368249.805453","354400.173693","355166.602307","355916.089775","356682.67112","357449.541543","358216.202964","358982.69774","367492.118402","Mapping"
"Blocked","m160","tile","15","m160romp.wav","space","635.118118022","170","367482.924209","359749.501072","360516.112716","361282.854831","362049.421954","362816.05926","363582.655136","364349.383648","368249.805453","368999.633321","355166.602307","355916.089775","356682.67112","357449.541543","358216.202964","358982.69774","368259.336335","Mapping"
"Blocked","m160","tile","15","m160cling.wav","None","735.479448456","170","367482.924209","359749.501072","360516.112716","361282.854831","362049.421954","362816.05926","363582.655136","364349.383648","368249.805453","368999.633321","369766.062243","355916.089775","356682.67112","357449.541543","358216.202964","358982.69774","369009.342287","Mapping"
"Blocked","m160","tile","15","m160reek.wav","None","735.873953905","170","367482.924209","359749.501072","360516.112716","361282.854831","362049.421954","362816.05926","363582.655136","364349.383648","368249.805453","368999.633321","369766.062243","370532.687491","356682.67112","357449.541543","358216.202964","358982.69774","369775.150699","Mapping"
"Blocked","m160","tile","15","m160ball.wav","None","735.244786367","170","367482.924209","359749.501072","360516.112716","361282.854831","362049.421954","362816.05926","363582.655136","364349.383648","368249.805453","368999.633321","369766.062243","370532.687491","371299.079622","357449.541543","358216.202964","358982.69774","370541.858496","Mapping"
"Blocked","m160","tile","15","m160priest.wav","None","735.08123355","170","367482.924209","359749.501072","360516.112716","361282.854831","362049.421954","362816.05926","363582.655136","364349.383648","368249.805453","368999.633321","369766.062243","370532.687491","371299.079622","372065.810916","358216.202964","358982.69774","371308.245062","Mapping"
"Blocked","m160","tile","15","m160tile.wav","None","734.841315076","170","367482.924209","359749.501072","360516.112716","361282.854831","362049.421954","362816.05926","363582.655136","364349.383648","368249.805453","368999.633321","369766.062243","370532.687491","371299.079622","372065.810916","372832.411121","358982.69774","372075.000781","Mapping"
"Blocked","m160","tile","15","m160reek.wav","space","428.667404689","170","367482.924209","359749.501072","360516.112716","361282.854831","362049.421954","362816.05926","363582.655136","364349.383648","368249.805453","368999.633321","369766.062243","370532.687491","371299.079622","372065.810916","372832.411121","373599.21909","372841.704249","Mapping"
"Blocked","m160","tile","15","m160greet.wav","None","732.353707775","170","367482.924209","374365.853304","360516.112716","361282.854831","362049.421954","362816.05926","363582.655136","364349.383648","368249.805453","368999.633321","369766.062243","370532.687491","371299.079622","372065.810916","372832.411121","373599.21909","373608.263334","Mapping"
"Blocked","m160","tile","15","m160tile.wav","None","731.429588981","170","367482.924209","374365.853304","375132.330767","361282.854831","362049.421954","362816.05926","363582.655136","364349.383648","368249.805453","368999.633321","369766.062243","370532.687491","371299.079622","372065.810916","372832.411121","373599.21909","374375.320187","Mapping"
"Blocked","m160","tile","15","m160knife.wav","space","480.832343921","170","367482.924209","374365.853304","375132.330767","375898.817196","362049.421954","362816.05926","363582.655136","364349.383648","368249.805453","368999.633321","369766.062243","370532.687491","371299.079622","372065.810916","372832.411121","373599.21909","375141.487859","Mapping"
"Blocked","m160","tile","15","m160cad.wav","None","729.88897888","170","367482.924209","374365.853304","375132.330767","375898.817196","376665.584354","362816.05926","363582.655136","364349.383648","368249.805453","368999.633321","369766.062243","370532.687491","371299.079622","372065.810916","372832.411121","373599.21909","375907.740244","Mapping"
"Blocked","m160","tile","15","m160depth.wav","None","729.44098711","170","367482.924209","374365.853304","375132.330767","375898.817196","376665.584354","377432.480128","363582.655136","364349.383648","368249.805453","368999.633321","369766.062243","370532.687491","371299.079622","372065.810916","372832.411121","373599.21909","376674.409703","Mapping"
"Blocked","m160","tile","15","m160tile.wav","None","728.180796839","170","367482.924209","374365.853304","375132.330767","375898.817196","376665.584354","377432.480128","378198.818464","364349.383648","368249.805453","368999.633321","369766.062243","370532.687491","371299.079622","372065.810916","372832.411121","373599.21909","377441.928462","Mapping"
"Blocked","m160","tile","15","m160greet.wav","space","382.718393113","170","367482.924209","374365.853304","375132.330767","375898.817196","376665.584354","377432.480128","378198.818464","378965.433199","368249.805453","368999.633321","369766.062243","370532.687491","371299.079622","372065.810916","372832.411121","373599.21909","378207.521689","Mapping"
"Blocked","m160","tile","18","m160priest.wav","None","732.58867953","170","382099.668783","374365.853304","375132.330767","375898.817196","376665.584354","377432.480128","378198.818464","378965.433199","368249.805453","368999.633321","369766.062243","370532.687491","371299.079622","372065.810916","372832.411121","373599.21909","378974.216501","Mapping"
"Blocked","m160","tile","18","m160tile.wav","None","721.715985332","170","382099.668783","374365.853304","375132.330767","375898.817196","376665.584354","377432.480128","378198.818464","378965.433199","382865.648168","368999.633321","369766.062243","370532.687491","371299.079622","372065.810916","372832.411121","373599.21909","382109.036421","Mapping"
"Blocked","m160","tile","18","m160ball.wav","space","427.32621124","170","382099.668783","374365.853304","375132.330767","375898.817196","376665.584354","377432.480128","378198.818464","378965.433199","382865.648168","383632.529411","369766.062243","370532.687491","371299.079622","372065.810916","372832.411121","373599.21909","382874.890282","Mapping"
"Blocked","m160","tile","18","m160tile.wav","None","719.282483216","170","382099.668783","374365.853304","375132.330767","375898.817196","376665.584354","377432.480128","378198.818464","378965.433199","382865.648168","383632.529411","384399.346346","370532.687491","371299.079622","372065.810916","372832.411121","373599.21909","383642.363592","Mapping"
"Blocked","m160","tile","18","m160reek.wav","space","397.323425394","170","382099.668783","374365.853304","375132.330767","375898.817196","376665.584354","377432.480128","378198.818464","378965.433199","382865.648168","383632.529411","384399.346346","385149.05951","371299.079622","372065.810916","372832.411121","373599.21909","384408.799317","Mapping"
"Blocked","m160","tile","18","m160jaw.wav","None","734.465669841","170","382099.668783","374365.853304","375132.330767","375898.817196","376665.584354","377432.480128","378198.818464","378965.433199","382865.648168","383632.529411","384399.346346","385149.05951","385915.577166","372065.810916","372832.411121","373599.21909","385158.208564","Mapping"
"Blocked","m160","tile","18","m160greet.wav","None","734.267799184","170","382099.668783","374365.853304","375132.330767","375898.817196","376665.584354","377432.480128","378198.818464","378965.433199","382865.648168","383632.529411","384399.346346","385149.05951","385915.577166","386682.045354","372832.411121","373599.21909","385924.748171","Mapping"
"Blocked","m160","tile","18","m160park.wav","None","734.487930313","170","382099.668783","374365.853304","375132.330767","375898.817196","376665.584354","377432.480128","378198.818464","378965.433199","382865.648168","383632.529411","384399.346346","385149.05951","385915.577166","386682.045354","387449.058614","373599.21909","386690.875031","Mapping"
"Blocked","m160","tile","18","m160jaw.wav","None","733.616989572","170","382099.668783","374365.853304","375132.330767","375898.817196","376665.584354","377432.480128","378198.818464","378965.433199","382865.648168","383632.529411","384399.346346","385149.05951","385915.577166","386682.045354","387449.058614","388215.653563","387458.0571","Mapping"
"Blocked","m160","tile","18","m160cad.wav","None","733.132515103","170","382099.668783","388981.985096","375132.330767","375898.817196","376665.584354","377432.480128","378198.818464","378965.433199","382865.648168","383632.529411","384399.346346","385149.05951","385915.577166","386682.045354","387449.058614","388215.653563","388224.784375","Mapping"
"Blocked","m160","tile","18","m160tile.wav","None","733.187238686","170","382099.668783","388981.985096","389748.793065","375898.817196","376665.584354","377432.480128","378198.818464","378965.433199","382865.648168","383632.529411","384399.346346","385149.05951","385915.577166","386682.045354","387449.058614","388215.653563","388990.953901","Mapping"
"Blocked","m160","tile","18","m160priest.wav","space","536.359850317","170","382099.668783","388981.985096","389748.793065","390515.57259","376665.584354","377432.480128","378198.818464","378965.433199","382865.648168","383632.529411","384399.346346","385149.05951","385915.577166","386682.045354","387449.058614","388215.653563","389757.718586","Mapping"
"Blocked","m160","tile","18","m160tile.wav","None","730.203408282","170","382099.668783","388981.985096","389748.793065","390515.57259","391282.145897","377432.480128","378198.818464","378965.433199","382865.648168","383632.529411","384399.346346","385149.05951","385915.577166","386682.045354","387449.058614","388215.653563","390524.763073","Mapping"
"Blocked","m160","tile","18","m160cling.wav","None","730.151467025","170","382099.668783","388981.985096","389748.793065","390515.57259","391282.145897","392048.980455","378198.818464","378965.433199","382865.648168","383632.529411","384399.346346","385149.05951","385915.577166","386682.045354","387449.058614","388215.653563","391291.155204","Mapping"
"Blocked","m160","tile","18","m160cling.wav","space","0.0389558263123","170","382099.668783","388981.985096","389748.793065","390515.57259","391282.145897","392048.980455","392815.502439","378965.433199","382865.648168","383632.529411","384399.346346","385149.05951","385915.577166","386682.045354","387449.058614","388215.653563","392058.067983","Mapping"
"Blocked","m160","tile","18","m160gnash.wav","None","727.601097431","170","382099.668783","388981.985096","389748.793065","390515.57259","391282.145897","392048.980455","392815.502439","393582.055649","382865.648168","383632.529411","384399.346346","385149.05951","385915.577166","386682.045354","387449.058614","388215.653563","392824.945516","Mapping"
"Blocked","m160","ball","2","m160greet.wav","None","727.920473553","170","396715.852825","388981.985096","389748.793065","390515.57259","391282.145897","392048.980455","392815.502439","393582.055649","382865.648168","383632.529411","384399.346346","385149.05951","385915.577166","386682.045354","387449.058614","388215.653563","393591.032493","Mapping"
"Blocked","m160","ball","2","m160ball.wav","None","720.840097405","170","396715.852825","388981.985096","389748.793065","390515.57259","391282.145897","392048.980455","392815.502439","393582.055649","397482.347292","383632.529411","384399.346346","385149.05951","385915.577166","386682.045354","387449.058614","388215.653563","396725.594873","Mapping"
"Blocked","m160","ball","2","m160greet.wav","space","690.066852607","170","396715.852825","388981.985096","389748.793065","390515.57259","391282.145897","392048.980455","392815.502439","393582.055649","397482.347292","398232.309341","384399.346346","385149.05951","385915.577166","386682.045354","387449.058614","388215.653563","397491.833035","Mapping"
"Blocked","m160","ball","2","m160tile.wav","None","736.116654705","170","396715.852825","388981.985096","389748.793065","390515.57259","391282.145897","392048.980455","392815.502439","393582.055649","397482.347292","398232.309341","398998.583368","385149.05951","385915.577166","386682.045354","387449.058614","388215.653563","398241.299789","Mapping"
"Blocked","m160","ball","2","m160ball.wav","space","406.251729466","170","396715.852825","388981.985096","389748.793065","390515.57259","391282.145897","392048.980455","392815.502439","393582.055649","397482.347292","398232.309341","398998.583368","399765.455646","385915.577166","386682.045354","387449.058614","388215.653563","399007.633795","Mapping"
"Blocked","m160","ball","2","m160lash.wav","None","732.955358922","170","396715.852825","388981.985096","389748.793065","390515.57259","391282.145897","392048.980455","392815.502439","393582.055649","397482.347292","398232.309341","398998.583368","399765.455646","400531.929398","386682.045354","387449.058614","388215.653563","399774.999513","Mapping"
"Blocked","m160","ball","2","m160depth.wav","space","0.919172074646","170","396715.852825","388981.985096","389748.793065","390515.57259","391282.145897","392048.980455","392815.502439","393582.055649","397482.347292","398232.309341","398998.583368","399765.455646","400531.929398","401298.535477","387449.058614","388215.653563","400540.992192","Mapping"
"Blocked","m160","ball","2","m160jolt.wav","None","731.42989818","170","396715.852825","388981.985096","389748.793065","390515.57259","391282.145897","392048.980455","392815.502439","393582.055649","397482.347292","398232.309341","398998.583368","399765.455646","400531.929398","401298.535477","402065.404354","388215.653563","401307.529944","Mapping"
"Blocked","m160","ball","2","m160tile.wav","None","730.814334471","170","396715.852825","388981.985096","389748.793065","390515.57259","391282.145897","392048.980455","392815.502439","393582.055649","397482.347292","398232.309341","398998.583368","399765.455646","400531.929398","401298.535477","402065.404354","402831.897893","402074.464674","Mapping"
"Blocked","m160","ball","2","m160ball.wav","None","729.96287141","170","396715.852825","403598.672163","389748.793065","390515.57259","391282.145897","392048.980455","392815.502439","393582.055649","397482.347292","398232.309341","398998.583368","399765.455646","400531.929398","401298.535477","402065.404354","402831.897893","402841.499886","Mapping"
"Blocked","m160","ball","2","m160priest.wav","space","374.079784378","170","396715.852825","403598.672163","404365.34255","390515.57259","391282.145897","392048.980455","392815.502439","393582.055649","397482.347292","398232.309341","398998.583368","399765.455646","400531.929398","401298.535477","402065.404354","402831.897893","403607.750107","Mapping"
"Blocked","m160","ball","2","m160cad.wav","None","728.275094647","170","396715.852825","403598.672163","404365.34255","405132.079409","391282.145897","392048.980455","392815.502439","393582.055649","397482.347292","398232.309341","398998.583368","399765.455646","400531.929398","401298.535477","402065.404354","402831.897893","404374.512009","Mapping"
"Blocked","m160","ball","2","m160done.wav","None","727.65860334","170","396715.852825","403598.672163","404365.34255","405132.079409","405898.671885","392048.980455","392815.502439","393582.055649","397482.347292","398232.309341","398998.583368","399765.455646","400531.929398","401298.535477","402065.404354","402831.897893","405141.447357","Mapping"
