"Condition","Talker","Target","Trial","current_stimulus","response_response","response_time_response","subject_nr","time_Audio1","time_Audio10","time_Audio11","time_Audio12","time_Audio13","time_Audio14","time_Audio15","time_Audio16","time_Audio2","time_Audio3","time_Audio4","time_Audio5","time_Audio6","time_Audio7","time_Audio8","time_Audio9","time_response","title"
"Blocked","m160","cave","8","m160depth.wav","NA","NA","150","102711.437867","NA","NA","NA","NA","NA","NA","NA","NA","NA","NA","NA","NA","NA","NA","NA","NA","Mapping"
"Blocked","m160","cave","8","m160cave.wav","None","719.945412246","150","102711.437867","NA","NA","NA","NA","NA","NA","NA","103478.962708","NA","NA","NA","NA","NA","NA","NA","102725.845073","Mapping"
"Blocked","m160","cave","8","m160ball.wav","space","601.0203365","150","102711.437867","NA","NA","NA","NA","NA","NA","NA","103478.962708","104244.629722","NA","NA","NA","NA","NA","NA","103489.591497","Mapping"
"Blocked","m160","cave","8","m160cave.wav","None","724.067012896","150","102711.437867","NA","NA","NA","NA","NA","NA","NA","103478.962708","104244.629722","105011.421512","NA","NA","NA","NA","NA","104254.757958","Mapping"
"Blocked","m160","cave","8","m160priest.wav","space","461.111920187","150","102711.437867","NA","NA","NA","NA","NA","NA","NA","103478.962708","104244.629722","105011.421512","105778.192586","NA","NA","NA","NA","105021.457305","Mapping"
"Blocked","m160","cave","8","m160cave.wav","None","721.075443784","150","102711.437867","NA","NA","NA","NA","NA","NA","NA","103478.962708","104244.629722","105011.421512","105778.192586","106527.999275","NA","NA","NA","105787.504603","Mapping"
"Blocked","m160","cave","8","m160depth.wav","space","448.822865728","150","102711.437867","NA","NA","NA","NA","NA","NA","NA","103478.962708","104244.629722","105011.421512","105778.192586","106527.999275","107294.94256","NA","NA","106537.721875","Mapping"
"Blocked","m160","cave","8","m160cling.wav","None","729.749633814","150","102711.437867","NA","NA","NA","NA","NA","NA","NA","103478.962708","104244.629722","105011.421512","105778.192586","106527.999275","107294.94256","108061.001916","NA","107304.851283","Mapping"
"Blocked","m160","cave","8","m160bluff.wav","None","730.798661825","150","102711.437867","NA","NA","NA","NA","NA","NA","NA","103478.962708","104244.629722","105011.421512","105778.192586","106527.999275","107294.94256","108061.001916","108827.748566","108070.450278","Mapping"
"Blocked","m160","cave","8","m160gnash.wav","None","730.738991173","150","102711.437867","109594.72586","NA","NA","NA","NA","NA","NA","103478.962708","104244.629722","105011.421512","105778.192586","106527.999275","107294.94256","108061.001916","108827.748566","108837.022554","Mapping"
"Blocked","m160","cave","8","m160done.wav","None","730.275539099","150","102711.437867","109594.72586","110361.086661","NA","NA","NA","NA","NA","103478.962708","104244.629722","105011.421512","105778.192586","106527.999275","107294.94256","108061.001916","108827.748566","109604.151034","Mapping"
"Blocked","m160","cave","8","m160reek.wav","None","731.378672528","150","102711.437867","109594.72586","110361.086661","111128.011086","NA","NA","NA","NA","103478.962708","104244.629722","105011.421512","105778.192586","106527.999275","107294.94256","108061.001916","108827.748566","110370.47257","Mapping"
"Blocked","m160","cave","8","m160cave.wav","None","731.030233204","150","102711.437867","109594.72586","110361.086661","111128.011086","111894.624173","NA","NA","NA","103478.962708","104244.629722","105011.421512","105778.192586","106527.999275","107294.94256","108061.001916","108827.748566","111137.414618","Mapping"
"Blocked","m160","cave","8","m160cad.wav","space","474.526986713","150","102711.437867","109594.72586","110361.086661","111128.011086","111894.624173","112661.398957","NA","NA","103478.962708","104244.629722","105011.421512","105778.192586","106527.999275","107294.94256","108061.001916","108827.748566","111903.991222","Mapping"
"Blocked","m160","cave","8","m160depth.wav","None","727.446595673","150","102711.437867","109594.72586","110361.086661","111128.011086","111894.624173","112661.398957","113428.473641","NA","103478.962708","104244.629722","105011.421512","105778.192586","106527.999275","107294.94256","108061.001916","108827.748566","112670.893696","Mapping"
"Blocked","m160","cave","8","m160gnash.wav","None","722.28369629","150","102711.437867","109594.72586","110361.086661","111128.011086","111894.624173","112661.398957","113428.473641","114195.353545","103478.962708","104244.629722","105011.421512","105778.192586","106527.999275","107294.94256","108061.001916","108827.748566","113439.274022","Mapping"
"Blocked","m160","tile","17","m160priest.wav","None","719.383951975","150","117345.272093","109594.72586","110361.086661","111128.011086","111894.624173","112661.398957","113428.473641","114195.353545","103478.962708","104244.629722","105011.421512","105778.192586","106527.999275","107294.94256","108061.001916","108827.748566","114205.234442","Mapping"
"Blocked","m160","tile","17","m160tile.wav","None","719.10631354","150","117345.272093","109594.72586","110361.086661","111128.011086","111894.624173","112661.398957","113428.473641","114195.353545","118111.791191","104244.629722","105011.421512","105778.192586","106527.999275","107294.94256","108061.001916","108827.748566","117355.424136","Mapping"
"Blocked","m160","tile","17","m160depth.wav","space","544.585232041","150","117345.272093","109594.72586","110361.086661","111128.011086","111894.624173","112661.398957","113428.473641","114195.353545","118111.791191","118861.413612","105011.421512","105778.192586","106527.999275","107294.94256","108061.001916","108827.748566","118121.770096","Mapping"
"Blocked","m160","tile","17","m160cling.wav","None","733.551548445","150","117345.272093","109594.72586","110361.086661","111128.011086","111894.624173","112661.398957","113428.473641","114195.353545","118111.791191","118861.413612","119628.410384","105778.192586","106527.999275","107294.94256","108061.001916","108827.748566","118870.936795","Mapping"
"Blocked","m160","tile","17","m160lash.wav","None","730.244003353","150","117345.272093","109594.72586","110361.086661","111128.011086","111894.624173","112661.398957","113428.473641","114195.353545","118111.791191","118861.413612","119628.410384","120394.767784","106527.999275","107294.94256","108061.001916","108827.748566","119638.324981","Mapping"
"Blocked","m160","tile","17","m160tile.wav","None","730.675301282","150","117345.272093","109594.72586","110361.086661","111128.011086","111894.624173","112661.398957","113428.473641","114195.353545","118111.791191","118861.413612","119628.410384","120394.767784","121160.981418","107294.94256","108061.001916","108827.748566","120404.768022","Mapping"
"Blocked","m160","tile","17","m160depth.wav","space","392.146914615","150","117345.272093","109594.72586","110361.086661","111128.011086","111894.624173","112661.398957","113428.473641","114195.353545","118111.791191","118861.413612","119628.410384","120394.767784","121160.981418","121927.978499","108061.001916","108827.748566","121170.198208","Mapping"
"Blocked","m160","tile","17","m160priest.wav","None","725.844455184","150","117345.272093","109594.72586","110361.086661","111128.011086","111894.624173","112661.398957","113428.473641","114195.353545","118111.791191","118861.413612","119628.410384","120394.767784","121160.981418","121927.978499","122694.664551","108827.748566","121937.669872","Mapping"
"Blocked","m160","tile","17","m160jolt.wav","None","722.808364895","150","117345.272093","109594.72586","110361.086661","111128.011086","111894.624173","112661.398957","113428.473641","114195.353545","118111.791191","118861.413612","119628.410384","120394.767784","121160.981418","121927.978499","122694.664551","123461.585884","122704.064682","Mapping"
"Blocked","m160","tile","17","m160park.wav","None","721.715434222","150","117345.272093","124228.143629","110361.086661","111128.011086","111894.624173","112661.398957","113428.473641","114195.353545","118111.791191","118861.413612","119628.410384","120394.767784","121160.981418","121927.978499","122694.664551","123461.585884","123472.010928","Mapping"
"Blocked","m160","tile","17","m160tile.wav","None","723.499987507","150","117345.272093","124228.143629","124995.069291","111128.011086","111894.624173","112661.398957","113428.473641","114195.353545","118111.791191","118861.413612","119628.410384","120394.767784","121160.981418","121927.978499","122694.664551","123461.585884","124237.550562","Mapping"
"Blocked","m160","tile","17","m160jolt.wav","space","573.219087324","150","117345.272093","124228.143629","124995.069291","125744.680581","111894.624173","112661.398957","113428.473641","114195.353545","118111.791191","118861.413612","119628.410384","120394.767784","121160.981418","121927.978499","122694.664551","123461.585884","125005.092098","Mapping"
"Blocked","m160","tile","17","m160depth.wav","None","733.497133711","150","117345.272093","124228.143629","124995.069291","125744.680581","126511.237398","112661.398957","113428.473641","114195.353545","118111.791191","118861.413612","119628.410384","120394.767784","121160.981418","121927.978499","122694.664551","123461.585884","125754.242101","Mapping"
"Blocked","m160","tile","17","m160jolt.wav","None","730.718585663","150","117345.272093","124228.143629","124995.069291","125744.680581","126511.237398","127277.908301","113428.473641","114195.353545","118111.791191","118861.413612","119628.410384","120394.767784","121160.981418","121927.978499","122694.664551","123461.585884","126520.575385","Mapping"
"Blocked","m160","tile","17","m160tile.wav","None","727.178541594","150","117345.272093","124228.143629","124995.069291","125744.680581","126511.237398","127277.908301","128044.674429","114195.353545","118111.791191","118861.413612","119628.410384","120394.767784","121160.981418","121927.978499","122694.664551","123461.585884","127287.566592","Mapping"
"Blocked","m160","tile","17","m160jaw.wav","space","539.485404384","150","117345.272093","124228.143629","124995.069291","125744.680581","126511.237398","127277.908301","128044.674429","128811.556188","118111.791191","118861.413612","119628.410384","120394.767784","121160.981418","121927.978499","122694.664551","123461.585884","128054.764327","Mapping"
"Blocked","m160","done","24","m160park.wav","None","723.463195725","150","131928.135868","124228.143629","124995.069291","125744.680581","126511.237398","127277.908301","128044.674429","128811.556188","118111.791191","118861.413612","119628.410384","120394.767784","121160.981418","121927.978499","122694.664551","123461.585884","128821.337222","Mapping"
"Blocked","m160","done","24","m160done.wav","None","719.826071057","150","131928.135868","124228.143629","124995.069291","125744.680581","126511.237398","127277.908301","128044.674429","128811.556188","132677.783951","118861.413612","119628.410384","120394.767784","121160.981418","121927.978499","122694.664551","123461.585884","131938.282037","Mapping"
"Blocked","m160","done","24","m160park.wav","space","426.668682368","150","131928.135868","124228.143629","124995.069291","125744.680581","126511.237398","127277.908301","128044.674429","128811.556188","132677.783951","133444.543586","119628.410384","120394.767784","121160.981418","121927.978499","122694.664551","123461.585884","132687.510879","Mapping"
"Blocked","m160","done","24","m160done.wav","None","730.061899754","150","131928.135868","124228.143629","124995.069291","125744.680581","126511.237398","127277.908301","128044.674429","128811.556188","132677.783951","133444.543586","134211.228402","120394.767784","121160.981418","121927.978499","122694.664551","123461.585884","133454.43314","Mapping"
"Blocked","m160","done","24","m160depth.wav","space","373.128993902","150","131928.135868","124228.143629","124995.069291","125744.680581","126511.237398","127277.908301","128044.674429","128811.556188","132677.783951","133444.543586","134211.228402","134978.380379","121160.981418","121927.978499","122694.664551","123461.585884","134221.010672","Mapping"
"Blocked","m160","done","24","m160tile.wav","None","722.238556948","150","131928.135868","124228.143629","124995.069291","125744.680581","126511.237398","127277.908301","128044.674429","128811.556188","132677.783951","133444.543586","134211.228402","134978.380379","135744.420875","121927.978499","122694.664551","123461.585884","134988.557155","Mapping"
"Blocked","m160","done","24","m160done.wav","None","720.050840522","150","131928.135868","124228.143629","124995.069291","125744.680581","126511.237398","127277.908301","128044.674429","128811.556188","132677.783951","133444.543586","134211.228402","134978.380379","135744.420875","136494.473667","122694.664551","123461.585884","135754.083495","Mapping"
"Blocked","m160","done","24","m160knife.wav","space","729.865883361","150","131928.135868","124228.143629","124995.069291","125744.680581","126511.237398","127277.908301","128044.674429","128811.556188","132677.783951","133444.543586","134211.228402","134978.380379","135744.420875","136494.473667","137260.842815","123461.585884","136504.253463","Mapping"
"Blocked","m160","done","24","m160jolt.wav","None","734.07992709","150","131928.135868","124228.143629","124995.069291","125744.680581","126511.237398","127277.908301","128044.674429","128811.556188","132677.783951","133444.543586","134211.228402","134978.380379","135744.420875","136494.473667","137260.842815","138027.727357","137269.956651","Mapping"
"Blocked","m160","done","24","m160done.wav","None","729.486217489","150","131928.135868","138794.226667","124995.069291","125744.680581","126511.237398","127277.908301","128044.674429","128811.556188","132677.783951","133444.543586","134211.228402","134978.380379","135744.420875","136494.473667","137260.842815","138027.727357","138037.81911","Mapping"
"Blocked","m160","done","24","m160lash.wav","space","502.428408363","150","131928.135868","138794.226667","139561.060814","125744.680581","126511.237398","127277.908301","128044.674429","128811.556188","132677.783951","133444.543586","134211.228402","134978.380379","135744.420875","136494.473667","137260.842815","138027.727357","138803.640711","Mapping"
"Blocked","m160","done","24","m160dime.wav","None","723.167934455","150","131928.135868","138794.226667","139561.060814","140327.805918","126511.237398","127277.908301","128044.674429","128811.556188","132677.783951","133444.543586","134211.228402","134978.380379","135744.420875","136494.473667","137260.842815","138027.727357","139570.45909","Mapping"
"Blocked","m160","done","24","m160tile.wav","None","723.00530877","150","131928.135868","138794.226667","139561.060814","140327.805918","141094.793414","127277.908301","128044.674429","128811.556188","132677.783951","133444.543586","134211.228402","134978.380379","135744.420875","136494.473667","137260.842815","138027.727357","140337.64724","Mapping"
"Blocked","m160","done","24","m160ball.wav","None","719.095492503","150","131928.135868","138794.226667","139561.060814","140327.805918","141094.793414","141844.434077","128044.674429","128811.556188","132677.783951","133444.543586","134211.228402","134978.380379","135744.420875","136494.473667","137260.842815","138027.727357","141104.943293","Mapping"
"Blocked","m160","done","24","m160priest.wav","None","733.053778065","150","131928.135868","138794.226667","139561.060814","140327.805918","141094.793414","141844.434077","142610.87619","128811.556188","132677.783951","133444.543586","134211.228402","134978.380379","135744.420875","136494.473667","137260.842815","138027.727357","141854.361041","Mapping"
"Blocked","m160","done","24","m160bluff.wav","None","730.798043427","150","131928.135868","138794.226667","139561.060814","140327.805918","141094.793414","141844.434077","142610.87619","143377.7091","132677.783951","133444.543586","134211.228402","134978.380379","135744.420875","136494.473667","137260.842815","138027.727357","142620.494907","Mapping"
"Blocked","m160","tile","18","m160ball.wav","None","727.482150658","150","146511.390131","138794.226667","139561.060814","140327.805918","141094.793414","141844.434077","142610.87619","143377.7091","132677.783951","133444.543586","134211.228402","134978.380379","135744.420875","136494.473667","137260.842815","138027.727357","143387.272475","Mapping"
"Blocked","m160","tile","18","m160romp.wav","None","719.886978273","150","146511.390131","138794.226667","139561.060814","140327.805918","141094.793414","141844.434077","142610.87619","143377.7091","147278.183775","133444.543586","134211.228402","134978.380379","135744.420875","136494.473667","137260.842815","138027.727357","146521.137464","Mapping"
"Blocked","m160","tile","18","m160cave.wav","None","725.401408505","150","146511.390131","138794.226667","139561.060814","140327.805918","141094.793414","141844.434077","142610.87619","143377.7091","147278.183775","148027.244117","134211.228402","134978.380379","135744.420875","136494.473667","137260.842815","138027.727357","147282.696172","Mapping"
"Blocked","m160","tile","18","m160tile.wav","None","735.034347628","150","146511.390131","138794.226667","139561.060814","140327.805918","141094.793414","141844.434077","142610.87619","143377.7091","147278.183775","148027.244117","148794.065278","134978.380379","135744.420875","136494.473667","137260.842815","138027.727357","148036.727416","Mapping"
"Blocked","m160","tile","18","m160cling.wav","space","422.414136934","150","146511.390131","138794.226667","139561.060814","140327.805918","141094.793414","141844.434077","142610.87619","143377.7091","147278.183775","148027.244117","148794.065278","149560.665998","135744.420875","136494.473667","137260.842815","138027.727357","148803.53992","Mapping"
"Blocked","m160","tile","18","m160tile.wav","None","728.654848179","150","146511.390131","138794.226667","139561.060814","140327.805918","141094.793414","141844.434077","142610.87619","143377.7091","147278.183775","148027.244117","148794.065278","149560.665998","150327.547139","136494.473667","137260.842815","138027.727357","149569.956063","Mapping"
"Blocked","m160","tile","18","m160dime.wav","space","609.23973145","150","146511.390131","138794.226667","139561.060814","140327.805918","141094.793414","141844.434077","142610.87619","143377.7091","147278.183775","148027.244117","148794.065278","149560.665998","150327.547139","151094.242466","137260.842815","138027.727357","150336.68138","Mapping"
"Blocked","m160","tile","18","m160lash.wav","None","721.534567419","150","146511.390131","138794.226667","139561.060814","140327.805918","141094.793414","141844.434077","142610.87619","143377.7091","147278.183775","148027.244117","148794.065278","149560.665998","150327.547139","151094.242466","151844.128304","138027.727357","151103.803368","Mapping"
"Blocked","m160","tile","18","m160tile.wav","None","734.600885538","150","146511.390131","138794.226667","139561.060814","140327.805918","141094.793414","141844.434077","142610.87619","143377.7091","147278.183775","148027.244117","148794.065278","149560.665998","150327.547139","151094.242466","151844.128304","152610.800752","151854.327341","Mapping"
"Blocked","m160","tile","18","m160park.wav","space","478.109387681","150","146511.390131","153377.528233","139561.060814","140327.805918","141094.793414","141844.434077","142610.87619","143377.7091","147278.183775","148027.244117","148794.065278","149560.665998","150327.547139","151094.242466","151844.128304","152610.800752","152619.725064","Mapping"
"Blocked","m160","tile","18","m160greet.wav","None","729.101295583","150","146511.390131","153377.528233","154143.956434","140327.805918","141094.793414","141844.434077","142610.87619","143377.7091","147278.183775","148027.244117","148794.065278","149560.665998","150327.547139","151094.242466","151844.128304","152610.800752","153386.830356","Mapping"
"Blocked","m160","tile","18","m160ball.wav","None","729.802811751","150","146511.390131","153377.528233","154143.956434","154910.588071","141094.793414","141844.434077","142610.87619","143377.7091","147278.183775","148027.244117","148794.065278","149560.665998","150327.547139","151094.242466","151844.128304","152610.800752","154153.33956","Mapping"
"Blocked","m160","tile","18","m160jolt.wav","None","726.977578364","150","146511.390131","153377.528233","154143.956434","154910.588071","155677.918751","141844.434077","142610.87619","143377.7091","147278.183775","148027.244117","148794.065278","149560.665998","150327.547139","151094.242466","151844.128304","152610.800752","154919.780746","Mapping"
"Blocked","m160","tile","18","m160knife.wav","None","722.421588027","150","146511.390131","153377.528233","154143.956434","154910.588071","155677.918751","156444.263784","142610.87619","143377.7091","147278.183775","148027.244117","148794.065278","149560.665998","150327.547139","151094.242466","151844.128304","152610.800752","155688.036166","Mapping"
"Blocked","m160","tile","18","m160tile.wav","None","720.346411108","150","146511.390131","153377.528233","154143.956434","154910.588071","155677.918751","156444.263784","157194.157041","143377.7091","147278.183775","148027.244117","148794.065278","149560.665998","150327.547139","151094.242466","151844.128304","152610.800752","156453.753575","Mapping"
"Blocked","m160","tile","18","m160knife.wav","space","486.030120403","150","146511.390131","153377.528233","154143.956434","154910.588071","155677.918751","156444.263784","157194.157041","157960.638729","147278.183775","148027.244117","148794.065278","149560.665998","150327.547139","151094.242466","151844.128304","152610.800752","157203.773285","Mapping"
"Blocked","m160","ball","2","m160gnash.wav","None","730.755686527","150","161094.541438","153377.528233","154143.956434","154910.588071","155677.918751","156444.263784","157194.157041","157960.638729","147278.183775","148027.244117","148794.065278","149560.665998","150327.547139","151094.242466","151844.128304","152610.800752","157970.080599","Mapping"
"Blocked","m160","ball","2","m160jaw.wav","None","719.017580617","150","161094.541438","153377.528233","154143.956434","154910.588071","155677.918751","156444.263784","157194.157041","157960.638729","161844.109135","148027.244117","148794.065278","149560.665998","150327.547139","151094.242466","151844.128304","152610.800752","161104.667819","Mapping"
"Blocked","m160","ball","2","m160depth.wav","None","733.123651356","150","161094.541438","153377.528233","154143.956434","154910.588071","155677.918751","156444.263784","157194.157041","157960.638729","161844.109135","162610.729642","148794.065278","149560.665998","150327.547139","151094.242466","151844.128304","152610.800752","161854.075364","Mapping"
"Blocked","m160","ball","2","m160romp.wav","None","731.283756089","150","161094.541438","153377.528233","154143.956434","154910.588071","155677.918751","156444.263784","157194.157041","157960.638729","161844.109135","162610.729642","163377.388795","149560.665998","150327.547139","151094.242466","151844.128304","152610.800752","162620.184806","Mapping"
"Blocked","m160","ball","2","m160ball.wav","None","727.854087134","150","161094.541438","153377.528233","154143.956434","154910.588071","155677.918751","156444.263784","157194.157041","157960.638729","161844.109135","162610.729642","163377.388795","164144.059698","150327.547139","151094.242466","151844.128304","152610.800752","163387.112323","Mapping"
"Blocked","m160","ball","2","m160cling.wav","space","407.69992047","150","161094.541438","153377.528233","154143.956434","154910.588071","155677.918751","156444.263784","157194.157041","157960.638729","161844.109135","162610.729642","163377.388795","164144.059698","164910.71205","151094.242466","151844.128304","152610.800752","164154.007995","Mapping"
"Blocked","m160","ball","2","m160park.wav","None","721.721617738","150","161094.541438","153377.528233","154143.956434","154910.588071","155677.918751","156444.263784","157194.157041","157960.638729","161844.109135","162610.729642","163377.388795","164144.059698","164910.71205","165660.457522","151844.128304","152610.800752","164919.894213","Mapping"
"Blocked","m160","ball","2","m160depth.wav","None","735.115660587","150","161094.541438","153377.528233","154143.956434","154910.588071","155677.918751","156444.263784","157194.157041","157960.638729","161844.109135","162610.729642","163377.388795","164144.059698","164910.71205","165660.457522","166427.134299","152610.800752","165670.129108","Mapping"
"Blocked","m160","ball","2","m160cad.wav","None","732.315470115","150","161094.541438","153377.528233","154143.956434","154910.588071","155677.918751","156444.263784","157194.157041","157960.638729","161844.109135","162610.729642","163377.388795","164144.059698","164910.71205","165660.457522","166427.134299","167193.798399","166436.598738","Mapping"
"Blocked","m160","ball","2","m160ball.wav","None","729.098203941","150","161094.541438","167960.420452","154143.956434","154910.588071","155677.918751","156444.263784","157194.157041","157960.638729","161844.109135","162610.729642","163377.388795","164144.059698","164910.71205","165660.457522","166427.134299","167193.798399","167203.405677","Mapping"
"Blocked","m160","ball","2","m160jaw.wav","space","384.099729708","150","161094.541438","167960.420452","168727.813585","154910.588071","155677.918751","156444.263784","157194.157041","157960.638729","161844.109135","162610.729642","163377.388795","164144.059698","164910.71205","165660.457522","166427.134299","167193.798399","167969.542636","Mapping"
"Blocked","m160","ball","2","m160ball.wav","None","721.02350241","150","161094.541438","167960.420452","168727.813585","169477.73405","155677.918751","156444.263784","157194.157041","157960.638729","161844.109135","162610.729642","163377.388795","164144.059698","164910.71205","165660.457522","166427.134299","167193.798399","168737.988507","Mapping"
"Blocked","m160","ball","2","m160romp.wav","space","466.372827534","150","161094.541438","167960.420452","168727.813585","169477.73405","170243.717658","156444.263784","157194.157041","157960.638729","161844.109135","162610.729642","163377.388795","164144.059698","164910.71205","165660.457522","166427.134299","167193.798399","169487.240537","Mapping"
"Blocked","m160","ball","2","m160ball.wav","None","732.725435053","150","161094.541438","167960.420452","168727.813585","169477.73405","170243.717658","171010.343731","157194.157041","157960.638729","161844.109135","162610.729642","163377.388795","164144.059698","164910.71205","165660.457522","166427.134299","167193.798399","170253.034003","Mapping"
"Blocked","m160","ball","2","m160cling.wav","space","422.172053601","150","161094.541438","167960.420452","168727.813585","169477.73405","170243.717658","171010.343731","171777.056681","157960.638729","161844.109135","162610.729642","163377.388795","164144.059698","164910.71205","165660.457522","166427.134299","167193.798399","171019.446127","Mapping"
"Blocked","m160","ball","2","m160jaw.wav","None","726.270187879","150","161094.541438","167960.420452","168727.813585","169477.73405","170243.717658","171010.343731","171777.056681","172544.073858","161844.109135","162610.729642","163377.388795","164144.059698","164910.71205","165660.457522","166427.134299","167193.798399","171786.343036","Mapping"
"Blocked","m160","ball","5","m160depth.wav","None","722.730762209","150","175660.815855","167960.420452","168727.813585","169477.73405","170243.717658","171010.343731","171777.056681","172544.073858","161844.109135","162610.729642","163377.388795","164144.059698","164910.71205","165660.457522","166427.134299","167193.798399","172553.543244","Mapping"
"Blocked","m160","ball","5","m160ball.wav","None","719.593571965","150","175660.815855","167960.420452","168727.813585","169477.73405","170243.717658","171010.343731","171777.056681","172544.073858","176410.471976","162610.729642","163377.388795","164144.059698","164910.71205","165660.457522","166427.134299","167193.798399","175670.836808","Mapping"
"Blocked","m160","ball","5","m160tile.wav","space","533.493918367","150","175660.815855","167960.420452","168727.813585","169477.73405","170243.717658","171010.343731","171777.056681","172544.073858","176410.471976","177177.155864","163377.388795","164144.059698","164910.71205","165660.457522","166427.134299","167193.798399","176420.027622","Mapping"
"Blocked","m160","ball","5","m160knife.wav","None","730.355615146","150","175660.815855","167960.420452","168727.813585","169477.73405","170243.717658","171010.343731","171777.056681","172544.073858","176410.471976","177177.155864","177943.925393","164144.059698","164910.71205","165660.457522","166427.134299","167193.798399","177186.821884","Mapping"
"Blocked","m160","ball","5","m160ball.wav","None","726.980979322","150","175660.815855","167960.420452","168727.813585","169477.73405","170243.717658","171010.343731","171777.056681","172544.073858","176410.471976","177177.155864","177943.925393","178710.446655","164910.71205","165660.457522","166427.134299","167193.798399","177953.838134","Mapping"
"Blocked","m160","ball","5","m160gnash.wav","space","417.344608344","150","175660.815855","167960.420452","168727.813585","169477.73405","170243.717658","171010.343731","171777.056681","172544.073858","176410.471976","177177.155864","177943.925393","178710.446655","179477.295641","165660.457522","166427.134299","167193.798399","178720.131226","Mapping"
"Blocked","m160","ball","5","m160gnash.wav","None","719.389517093","150","175660.815855","167960.420452","168727.813585","169477.73405","170243.717658","171010.343731","171777.056681","172544.073858","176410.471976","177177.155864","177943.925393","178710.446655","179477.295641","180226.94527","166427.134299","167193.798399","179488.634603","Mapping"
"Blocked","m160","ball","5","m160reek.wav","None","735.295290709","150","175660.815855","167960.420452","168727.813585","169477.73405","170243.717658","171010.343731","171777.056681","172544.073858","176410.471976","177177.155864","177943.925393","178710.446655","179477.295641","180226.94527","180993.814971","167193.798399","180236.508335","Mapping"
"Blocked","m160","ball","5","m160lash.wav","None","731.978779542","150","175660.815855","167960.420452","168727.813585","169477.73405","170243.717658","171010.343731","171777.056681","172544.073858","176410.471976","177177.155864","177943.925393","178710.446655","179477.295641","180226.94527","180993.814971","181760.504733","181003.475736","Mapping"
"Blocked","m160","ball","5","m160ball.wav","None","729.207033175","150","175660.815855","182527.050729","168727.813585","169477.73405","170243.717658","171010.343731","171777.056681","172544.073858","176410.471976","177177.155864","177943.925393","178710.446655","179477.295641","180226.94527","180993.814971","181760.504733","181770.026679","Mapping"
"Blocked","m160","ball","5","m160jolt.wav","space","664.429173339","150","175660.815855","182527.050729","183293.836335","169477.73405","170243.717658","171010.343731","171777.056681","172544.073858","176410.471976","177177.155864","177943.925393","178710.446655","179477.295641","180226.94527","180993.814971","181760.504733","182536.999335","Mapping"
"Blocked","m160","ball","5","m160cave.wav","None","723.062506062","150","175660.815855","182527.050729","183293.836335","184060.381403","170243.717658","171010.343731","171777.056681","172544.073858","176410.471976","177177.155864","177943.925393","178710.446655","179477.295641","180226.94527","180993.814971","181760.504733","183303.352406","Mapping"
"Blocked","m160","ball","5","m160ball.wav","None","720.715255826","150","175660.815855","182527.050729","183293.836335","184060.381403","184826.858454","171010.343731","171777.056681","172544.073858","176410.471976","177177.155864","177943.925393","178710.446655","179477.295641","180226.94527","180993.814971","181760.504733","184069.392593","Mapping"
"Blocked","m160","ball","5","m160dime.wav","space","541.429182282","150","175660.815855","182527.050729","183293.836335","184060.381403","184826.858454","185576.982355","171777.056681","172544.073858","176410.471976","177177.155864","177943.925393","178710.446655","179477.295641","180226.94527","180993.814971","181760.504733","184835.962705","Mapping"
"Blocked","m160","ball","5","m160greet.wav","None","732.162738102","150","175660.815855","182527.050729","183293.836335","184060.381403","184826.858454","185576.982355","186343.549993","172544.073858","176410.471976","177177.155864","177943.925393","178710.446655","179477.295641","180226.94527","180993.814971","181760.504733","185588.113243","Mapping"
"Blocked","m160","ball","5","m160cad.wav","None","730.721677421","150","175660.815855","182527.050729","183293.836335","184060.381403","184826.858454","185576.982355","186343.549993","187110.323232","176410.471976","177177.155864","177943.925393","178710.446655","179477.295641","180226.94527","180993.814971","181760.504733","186353.213541","Mapping"
"Blocked","m160","cave","7","m160park.wav","None","727.899535792","150","190244.060223","182527.050729","183293.836335","184060.381403","184826.858454","185576.982355","186343.549993","187110.323232","176410.471976","177177.155864","177943.925393","178710.446655","179477.295641","180226.94527","180993.814971","181760.504733","187119.827246","Mapping"
"Blocked","m160","cave","7","m160tile.wav","None","719.434347353","150","190244.060223","182527.050729","183293.836335","184060.381403","184826.858454","185576.982355","186343.549993","187110.323232","190993.613699","177177.155864","177943.925393","178710.446655","179477.295641","180226.94527","180993.814971","181760.504733","190254.096944","Mapping"
"Blocked","m160","cave","7","m160cave.wav","None","734.102496761","150","190244.060223","182527.050729","183293.836335","184060.381403","184826.858454","185576.982355","186343.549993","187110.323232","190993.613699","191760.494839","177943.925393","178710.446655","179477.295641","180226.94527","180993.814971","181760.504733","191003.11091","Mapping"
"Blocked","m160","cave","7","m160done.wav","space","527.42575726","150","190244.060223","182527.050729","183293.836335","184060.381403","184826.858454","185576.982355","186343.549993","187110.323232","190993.613699","191760.494839","192527.033415","178710.446655","179477.295641","180226.94527","180993.814971","181760.504733","191769.885695","Mapping"
"Blocked","m160","cave","7","m160done.wav","None","726.299559348","150","190244.060223","182527.050729","183293.836335","184060.381403","184826.858454","185576.982355","186343.549993","187110.323232","190993.613699","191760.494839","192527.033415","193293.439355","179477.295641","180226.94527","180993.814971","181760.504733","192537.638398","Mapping"
"Blocked","m160","cave","7","m160ball.wav","None","725.268154521","150","190244.060223","182527.050729","183293.836335","184060.381403","184826.858454","185576.982355","186343.549993","187110.323232","190993.613699","191760.494839","192527.033415","193293.439355","194060.543102","180226.94527","180993.814971","181760.504733","193302.574524","Mapping"
"Blocked","m160","cave","7","m160park.wav","None","721.724400297","150","190244.060223","182527.050729","183293.836335","184060.381403","184826.858454","185576.982355","186343.549993","187110.323232","190993.613699","191760.494839","192527.033415","193293.439355","194060.543102","194810.589091","180993.814971","181760.504733","194070.357526","Mapping"
"Blocked","m160","cave","7","m160cave.wav","None","735.96805369","150","190244.060223","182527.050729","183293.836335","184060.381403","184826.858454","185576.982355","186343.549993","187110.323232","190993.613699","191760.494839","192527.033415","193293.439355","194060.543102","194810.589091","195577.014509","181760.504733","194819.811138","Mapping"
"Blocked","m160","cave","7","m160ball.wav","space","382.448739605","150","190244.060223","182527.050729","183293.836335","184060.381403","184826.858454","185576.982355","186343.549993","187110.323232","190993.613699","191760.494839","192527.033415","193293.439355","194060.543102","194810.589091","195577.014509","196343.609973","195586.791524","Mapping"
"Blocked","m160","cave","7","m160cave.wav","None","729.243824957","150","190244.060223","197110.435153","183293.836335","184060.381403","184826.858454","185576.982355","186343.549993","187110.323232","190993.613699","191760.494839","192527.033415","193293.439355","194060.543102","194810.589091","195577.014509","196343.609973","196353.234874","Mapping"
"Blocked","m160","cave","7","m160reek.wav","space","465.160246473","150","190244.060223","197110.435153","197876.93972","184060.381403","184826.858454","185576.982355","186343.549993","187110.323232","190993.613699","191760.494839","192527.033415","193293.439355","194060.543102","194810.589091","195577.014509","196343.609973","197120.052634","Mapping"
"Blocked","m160","cave","7","m160cave.wav","None","723.058486707","150","190244.060223","197110.435153","197876.93972","198643.715432","184826.858454","185576.982355","186343.549993","187110.323232","190993.613699","191760.494839","192527.033415","193293.439355","194060.543102","194810.589091","195577.014509","196343.609973","197886.247408","Mapping"
"Blocked","m160","cave","7","m160reek.wav","space","594.680720475","150","190244.060223","197110.435153","197876.93972","198643.715432","199393.546237","185576.982355","186343.549993","187110.323232","190993.613699","191760.494839","192527.033415","193293.439355","194060.543102","194810.589091","195577.014509","196343.609973","198654.500664","Mapping"
"Blocked","m160","cave","7","m160romp.wav","None","732.494791155","150","190244.060223","197110.435153","197876.93972","198643.715432","199393.546237","200160.122532","186343.549993","187110.323232","190993.613699","191760.494839","192527.033415","193293.439355","194060.543102","194810.589091","195577.014509","196343.609973","199403.448467","Mapping"
"Blocked","m160","cave","7","m160park.wav","None","730.194535456","150","190244.060223","197110.435153","197876.93972","198643.715432","199393.546237","200160.122532","200926.95606","187110.323232","190993.613699","191760.494839","192527.033415","193293.439355","194060.543102","194810.589091","195577.014509","196343.609973","200169.473195","Mapping"
"Blocked","m160","cave","7","m160ball.wav","None","727.07218572","150","190244.060223","197110.435153","197876.93972","198643.715432","199393.546237","200160.122532","200926.95606","201693.886978","190993.613699","191760.494839","192527.033415","193293.439355","194060.543102","194810.589091","195577.014509","196343.609973","200936.457909","Mapping"
"Blocked","m160","cave","12","m160ball.wav","None","723.222039989","150","204810.412862","197110.435153","197876.93972","198643.715432","199393.546237","200160.122532","200926.95606","201693.886978","190993.613699","191760.494839","192527.033415","193293.439355","194060.543102","194810.589091","195577.014509","196343.609973","201703.954925","Mapping"
"Blocked","m160","cave","12","m160bluff.wav","None","724.787697778","150","204810.412862","197110.435153","197876.93972","198643.715432","199393.546237","200160.122532","200926.95606","201693.886978","205559.930782","191760.494839","192527.033415","193293.439355","194060.543102","194810.589091","195577.014509","196343.609973","204815.131169","Mapping"
"Blocked","m160","cave","12","m160done.wav","None","733.848355594","150","204810.412862","197110.435153","197876.93972","198643.715432","199393.546237","200160.122532","200926.95606","201693.886978","205559.930782","206326.614361","192527.033415","193293.439355","194060.543102","194810.589091","195577.014509","196343.609973","205569.849089","Mapping"
"Blocked","m160","cave","12","m160cave.wav","None","730.624287506","150","204810.412862","197110.435153","197876.93972","198643.715432","199393.546237","200160.122532","200926.95606","201693.886978","205559.930782","206326.614361","207093.470149","193293.439355","194060.543102","194810.589091","195577.014509","196343.609973","206336.915116","Mapping"
"Blocked","m160","cave","12","m160priest.wav","space","426.074140589","150","204810.412862","197110.435153","197876.93972","198643.715432","199393.546237","200160.122532","200926.95606","201693.886978","205559.930782","206326.614361","207093.470149","207860.271214","194060.543102","194810.589091","195577.014509","196343.609973","207102.991786","Mapping"
"Blocked","m160","cave","12","m160cave.wav","None","724.555198802","150","204810.412862","197110.435153","197876.93972","198643.715432","199393.546237","200160.122532","200926.95606","201693.886978","205559.930782","206326.614361","207093.470149","207860.271214","208627.170905","194810.589091","195577.014509","196343.609973","207869.754513","Mapping"
"Blocked","m160","cave","12","m160gnash.wav","space","475.739258574","150","204810.412862","197110.435153","197876.93972","198643.715432","199393.546237","200160.122532","200926.95606","201693.886978","205559.930782","206326.614361","207093.470149","207860.271214","208627.170905","209393.71721","195577.014509","196343.609973","208637.30347","Mapping"
"Blocked","m160","cave","12","m160romp.wav","None","717.820458231","150","204810.412862","197110.435153","197876.93972","198643.715432","199393.546237","200160.122532","200926.95606","201693.886978","205559.930782","206326.614361","207093.470149","207860.271214","208627.170905","209393.71721","210143.394355","196343.609973","209404.320647","Mapping"
"Blocked","m160","cave","12","m160dime.wav","None","732.858070871","150","204810.412862","197110.435153","197876.93972","198643.715432","199393.546237","200160.122532","200926.95606","201693.886978","205559.930782","206326.614361","207093.470149","207860.271214","208627.170905","209393.71721","210143.394355","210909.947771","210153.044299","Mapping"
"Blocked","m160","cave","12","m160reek.wav","None","730.048605241","150","204810.412862","211676.65763","197876.93972","198643.715432","199393.546237","200160.122532","200926.95606","201693.886978","205559.930782","206326.614361","207093.470149","207860.271214","208627.170905","209393.71721","210143.394355","210909.947771","210919.620285","Mapping"
"Blocked","m160","cave","12","m160cave.wav","None","727.330964408","150","204810.412862","211676.65763","212443.148592","198643.715432","199393.546237","200160.122532","200926.95606","201693.886978","205559.930782","206326.614361","207093.470149","207860.271214","208627.170905","209393.71721","210143.394355","210909.947771","211686.300771","Mapping"
"Blocked","m160","cave","12","m160reek.wav","space","436.52144447","150","204810.412862","211676.65763","212443.148592","213210.325613","199393.546237","200160.122532","200926.95606","201693.886978","205559.930782","206326.614361","207093.470149","207860.271214","208627.170905","209393.71721","210143.394355","210909.947771","212452.468338","Mapping"
"Blocked","m160","cave","12","m160cave.wav","None","719.657571055","150","204810.412862","211676.65763","212443.148592","213210.325613","213959.999975","200160.122532","200926.95606","201693.886978","205559.930782","206326.614361","207093.470149","207860.271214","208627.170905","209393.71721","210143.394355","210909.947771","213220.847119","Mapping"
"Blocked","m160","cave","12","m160knife.wav","space","599.578039139","150","204810.412862","211676.65763","212443.148592","213210.325613","213959.999975","214726.622337","200926.95606","201693.886978","205559.930782","206326.614361","207093.470149","207860.271214","208627.170905","209393.71721","210143.394355","210909.947771","213969.396705","Mapping"
"Blocked","m160","cave","12","m160park.wav","None","731.369088055","150","204810.412862","211676.65763","212443.148592","213210.325613","213959.999975","214726.622337","215493.348273","201693.886978","205559.930782","206326.614361","207093.470149","207860.271214","208627.170905","209393.71721","210143.394355","210909.947771","214736.252494","Mapping"
"Blocked","m160","cave","12","m160done.wav","None","727.932308218","150","204810.412862","211676.65763","212443.148592","213210.325613","213959.999975","214726.622337","215493.348273","216259.837071","205559.930782","206326.614361","207093.470149","207860.271214","208627.170905","209393.71721","210143.394355","210909.947771","215503.500934","Mapping"
"Blocked","m160","done","23","m160lash.wav","None","726.605951088","150","219376.830736","211676.65763","212443.148592","213210.325613","213959.999975","214726.622337","215493.348273","216259.837071","205559.930782","206326.614361","207093.470149","207860.271214","208627.170905","209393.71721","210143.394355","210909.947771","216268.984298","Mapping"
"Blocked","m160","done","23","m160bluff.wav","None","720.046821283","150","219376.830736","211676.65763","212443.148592","213210.325613","213959.999975","214726.622337","215493.348273","216259.837071","220126.293005","206326.614361","207093.470149","207860.271214","208627.170905","209393.71721","210143.394355","210909.947771","219387.315141","Mapping"
"Blocked","m160","done","23","m160done.wav","None","734.891818487","150","219376.830736","211676.65763","212443.148592","213210.325613","213959.999975","214726.622337","215493.348273","216259.837071","220126.293005","220893.285758","207093.470149","207860.271214","208627.170905","209393.71721","210143.394355","210909.947771","220136.380739","Mapping"
"Blocked","m160","done","23","m160ball.wav","space","449.672785471","150","219376.830736","211676.65763","212443.148592","213210.325613","213959.999975","214726.622337","215493.348273","216259.837071","220126.293005","220893.285758","221659.753532","207860.271214","208627.170905","209393.71721","210143.394355","210909.947771","220903.197881","Mapping"
"Blocked","m160","done","23","m160ball.wav","None","728.765223292","150","219376.830736","211676.65763","212443.148592","213210.325613","213959.999975","214726.622337","215493.348273","216259.837071","220126.293005","220893.285758","221659.753532","222426.285925","208627.170905","209393.71721","210143.394355","210909.947771","221669.324328","Mapping"
"Blocked","m160","done","23","m160done.wav","None","726.109726587","150","219376.830736","211676.65763","212443.148592","213210.325613","213959.999975","214726.622337","215493.348273","216259.837071","220126.293005","220893.285758","221659.753532","222426.285925","223193.582905","209393.71721","210143.394355","210909.947771","222435.851464","Mapping"
"Blocked","m160","done","23","m160tile.wav","space","332.398699829","150","219376.830736","211676.65763","212443.148592","213210.325613","213959.999975","214726.622337","215493.348273","216259.837071","220126.293005","220893.285758","221659.753532","222426.285925","223193.582905","223960.39139","210143.394355","210909.947771","223204.466763","Mapping"
"Blocked","m160","done","23","m160lash.wav","None","719.35179783","150","219376.830736","211676.65763","212443.148592","213210.325613","213959.999975","214726.622337","215493.348273","216259.837071","220126.293005","220893.285758","221659.753532","222426.285925","223193.582905","223960.39139","224709.639401","210909.947771","223970.74285","Mapping"
"Blocked","m160","done","23","m160cling.wav","None","734.61974517","150","219376.830736","211676.65763","212443.148592","213210.325613","213959.999975","214726.622337","215493.348273","216259.837071","220126.293005","220893.285758","221659.753532","222426.285925","223193.582905","223960.39139","224709.639401","225476.443867","224719.387971","Mapping"
"Blocked","m160","done","23","m160done.wav","None","731.900249375","150","219376.830736","226242.9271","212443.148592","213210.325613","213959.999975","214726.622337","215493.348273","216259.837071","220126.293005","220893.285758","221659.753532","222426.285925","223193.582905","223960.39139","224709.639401","225476.443867","225486.235412","Mapping"
"Blocked","m160","done","23","m160cling.wav","space","388.403433957","150","219376.830736","226242.9271","227009.687354","213210.325613","213959.999975","214726.622337","215493.348273","216259.837071","220126.293005","220893.285758","221659.753532","222426.285925","223193.582905","223960.39139","224709.639401","225476.443867","226252.381646","Mapping"
"Blocked","m160","done","23","m160park.wav","None","725.72016716","150","219376.830736","226242.9271","227009.687354","227776.901475","213959.999975","214726.622337","215493.348273","216259.837071","220126.293005","220893.285758","221659.753532","222426.285925","223193.582905","223960.39139","224709.639401","225476.443867","227019.30267","Mapping"
"Blocked","m160","done","23","m160ball.wav","None","722.271947772","150","219376.830736","226242.9271","227009.687354","227776.901475","228543.01741","214726.622337","215493.348273","216259.837071","220126.293005","220893.285758","221659.753532","222426.285925","223193.582905","223960.39139","224709.639401","225476.443867","227786.797831","Mapping"
"Blocked","m160","done","23","m160done.wav","None","720.869533718","150","219376.830736","226242.9271","227009.687354","227776.901475","228543.01741","229292.705067","215493.348273","216259.837071","220126.293005","220893.285758","221659.753532","222426.285925","223193.582905","223960.39139","224709.639401","225476.443867","228552.262026","Mapping"
"Blocked","m160","done","23","m160romp.wav","space","370.940040913","150","219376.830736","226242.9271","227009.687354","227776.901475","228543.01741","229292.705067","230059.477378","216259.837071","220126.293005","220893.285758","221659.753532","222426.285925","223193.582905","223960.39139","224709.639401","225476.443867","229301.824158","Mapping"
"Blocked","m160","done","23","m160ball.wav","None","731.2679881","150","219376.830736","226242.9271","227009.687354","227776.901475","228543.01741","229292.705067","230059.477378","230826.21568","220126.293005","220893.285758","221659.753532","222426.285925","223193.582905","223960.39139","224709.639401","225476.443867","230068.931306","Mapping"
"Blocked","m160","done","21","m160cave.wav","None","734.286146238","150","233959.959164","226242.9271","227009.687354","227776.901475","228543.01741","229292.705067","230059.477378","230826.21568","220126.293005","220893.285758","221659.753532","222426.285925","223193.582905","223960.39139","224709.639401","225476.443867","230830.142811","Mapping"
"Blocked","m160","done","21","m160greet.wav","None","719.108477817","150","233959.959164","226242.9271","227009.687354","227776.901475","228543.01741","229292.705067","230059.477378","230826.21568","234709.183369","220893.285758","221659.753532","222426.285925","223193.582905","223960.39139","224709.639401","225476.443867","233970.344633","Mapping"
"Blocked","m160","done","21","m160cave.wav","None","734.826891916","150","233959.959164","226242.9271","227009.687354","227776.901475","228543.01741","229292.705067","230059.477378","230826.21568","234709.183369","235476.399345","221659.753532","222426.285925","223193.582905","223960.39139","224709.639401","225476.443867","234718.566495","Mapping"
"Blocked","m160","done","21","m160done.wav","None","731.428140309","150","233959.959164","226242.9271","227009.687354","227776.901475","228543.01741","229292.705067","230059.477378","230826.21568","234709.183369","235476.399345","236242.774677","222426.285925","223193.582905","223960.39139","224709.639401","225476.443867","235486.052072","Mapping"
"Blocked","m160","done","21","m160cling.wav","space","380.274936208","150","233959.959164","226242.9271","227009.687354","227776.901475","228543.01741","229292.705067","230059.477378","230826.21568","234709.183369","235476.399345","236242.774677","237009.572959","223193.582905","223960.39139","224709.639401","225476.443867","236252.362168","Mapping"
"Blocked","m160","done","21","m160cling.wav","None","725.469426834","150","233959.959164","226242.9271","227009.687354","227776.901475","228543.01741","229292.705067","230059.477378","230826.21568","234709.183369","235476.399345","236242.774677","237009.572959","237776.820162","223960.39139","224709.639401","225476.443867","237019.152721","Mapping"
"Blocked","m160","done","21","m160cad.wav","None","721.268986817","150","233959.959164","226242.9271","227009.687354","227776.901475","228543.01741","229292.705067","230059.477378","230826.21568","234709.183369","235476.399345","236242.774677","237009.572959","237776.820162","238543.351318","224709.639401","225476.443867","237787.40072","Mapping"
"Blocked","m160","done","21","m160depth.wav","None","719.222253887","150","233959.959164","226242.9271","227009.687354","227776.901475","228543.01741","229292.705067","230059.477378","230826.21568","234709.183369","235476.399345","236242.774677","237009.572959","237776.820162","238543.351318","239292.940039","225476.443867","238553.505216","Mapping"
"Blocked","m160","done","21","m160done.wav","None","733.836916275","150","233959.959164","226242.9271","227009.687354","227776.901475","228543.01741","229292.705067","230059.477378","230826.21568","234709.183369","235476.399345","236242.774677","237009.572959","237776.820162","238543.351318","239292.940039","240059.503658","239302.947079","Mapping"
"Blocked","m160","done","21","m160priest.wav","space","491.657399223","150","233959.959164","240826.015336","227009.687354","227776.901475","228543.01741","229292.705067","230059.477378","230826.21568","234709.183369","235476.399345","236242.774677","237009.572959","237776.820162","238543.351318","239292.940039","240059.503658","240068.913373","Mapping"
"Blocked","m160","done","21","m160tile.wav","None","728.745436179","150","233959.959164","240826.015336","241592.918737","227776.901475","228543.01741","229292.705067","230059.477378","230826.21568","234709.183369","235476.399345","236242.774677","237009.572959","237776.820162","238543.351318","239292.940039","240059.503658","240835.486268","Mapping"
"Blocked","m160","done","21","m160done.wav","None","725.311748101","150","233959.959164","240826.015336","241592.918737","242359.549756","228543.01741","229292.705067","230059.477378","230826.21568","234709.183369","235476.399345","236242.774677","237009.572959","237776.820162","238543.351318","239292.940039","240059.503658","241603.004925","Mapping"
"Blocked","m160","done","21","m160reek.wav","None","724.039187189","150","233959.959164","240826.015336","241592.918737","242359.549756","243126.549001","229292.705067","230059.477378","230826.21568","234709.183369","235476.399345","236242.774677","237009.572959","237776.820162","238543.351318","239292.940039","240059.503658","242368.74645","Mapping"
"Blocked","m160","done","21","m160done.wav","None","719.820815022","150","233959.959164","240826.015336","241592.918737","242359.549756","243126.549001","243875.852354","230059.477378","230826.21568","234709.183369","235476.399345","236242.774677","237009.572959","237776.820162","238543.351318","239292.940039","240059.503658","243137.090912","Mapping"
"Blocked","m160","done","21","m160greet.wav","space","523.286224459","150","233959.959164","240826.015336","241592.918737","242359.549756","243126.549001","243875.852354","244642.631777","230826.21568","234709.183369","235476.399345","236242.774677","237009.572959","237776.820162","238543.351318","239292.940039","240059.503658","243885.322668","Mapping"
"Blocked","m160","done","21","m160jaw.wav","None","731.810279656","150","233959.959164","240826.015336","241592.918737","242359.549756","243126.549001","243875.852354","244642.631777","245409.431914","234709.183369","235476.399345","236242.774677","237009.572959","237776.820162","238543.351318","239292.940039","240059.503658","244652.2709","Mapping"
"Blocked","m160","ball","6","m160cad.wav","None","729.198994697","150","248542.8789","240826.015336","241592.918737","242359.549756","243126.549001","243875.852354","244642.631777","245409.431914","234709.183369","235476.399345","236242.774677","237009.572959","237776.820162","238543.351318","239292.940039","240059.503658","245419.061452","Mapping"
"Blocked","m160","ball","6","m160park.wav","None","720.616320148","150","248542.8789","240826.015336","241592.918737","242359.549756","243126.549001","243875.852354","244642.631777","245409.431914","249292.440723","235476.399345","236242.774677","237009.572959","237776.820162","238543.351318","239292.940039","240059.503658","248552.29047","Mapping"
"Blocked","m160","ball","6","m160ball.wav","None","735.326208058","150","248542.8789","240826.015336","241592.918737","242359.549756","243126.549001","243875.852354","244642.631777","245409.431914","249292.440723","250059.209943","236242.774677","237009.572959","237776.820162","238543.351318","239292.940039","240059.503658","249301.728005","Mapping"
"Blocked","m160","ball","6","m160cling.wav","space","404.150910326","150","248542.8789","240826.015336","241592.918737","242359.549756","243126.549001","243875.852354","244642.631777","245409.431914","249292.440723","250059.209943","250826.109634","237009.572959","237776.820162","238543.351318","239292.940039","240059.503658","250068.294716","Mapping"
"Blocked","m160","ball","6","m160gnash.wav","None","728.077001753","150","248542.8789","240826.015336","241592.918737","242359.549756","243126.549001","243875.852354","244642.631777","245409.431914","249292.440723","250059.209943","250826.109634","251592.780227","237776.820162","238543.351318","239292.940039","240059.503658","250836.240652","Mapping"
"Blocked","m160","ball","6","m160ball.wav","None","726.331095211","150","248542.8789","240826.015336","241592.918737","242359.549756","243126.549001","243875.852354","244642.631777","245409.431914","249292.440723","250059.209943","250826.109634","251592.780227","252359.204408","238543.351318","239292.940039","240059.503658","251602.255487","Mapping"
"Blocked","m160","ball","6","m160cad.wav","space","399.9659291","150","248542.8789","240826.015336","241592.918737","242359.549756","243126.549001","243875.852354","244642.631777","245409.431914","249292.440723","250059.209943","250826.109634","251592.780227","252359.204408","253126.409564","239292.940039","240059.503658","252368.419962","Mapping"
"Blocked","m160","ball","6","m160done.wav","None","720.313329366","150","248542.8789","240826.015336","241592.918737","242359.549756","243126.549001","243875.852354","244642.631777","245409.431914","249292.440723","250059.209943","250826.109634","251592.780227","252359.204408","253126.409564","253875.823292","240059.503658","253136.448139","Mapping"
"Blocked","m160","ball","6","m160ball.wav","None","735.065574292","150","248542.8789","240826.015336","241592.918737","242359.549756","243126.549001","243875.852354","244642.631777","245409.431914","249292.440723","250059.209943","250826.109634","251592.780227","252359.204408","253126.409564","253875.823292","254642.746481","253885.746237","Mapping"
"Blocked","m160","ball","6","m160done.wav","space","379.132228554","150","248542.8789","255409.274235","241592.918737","242359.549756","243126.549001","243875.852354","244642.631777","245409.431914","249292.440723","250059.209943","250826.109634","251592.780227","252359.204408","253126.409564","253875.823292","254642.746481","254653.238306","Mapping"
"Blocked","m160","ball","6","m160ball.wav","None","729.123556288","150","248542.8789","255409.274235","256175.977292","242359.549756","243126.549001","243875.852354","244642.631777","245409.431914","249292.440723","250059.209943","250826.109634","251592.780227","252359.204408","253126.409564","253875.823292","254642.746481","255419.157606","Mapping"
"Blocked","m160","ball","6","m160jolt.wav","space","382.798724808","150","248542.8789","255409.274235","256175.977292","256943.070526","243126.549001","243875.852354","244642.631777","245409.431914","249292.440723","250059.209943","250826.109634","251592.780227","252359.204408","253126.409564","253875.823292","254642.746481","256185.498619","Mapping"
"Blocked","m160","ball","6","m160knife.wav","None","722.961406107","150","248542.8789","255409.274235","256175.977292","256943.070526","257709.299618","243875.852354","244642.631777","245409.431914","249292.440723","250059.209943","250826.109634","251592.780227","252359.204408","253126.409564","253875.823292","254642.746481","256953.137546","Mapping"
"Blocked","m160","ball","6","m160dime.wav","None","721.669676481","150","248542.8789","255409.274235","256175.977292","256943.070526","257709.299618","258458.788476","244642.631777","245409.431914","249292.440723","250059.209943","250826.109634","251592.780227","252359.204408","253126.409564","253875.823292","254642.746481","257718.605761","Mapping"
"Blocked","m160","ball","6","m160knife.wav","None","736.22126726","150","248542.8789","255409.274235","256175.977292","256943.070526","257709.299618","258458.788476","259225.855431","245409.431914","249292.440723","250059.209943","250826.109634","251592.780227","252359.204408","253126.409564","253875.823292","254642.746481","258468.255698","Mapping"
"Blocked","m160","ball","6","m160depth.wav","None","733.161989017","150","248542.8789","255409.274235","256175.977292","256943.070526","257709.299618","258458.788476","259225.855431","259992.423378","249292.440723","250059.209943","250826.109634","251592.780227","252359.204408","253126.409564","253875.823292","254642.746481","259235.510012","Mapping"
"Blocked","m160","ball","4","m160depth.wav","None","731.371252332","150","263126.444191","255409.274235","256175.977292","256943.070526","257709.299618","258458.788476","259225.855431","259992.423378","249292.440723","250059.209943","250826.109634","251592.780227","252359.204408","253126.409564","253875.823292","254642.746481","260001.499804","Mapping"
"Blocked","m160","ball","4","m160reek.wav","None","719.150216202","150","263126.444191","255409.274235","256175.977292","256943.070526","257709.299618","258458.788476","259225.855431","259992.423378","263875.79423","250059.209943","250826.109634","251592.780227","252359.204408","253126.409564","253875.823292","254642.746481","263136.441028","Mapping"
"Blocked","m160","ball","4","m160tile.wav","None","699.989457149","150","263126.444191","255409.274235","256175.977292","256943.070526","257709.299618","258458.788476","259225.855431","259992.423378","263875.79423","264642.9527","250826.109634","251592.780227","252359.204408","253126.409564","253875.823292","254642.746481","263919.72695","Mapping"
"Blocked","m160","ball","4","m160ball.wav","None","731.195950531","150","263126.444191","255409.274235","256175.977292","256943.070526","257709.299618","258458.788476","259225.855431","259992.423378","263875.79423","264642.9527","265409.136962","251592.780227","252359.204408","253126.409564","253875.823292","254642.746481","264652.67128","Mapping"
"Blocked","m160","ball","4","m160dime.wav","space","445.451012463","150","263126.444191","255409.274235","256175.977292","256943.070526","257709.299618","258458.788476","259225.855431","259992.423378","263875.79423","264642.9527","265409.136962","266175.830434","252359.204408","253126.409564","253875.823292","254642.746481","265418.733728","Mapping"
"Blocked","m160","ball","4","m160reek.wav","None","703.113043681","150","263126.444191","255409.274235","256175.977292","256943.070526","257709.299618","258458.788476","259225.855431","259992.423378","263875.79423","264642.9527","265409.136962","266175.830434","266942.934799","253126.409564","253875.823292","254642.746481","266208.076989","Mapping"
"Blocked","m160","ball","4","m160jolt.wav","None","722.441375139","150","263126.444191","255409.274235","256175.977292","256943.070526","257709.299618","258458.788476","259225.855431","259992.423378","263875.79423","264642.9527","265409.136962","266175.830434","266942.934799","267709.442457","253875.823292","254642.746481","266952.868873","Mapping"
"Blocked","m160","ball","4","m160ball.wav","None","720.909417258","150","263126.444191","255409.274235","256175.977292","256943.070526","257709.299618","258458.788476","259225.855431","259992.423378","263875.79423","264642.9527","265409.136962","266175.830434","266942.934799","267709.442457","268458.673464","254642.746481","267719.216998","Mapping"
"Blocked","m160","ball","4","m160done.wav","space","436.072523589","150","263126.444191","255409.274235","256175.977292","256943.070526","257709.299618","258458.788476","259225.855431","259992.423378","263875.79423","264642.9527","265409.136962","266175.830434","266942.934799","267709.442457","268458.673464","269225.916338","268468.064319","Mapping"
"Blocked","m160","ball","4","m160ball.wav","None","732.096265769","150","263126.444191","269992.265081","256175.977292","256943.070526","257709.299618","258458.788476","259225.855431","259992.423378","263875.79423","264642.9527","265409.136962","266175.830434","266942.934799","267709.442457","268458.673464","269225.916338","269235.317706","Mapping"
"Blocked","m160","ball","4","m160romp.wav","space","654.792833258","150","263126.444191","269992.265081","270759.078822","256943.070526","257709.299618","258458.788476","259225.855431","259992.423378","263875.79423","264642.9527","265409.136962","266175.830434","266942.934799","267709.442457","268458.673464","269225.916338","270001.32914","Mapping"
"Blocked","m160","ball","4","m160ball.wav","None","726.121475222","150","263126.444191","269992.265081","270759.078822","271526.138665","257709.299618","258458.788476","259225.855431","259992.423378","263875.79423","264642.9527","265409.136962","266175.830434","266942.934799","267709.442457","268458.673464","269225.916338","270768.495957","Mapping"
"Blocked","m160","ball","4","m160cave.wav","space","383.51693633","150","263126.444191","269992.265081","270759.078822","271526.138665","272293.098336","258458.788476","259225.855431","259992.423378","263875.79423","264642.9527","265409.136962","266175.830434","266942.934799","267709.442457","268458.673464","269225.916338","271536.576076","Mapping"
"Blocked","m160","ball","4","m160done.wav","None","719.153926359","150","263126.444191","269992.265081","270759.078822","271526.138665","272293.098336","273042.327179","259225.855431","259992.423378","263875.79423","264642.9527","265409.136962","266175.830434","266942.934799","267709.442457","268458.673464","269225.916338","272302.886481","Mapping"
"Blocked","m160","ball","4","m160knife.wav","None","735.236547538","150","263126.444191","269992.265081","270759.078822","271526.138665","272293.098336","273042.327179","273809.028689","259992.423378","263875.79423","264642.9527","265409.136962","266175.830434","266942.934799","267709.442457","268458.673464","269225.916338","273051.513052","Mapping"
"Blocked","m160","ball","4","m160park.wav","None","732.896408415","150","263126.444191","269992.265081","270759.078822","271526.138665","272293.098336","273042.327179","273809.028689","274575.672384","263875.79423","264642.9527","265409.136962","266175.830434","266942.934799","267709.442457","268458.673464","269225.916338","273818.13325","Mapping"
"Blocked","m160","tile","13","m160done.wav","None","730.947992881","150","277709.322497","269992.265081","270759.078822","271526.138665","272293.098336","273042.327179","273809.028689","274575.672384","263875.79423","264642.9527","265409.136962","266175.830434","266942.934799","267709.442457","268458.673464","269225.916338","274585.119819","Mapping"
"Blocked","m160","tile","13","m160lash.wav","None","720.021469053","150","277709.322497","269992.265081","270759.078822","271526.138665","272293.098336","273042.327179","273809.028689","274575.672384","278458.878446","264642.9527","265409.136962","266175.830434","266942.934799","267709.442457","268458.673464","269225.916338","277718.965948","Mapping"
"Blocked","m160","tile","13","m160tile.wav","None","734.759801067","150","277709.322497","269992.265081","270759.078822","271526.138665","272293.098336","273042.327179","273809.028689","274575.672384","278458.878446","279225.699298","265409.136962","266175.830434","266942.934799","267709.442457","268458.673464","269225.916338","278468.477067","Mapping"
"Blocked","m160","tile","13","m160done.wav","space","445.11926861","150","277709.322497","269992.265081","270759.078822","271526.138665","272293.098336","273042.327179","273809.028689","274575.672384","278458.878446","279225.699298","279991.943849","266175.830434","266942.934799","267709.442457","268458.673464","269225.916338","279234.880224","Mapping"
"Blocked","m160","tile","13","m160tile.wav","None","731.436797185","150","277709.322497","269992.265081","270759.078822","271526.138665","272293.098336","273042.327179","273809.028689","274575.672384","278458.878446","279225.699298","279991.943849","280758.714924","266942.934799","267709.442457","268458.673464","269225.916338","280000.648647","Mapping"
"Blocked","m160","tile","13","m160greet.wav","space","560.321269091","150","277709.322497","269992.265081","270759.078822","271526.138665","272293.098336","273042.327179","273809.028689","274575.672384","278458.878446","279225.699298","279991.943849","280758.714924","281525.445806","267709.442457","268458.673464","269225.916338","280767.643255","Mapping"
"Blocked","m160","tile","13","m160jaw.wav","None","724.667429109","150","277709.322497","269992.265081","270759.078822","271526.138665","272293.098336","273042.327179","273809.028689","274575.672384","278458.878446","279225.699298","279991.943849","280758.714924","281525.445806","282292.336531","268458.673464","269225.916338","281534.883038","Mapping"
"Blocked","m160","tile","13","m160reek.wav","None","722.619459499","150","277709.322497","269992.265081","270759.078822","271526.138665","272293.098336","273042.327179","273809.028689","274575.672384","278458.878446","279225.699298","279991.943849","280758.714924","281525.445806","282292.336531","283059.210561","269225.916338","282301.312166","Mapping"
"Blocked","m160","tile","13","m160ball.wav","None","719.652005937","150","277709.322497","269992.265081","270759.078822","271526.138665","272293.098336","273042.327179","273809.028689","274575.672384","278458.878446","279225.699298","279991.943849","280758.714924","281525.445806","282292.336531","283059.210561","283808.776403","283068.950165","Mapping"
"Blocked","m160","tile","13","m160done.wav","None","735.035584425","150","277709.322497","284575.692171","270759.078822","271526.138665","272293.098336","273042.327179","273809.028689","274575.672384","278458.878446","279225.699298","279991.943849","280758.714924","281525.445806","282292.336531","283059.210561","283808.776403","283818.174679","Mapping"
"Blocked","m160","tile","13","m160cad.wav","None","732.345769298","150","277709.322497","284575.692171","285342.27094","271526.138665","272293.098336","273042.327179","273809.028689","274575.672384","278458.878446","279225.699298","279991.943849","280758.714924","281525.445806","282292.336531","283059.210561","283808.776403","284585.262039","Mapping"
"Blocked","m160","tile","13","m160done.wav","None","730.18587858","150","277709.322497","284575.692171","285342.27094","286109.174032","272293.098336","273042.327179","273809.028689","274575.672384","278458.878446","279225.699298","279991.943849","280758.714924","281525.445806","282292.336531","283059.210561","283808.776403","285351.778663","Mapping"
"Blocked","m160","tile","13","m160tile.wav","None","728.447083035","150","277709.322497","284575.692171","285342.27094","286109.174032","286875.543489","273042.327179","273809.028689","274575.672384","278458.878446","279225.699298","279991.943849","280758.714924","281525.445806","282292.336531","283059.210561","283808.776403","286118.155541","Mapping"
"Blocked","m160","tile","13","m160bluff.wav","space","339.188473532","150","277709.322497","284575.692171","285342.27094","286109.174032","286875.543489","287642.150084","273809.028689","274575.672384","278458.878446","279225.699298","279991.943849","280758.714924","281525.445806","282292.336531","283059.210561","283808.776403","286884.69288","Mapping"
"Blocked","m160","tile","13","m160tile.wav","None","723.376317765","150","277709.322497","284575.692171","285342.27094","286109.174032","286875.543489","287642.150084","288409.115629","274575.672384","278458.878446","279225.699298","279991.943849","280758.714924","281525.445806","282292.336531","283059.210561","283808.776403","287651.256808","Mapping"
"Blocked","m160","tile","13","m160depth.wav","space","557.047733106","150","277709.322497","284575.692171","285342.27094","286109.174032","286875.543489","287642.150084","288409.115629","289158.706514","278458.878446","279225.699298","279991.943849","280758.714924","281525.445806","282292.336531","283059.210561","283808.776403","288418.829263","Mapping"
"Blocked","m160","ball","1","m160depth.wav","space","0.0340091064572","150","292292.680333","284575.692171","285342.27094","286109.174032","286875.543489","287642.150084","288409.115629","289158.706514","278458.878446","279225.699298","279991.943849","280758.714924","281525.445806","282292.336531","283059.210561","283808.776403","289168.093042","Mapping"
"Blocked","m160","ball","1","m160priest.wav","None","719.666227931","150","292292.680333","284575.692171","285342.27094","286109.174032","286875.543489","287642.150084","288409.115629","289158.706514","293042.035937","279225.699298","279991.943849","280758.714924","281525.445806","282292.336531","283059.210561","283808.776403","292302.474352","Mapping"
"Blocked","m160","ball","1","m160tile.wav","None","734.956744942","150","292292.680333","284575.692171","285342.27094","286109.174032","286875.543489","287642.150084","288409.115629","289158.706514","293042.035937","293808.803301","279991.943849","280758.714924","281525.445806","282292.336531","283059.210561","283808.776403","293051.622809","Mapping"
"Blocked","m160","ball","1","m160ball.wav","None","732.928562444","150","292292.680333","284575.692171","285342.27094","286109.174032","286875.543489","287642.150084","288409.115629","289158.706514","293042.035937","293808.803301","294575.208314","280758.714924","281525.445806","282292.336531","283059.210561","283808.776403","293817.989175","Mapping"
"Blocked","m160","ball","1","m160cad.wav","space","447.125499602","150","292292.680333","284575.692171","285342.27094","286109.174032","286875.543489","287642.150084","288409.115629","289158.706514","293042.035937","293808.803301","294575.208314","295342.135212","281525.445806","282292.336531","283059.210561","283808.776403","294584.648019","Mapping"
"Blocked","m160","ball","1","m160ball.wav","None","726.776615134","150","292292.680333","284575.692171","285342.27094","286109.174032","286875.543489","287642.150084","288409.115629","289158.706514","293042.035937","293808.803301","294575.208314","295342.135212","296109.594509","282292.336531","283059.210561","283808.776403","295351.63026","Mapping"
"Blocked","m160","ball","1","m160priest.wav","space","400.091144489","150","292292.680333","284575.692171","285342.27094","286109.174032","286875.543489","287642.150084","288409.115629","289158.706514","293042.035937","293808.803301","294575.208314","295342.135212","296109.594509","296875.728376","283059.210561","283808.776403","296119.665857","Mapping"
"Blocked","m160","ball","1","m160park.wav","None","720.61199171","150","292292.680333","284575.692171","285342.27094","286109.174032","286875.543489","287642.150084","288409.115629","289158.706514","293042.035937","293808.803301","294575.208314","295342.135212","296109.594509","296875.728376","297625.587933","283808.776403","296885.595978","Mapping"
"Blocked","m160","ball","1","m160ball.wav","None","736.134080216","150","292292.680333","284575.692171","285342.27094","286109.174032","286875.543489","287642.150084","288409.115629","289158.706514","293042.035937","293808.803301","294575.208314","295342.135212","296109.594509","296875.728376","297625.587933","298392.004385","297634.608398","Mapping"
"Blocked","m160","ball","1","m160cad.wav","space","438.184183091","150","292292.680333","299158.455465","285342.27094","286109.174032","286875.543489","287642.150084","288409.115629","289158.706514","293042.035937","293808.803301","294575.208314","295342.135212","296109.594509","296875.728376","297625.587933","298392.004385","298401.514582","Mapping"
"Blocked","m160","ball","1","m160ball.wav","None","731.425048667","150","292292.680333","299158.455465","299925.318983","286109.174032","286875.543489","287642.150084","288409.115629","289158.706514","293042.035937","293808.803301","294575.208314","295342.135212","296109.594509","296875.728376","297625.587933","298392.004385","299167.520142","Mapping"
"Blocked","m160","ball","1","m160cave.wav","None","728.612800478","150","292292.680333","299158.455465","299925.318983","300691.996378","286875.543489","287642.150084","288409.115629","289158.706514","293042.035937","293808.803301","294575.208314","295342.135212","296109.594509","296875.728376","297625.587933","298392.004385","299934.641202","Mapping"
"Blocked","m160","ball","1","m160gnash.wav","None","726.049128454","150","292292.680333","299158.455465","299925.318983","300691.996378","301459.013864","287642.150084","288409.115629","289158.706514","293042.035937","293808.803301","294575.208314","295342.135212","296109.594509","296875.728376","297625.587933","298392.004385","300701.572429","Mapping"
"Blocked","m160","ball","1","m160greet.wav","None","723.784427624","150","292292.680333","299158.455465","299925.318983","300691.996378","301459.013864","302225.787722","288409.115629","289158.706514","293042.035937","293808.803301","294575.208314","295342.135212","296109.594509","296875.728376","297625.587933","298392.004385","301468.254152","Mapping"
"Blocked","m160","ball","1","m160tile.wav","None","720.617865911","150","292292.680333","299158.455465","299925.318983","300691.996378","301459.013864","302225.787722","302975.651917","289158.706514","293042.035937","293808.803301","294575.208314","295342.135212","296109.594509","296875.728376","297625.587933","298392.004385","302235.848249","Mapping"
"Blocked","m160","ball","1","m160depth.wav","None","735.965271131","150","292292.680333","299158.455465","299925.318983","300691.996378","301459.013864","302225.787722","302975.651917","303741.968196","293042.035937","293808.803301","294575.208314","295342.135212","296109.594509","296875.728376","297625.587933","298392.004385","302984.915393","Mapping"
"Blocked","m160","tile","16","m160cling.wav","None","733.58092003","150","306875.504843","299158.455465","299925.318983","300691.996378","301459.013864","302225.787722","302975.651917","303741.968196","293042.035937","293808.803301","294575.208314","295342.135212","296109.594509","296875.728376","297625.587933","298392.004385","303751.587532","Mapping"
"Blocked","m160","tile","16","m160priest.wav","None","719.569147215","150","306875.504843","299158.455465","299925.318983","300691.996378","301459.013864","302225.787722","302975.651917","303741.968196","307625.064501","293808.803301","294575.208314","295342.135212","296109.594509","296875.728376","297625.587933","298392.004385","306884.973301","Mapping"
"Blocked","m160","tile","16","m160tile.wav","None","740.00524974","150","306875.504843","299158.455465","299925.318983","300691.996378","301459.013864","302225.787722","302975.651917","303741.968196","307625.064501","308392.04396","294575.208314","295342.135212","296109.594509","296875.728376","297625.587933","298392.004385","307629.155494","Mapping"
"Blocked","m160","tile","16","m160priest.wav","space","406.0062645","150","306875.504843","299158.455465","299925.318983","300691.996378","301459.013864","302225.787722","302975.651917","303741.968196","307625.064501","308392.04396","309158.46474","295342.135212","296109.594509","296875.728376","297625.587933","298392.004385","308401.561886","Mapping"
"Blocked","m160","tile","16","m160ball.wav","None","729.366257903","150","306875.504843","299158.455465","299925.318983","300691.996378","301459.013864","302225.787722","302975.651917","303741.968196","307625.064501","308392.04396","309158.46474","309924.995587","296109.594509","296875.728376","297625.587933","298392.004385","309167.514577","Mapping"
"Blocked","m160","tile","16","m160tile.wav","None","727.28304239","150","306875.504843","299158.455465","299925.318983","300691.996378","301459.013864","302225.787722","302975.651917","303741.968196","307625.064501","308392.04396","309158.46474","309924.995587","310691.904862","296875.728376","297625.587933","298392.004385","309934.147451","Mapping"
"Blocked","m160","tile","16","m160greet.wav","None","724.704839173","150","306875.504843","299158.455465","299925.318983","300691.996378","301459.013864","302225.787722","302975.651917","303741.968196","307625.064501","308392.04396","309158.46474","309924.995587","310691.904862","311459.238325","297625.587933","298392.004385","310701.253979","Mapping"
"Blocked","m160","tile","16","m160depth.wav","space","242.537540733","150","306875.504843","299158.455465","299925.318983","300691.996378","301459.013864","302225.787722","302975.651917","303741.968196","307625.064501","308392.04396","309158.46474","309924.995587","310691.904862","311459.238325","312225.212039","298392.004385","311469.027088","Mapping"
"Blocked","m160","tile","16","m160reek.wav","None","719.633764704","150","306875.504843","299158.455465","299925.318983","300691.996378","301459.013864","302225.787722","302975.651917","303741.968196","307625.064501","308392.04396","309158.46474","309924.995587","310691.904862","311459.238325","312225.212039","312975.034187","312234.862292","Mapping"
"Blocked","m160","tile","16","m160bluff.wav","None","734.760419466","150","306875.504843","313741.598424","299925.318983","300691.996378","301459.013864","302225.787722","302975.651917","303741.968196","307625.064501","308392.04396","309158.46474","309924.995587","310691.904862","311459.238325","312225.212039","312975.034187","312984.388251","Mapping"
"Blocked","m160","tile","16","m160romp.wav","None","733.068309259","150","306875.504843","313741.598424","314508.18183","300691.996378","301459.013864","302225.787722","302975.651917","303741.968196","307625.064501","308392.04396","309158.46474","309924.995587","310691.904862","311459.238325","312225.212039","312975.034187","313750.689381","Mapping"
"Blocked","m160","tile","16","m160tile.wav","None","731.028378126","150","306875.504843","313741.598424","314508.18183","315274.902819","301459.013864","302225.787722","302975.651917","303741.968196","307625.064501","308392.04396","309158.46474","309924.995587","310691.904862","311459.238325","312225.212039","312975.034187","314517.312052","Mapping"
"Blocked","m160","tile","16","m160reek.wav","space","467.360948212","150","306875.504843","313741.598424","314508.18183","315274.902819","316041.865272","302225.787722","302975.651917","303741.968196","307625.064501","308392.04396","309158.46474","309924.995587","310691.904862","311459.238325","312225.212039","312975.034187","315284.08962","Mapping"
"Blocked","m160","tile","16","m160tile.wav","None","724.613323575","150","306875.504843","313741.598424","314508.18183","315274.902819","316041.865272","316808.465065","302975.651917","303741.968196","307625.064501","308392.04396","309158.46474","309924.995587","310691.904862","311459.238325","312225.212039","312975.034187","316051.292611","Mapping"
"Blocked","m160","tile","16","m160bluff.wav","space","661.973093869","150","306875.504843","313741.598424","314508.18183","315274.902819","316041.865272","316808.465065","317558.674917","303741.968196","307625.064501","308392.04396","309158.46474","309924.995587","310691.904862","311459.238325","312225.212039","312975.034187","316817.444101","Mapping"
"Blocked","m160","tile","16","m160ball.wav","None","735.68268586","150","306875.504843","313741.598424","314508.18183","315274.902819","316041.865272","316808.465065","317558.674917","318324.925961","307625.064501","308392.04396","309158.46474","309924.995587","310691.904862","311459.238325","312225.212039","312975.034187","317568.065773","Mapping"
"Blocked","m160","ball","3","m160priest.wav","None","734.054883942","150","321458.57731","313741.598424","314508.18183","315274.902819","316041.865272","316808.465065","317558.674917","318324.925961","307625.064501","308392.04396","309158.46474","309924.995587","310691.904862","311459.238325","312225.212039","312975.034187","318334.324855","Mapping"
"Blocked","m160","ball","3","m160jolt.wav","None","719.733627862","150","321458.57731","313741.598424","314508.18183","315274.902819","316041.865272","316808.465065","317558.674917","318324.925961","322208.170051","308392.04396","309158.46474","309924.995587","310691.904862","311459.238325","312225.212039","312975.034187","321468.670919","Mapping"
"Blocked","m160","ball","3","m160greet.wav","None","735.747303232","150","321458.57731","313741.598424","314508.18183","315274.902819","316041.865272","316808.465065","317558.674917","318324.925961","322208.170051","322974.821166","309158.46474","309924.995587","310691.904862","311459.238325","312225.212039","312975.034187","322217.273993","Mapping"
"Blocked","m160","ball","3","m160done.wav","None","733.781573945","150","321458.57731","313741.598424","314508.18183","315274.902819","316041.865272","316808.465065","317558.674917","318324.925961","322208.170051","322974.821166","323741.753011","309924.995587","310691.904862","311459.238325","312225.212039","312975.034187","322983.845341","Mapping"
"Blocked","m160","ball","3","m160greet.wav","None","730.968398391","150","321458.57731","313741.598424","314508.18183","315274.902819","316041.865272","316808.465065","317558.674917","318324.925961","322208.170051","322974.821166","323741.753011","324508.181212","310691.904862","311459.238325","312225.212039","312975.034187","323751.230127","Mapping"
"Blocked","m160","ball","3","m160cling.wav","None","728.98473707","150","321458.57731","313741.598424","314508.18183","315274.902819","316041.865272","316808.465065","317558.674917","318324.925961","322208.170051","322974.821166","323741.753011","324508.181212","325275.004537","311459.238325","312225.212039","312975.034187","324517.716761","Mapping"
"Blocked","m160","ball","3","m160ball.wav","None","727.380741504","150","321458.57731","313741.598424","314508.18183","315274.902819","316041.865272","316808.465065","317558.674917","318324.925961","322208.170051","322974.821166","323741.753011","324508.181212","325275.004537","326041.411405","312225.212039","312975.034187","325284.100441","Mapping"
"Blocked","m160","ball","3","m160knife.wav","space","380.885555176","150","321458.57731","313741.598424","314508.18183","315274.902819","316041.865272","316808.465065","317558.674917","318324.925961","322208.170051","322974.821166","323741.753011","324508.181212","325275.004537","326041.411405","326808.667574","312975.034187","326050.451039","Mapping"
"Blocked","m160","ball","3","m160ball.wav","None","721.437795786","150","321458.57731","313741.598424","314508.18183","315274.902819","316041.865272","316808.465065","317558.674917","318324.925961","322208.170051","322974.821166","323741.753011","324508.181212","325275.004537","326041.411405","326808.667574","327558.605971","326817.823148","Mapping"
"Blocked","m160","ball","3","m160park.wav","space","463.264390593","150","321458.57731","328324.916067","314508.18183","315274.902819","316041.865272","316808.465065","317558.674917","318324.925961","322208.170051","322974.821166","323741.753011","324508.181212","325275.004537","326041.411405","326808.667574","327558.605971","327568.024343","Mapping"
"Blocked","m160","ball","3","m160ball.wav","None","732.91310377","150","321458.57731","328324.916067","329091.620051","315274.902819","316041.865272","316808.465065","317558.674917","318324.925961","322208.170051","322974.821166","323741.753011","324508.181212","325275.004537","326041.411405","326808.667574","327558.605971","328334.18078","Mapping"
"Blocked","m160","ball","3","m160jaw.wav","space","330.079584499","150","321458.57731","328324.916067","329091.620051","329858.165738","316041.865272","316808.465065","317558.674917","318324.925961","322208.170051","322974.821166","323741.753011","324508.181212","325275.004537","326041.411405","326808.667574","327558.605971","329101.191774","Mapping"
"Blocked","m160","ball","3","m160ball.wav","None","727.6667275","150","321458.57731","328324.916067","329091.620051","329858.165738","330624.856118","316808.465065","317558.674917","318324.925961","322208.170051","322974.821166","323741.753011","324508.181212","325275.004537","326041.411405","326808.667574","327558.605971","329867.136426","Mapping"
"Blocked","m160","ball","3","m160bluff.wav","space","357.008035178","150","321458.57731","328324.916067","329091.620051","329858.165738","330624.856118","331391.937913","317558.674917","318324.925961","322208.170051","322974.821166","323741.753011","324508.181212","325275.004537","326041.411405","326808.667574","327558.605971","330634.226568","Mapping"
"Blocked","m160","ball","3","m160dime.wav","None","720.728241256","150","321458.57731","328324.916067","329091.620051","329858.165738","330624.856118","331391.937913","332158.801122","318324.925961","322208.170051","322974.821166","323741.753011","324508.181212","325275.004537","326041.411405","326808.667574","327558.605971","331401.840452","Mapping"
"Blocked","m160","ball","3","m160tile.wav","None","718.560311943","150","321458.57731","328324.916067","329091.620051","329858.165738","330624.856118","331391.937913","332158.801122","332908.316259","322208.170051","322974.821166","323741.753011","324508.181212","325275.004537","326041.411405","326808.667574","327558.605971","332168.842171","Mapping"
"Blocked","m160","tile","14","m160priest.wav","None","734.190611518","150","336041.869601","328324.916067","329091.620051","329858.165738","330624.856118","331391.937913","332158.801122","332908.316259","322208.170051","322974.821166","323741.753011","324508.181212","325275.004537","326041.411405","326808.667574","327558.605971","332917.779462","Mapping"
"Blocked","m160","tile","14","m160tile.wav","None","719.57594913","150","336041.869601","328324.916067","329091.620051","329858.165738","330624.856118","331391.937913","332158.801122","332908.316259","336791.132452","322974.821166","323741.753011","324508.181212","325275.004537","326041.411405","326808.667574","327558.605971","336051.610751","Mapping"
"Blocked","m160","tile","14","m160jaw.wav","space","535.268887295","150","336041.869601","328324.916067","329091.620051","329858.165738","330624.856118","331391.937913","332158.801122","332908.316259","336791.132452","337558.01483","323741.753011","324508.181212","325275.004537","326041.411405","326808.667574","327558.605971","336799.903105","Mapping"
"Blocked","m160","tile","14","m160tile.wav","None","732.161501423","150","336041.869601","328324.916067","329091.620051","329858.165738","330624.856118","331391.937913","332158.801122","332908.316259","336791.132452","337558.01483","338324.744166","324508.181212","325275.004537","326041.411405","326808.667574","327558.605971","337567.020455","Mapping"
"Blocked","m160","tile","14","m160reek.wav","space","456.65022789","150","336041.869601","328324.916067","329091.620051","329858.165738","330624.856118","331391.937913","332158.801122","332908.316259","336791.132452","337558.01483","338324.744166","339091.208849","325275.004537","326041.411405","326808.667574","327558.605971","338334.485625","Mapping"
"Blocked","m160","tile","14","m160romp.wav","None","727.080533397","150","336041.869601","328324.916067","329091.620051","329858.165738","330624.856118","331391.937913","332158.801122","332908.316259","336791.132452","337558.01483","338324.744166","339091.208849","339858.027846","326041.411405","326808.667574","327558.605971","339100.016912","Mapping"
"Blocked","m160","tile","14","m160tile.wav","None","724.91044004","150","336041.869601","328324.916067","329091.620051","329858.165738","330624.856118","331391.937913","332158.801122","332908.316259","336791.132452","337558.01483","338324.744166","339091.208849","339858.027846","340624.88549","326808.667574","327558.605971","339867.075209","Mapping"
"Blocked","m160","tile","14","m160done.wav","space","445.242938236","150","336041.869601","328324.916067","329091.620051","329858.165738","330624.856118","331391.937913","332158.801122","332908.316259","336791.132452","337558.01483","338324.744166","339091.208849","339858.027846","340624.88549","341391.774669","327558.605971","340633.860197","Mapping"
"Blocked","m160","tile","14","m160done.wav","None","718.706551357","150","336041.869601","328324.916067","329091.620051","329858.165738","330624.856118","331391.937913","332158.801122","332908.316259","336791.132452","337558.01483","338324.744166","339091.208849","339858.027846","340624.88549","341391.774669","342141.101829","341402.057492","Mapping"
"Blocked","m160","tile","14","m160depth.wav","None","735.299928347","150","336041.869601","342907.998428","329091.620051","329858.165738","330624.856118","331391.937913","332158.801122","332908.316259","336791.132452","337558.01483","338324.744166","339091.208849","339858.027846","340624.88549","341391.774669","342141.101829","342150.104671","Mapping"
"Blocked","m160","tile","14","m160tile.wav","None","733.11004776","150","336041.869601","342907.998428","343674.114363","329858.165738","330624.856118","331391.937913","332158.801122","332908.316259","336791.132452","337558.01483","338324.744166","339091.208849","339858.027846","340624.88549","341391.774669","342141.101829","342916.978391","Mapping"
"Blocked","m160","tile","14","m160bluff.wav","space","668.157813605","150","336041.869601","342907.998428","343674.114363","344441.373005","330624.856118","331391.937913","332158.801122","332908.316259","336791.132452","337558.01483","338324.744166","339091.208849","339858.027846","340624.88549","341391.774669","342141.101829","343682.908203","Mapping"
"Blocked","m160","tile","14","m160bluff.wav","None","730.499999481","150","336041.869601","342907.998428","343674.114363","344441.373005","345207.936933","331391.937913","332158.801122","332908.316259","336791.132452","337558.01483","338324.744166","339091.208849","339858.027846","340624.88549","341391.774669","342141.101829","344450.600308","Mapping"
"Blocked","m160","tile","14","m160jaw.wav","None","728.737088502","150","336041.869601","342907.998428","343674.114363","344441.373005","345207.936933","345974.726559","332158.801122","332908.316259","336791.132452","337558.01483","338324.744166","339091.208849","339858.027846","340624.88549","341391.774669","342141.101829","345217.157125","Mapping"
"Blocked","m160","tile","14","m160greet.wav","None","726.313781459","150","336041.869601","342907.998428","343674.114363","344441.373005","345207.936933","345974.726559","346741.378292","332908.316259","336791.132452","337558.01483","338324.744166","339091.208849","339858.027846","340624.88549","341391.774669","342141.101829","345984.254379","Mapping"
"Blocked","m160","tile","14","m160greet.wav","None","724.57158519","150","336041.869601","342907.998428","343674.114363","344441.373005","345207.936933","345974.726559","346741.378292","347508.209347","336791.132452","337558.01483","338324.744166","339091.208849","339858.027846","340624.88549","341391.774669","342141.101829","346750.783061","Mapping"
"Blocked","m160","done","19","m160jaw.wav","None","721.639995812","150","350624.889509","342907.998428","343674.114363","344441.373005","345207.936933","345974.726559","346741.378292","347508.209347","336791.132452","337558.01483","338324.744166","339091.208849","339858.027846","340624.88549","341391.774669","342141.101829","347518.436519","Mapping"
"Blocked","m160","done","19","m160park.wav","None","721.782215871","150","350624.889509","342907.998428","343674.114363","344441.373005","345207.936933","345974.726559","346741.378292","347508.209347","351374.408357","337558.01483","338324.744166","339091.208849","339858.027846","340624.88549","341391.774669","342141.101829","350633.792179","Mapping"
"Blocked","m160","done","19","m160done.wav","None","732.582287397","150","350624.889509","342907.998428","343674.114363","344441.373005","345207.936933","345974.726559","346741.378292","347508.209347","351374.408357","352141.002275","338324.744166","339091.208849","339858.027846","340624.88549","341391.774669","342141.101829","351387.692024","Mapping"
"Blocked","m160","done","19","m160jolt.wav","space","456.791829667","150","350624.889509","342907.998428","343674.114363","344441.373005","345207.936933","345974.726559","346741.378292","347508.209347","351374.408357","352141.002275","352907.832092","339091.208849","339858.027846","340624.88549","341391.774669","342141.101829","352150.123531","Mapping"
"Blocked","m160","done","19","m160done.wav","None","727.363736951","150","350624.889509","342907.998428","343674.114363","344441.373005","345207.936933","345974.726559","346741.378292","347508.209347","351374.408357","352141.002275","352907.832092","353674.29894","339858.027846","340624.88549","341391.774669","342141.101829","352920.784325","Mapping"
"Blocked","m160","done","19","m160bluff.wav","space","547.352649854","150","350624.889509","342907.998428","343674.114363","344441.373005","345207.936933","345974.726559","346741.378292","347508.209347","351374.408357","352141.002275","352907.832092","353674.29894","354441.264176","340624.88549","341391.774669","342141.101829","353683.532735","Mapping"
"Blocked","m160","done","19","m160cling.wav","None","725.688322098","150","350624.889509","342907.998428","343674.114363","344441.373005","345207.936933","345974.726559","346741.378292","347508.209347","351374.408357","352141.002275","352907.832092","353674.29894","354441.264176","355208.266204","341391.774669","342141.101829","354450.614839","Mapping"
"Blocked","m160","done","19","m160romp.wav","None","719.584915205","150","350624.889509","342907.998428","343674.114363","344441.373005","345207.936933","345974.726559","346741.378292","347508.209347","351374.408357","352141.002275","352907.832092","353674.29894","354441.264176","355208.266204","355974.587121","342141.101829","355222.113805","Mapping"
"Blocked","m160","done","19","m160done.wav","None","723.134234548","150","350624.889509","342907.998428","343674.114363","344441.373005","345207.936933","345974.726559","346741.378292","347508.209347","351374.408357","352141.002275","352907.832092","353674.29894","354441.264176","355208.266204","355974.587121","356741.55143","355983.46011","Mapping"
"Blocked","m160","done","19","m160jaw.wav","space","415.478742332","150","350624.889509","357491.152518","343674.114363","344441.373005","345207.936933","345974.726559","346741.378292","347508.209347","351374.408357","352141.002275","352907.832092","353674.29894","354441.264176","355208.266204","355974.587121","356741.55143","356751.360289","Mapping"
"Blocked","m160","done","19","m160priest.wav","None","729.880414554","150","350624.889509","357491.152518","358258.139087","344441.373005","345207.936933","345974.726559","346741.378292","347508.209347","351374.408357","352141.002275","352907.832092","353674.29894","354441.264176","355208.266204","355974.587121","356741.55143","357504.629728","Mapping"
"Blocked","m160","done","19","m160done.wav","None","731.69155675","150","350624.889509","357491.152518","358258.139087","359024.463405","345207.936933","345974.726559","346741.378292","347508.209347","351374.408357","352141.002275","352907.832092","353674.29894","354441.264176","355208.266204","355974.587121","356741.55143","358267.480784","Mapping"
"Blocked","m160","done","19","m160ball.wav","space","532.76519489","150","350624.889509","357491.152518","358258.139087","359024.463405","359790.937982","345974.726559","346741.378292","347508.209347","351374.408357","352141.002275","352907.832092","353674.29894","354441.264176","355208.266204","355974.587121","356741.55143","359050.049421","Mapping"
