"Condition","Talker","Target","Trial","current_stimulus","response_response","response_time_response","subject_nr","time_Audio1","time_Audio10","time_Audio11","time_Audio12","time_Audio13","time_Audio14","time_Audio15","time_Audio16","time_Audio2","time_Audio3","time_Audio4","time_Audio5","time_Audio6","time_Audio7","time_Audio8","time_Audio9","time_response","title"
"Blocked","m160","done","21","m160tile.wav","NA","NA","162","103227.959893","NA","NA","NA","NA","NA","NA","NA","NA","NA","NA","NA","NA","NA","NA","NA","NA","Mapping"
"Blocked","m160","done","21","m160lash.wav","None","718.217999674","162","103227.959893","NA","NA","NA","NA","NA","NA","NA","103994.991394","NA","NA","NA","NA","NA","NA","NA","103241.867122","Mapping"
"Blocked","m160","done","21","m160done.wav","None","721.04198765","162","103227.959893","NA","NA","NA","NA","NA","NA","NA","103994.991394","104760.925949","NA","NA","NA","NA","NA","NA","104005.593871","Mapping"
"Blocked","m160","done","21","m160dime.wav","space","395.081610885","162","103227.959893","NA","NA","NA","NA","NA","NA","NA","103994.991394","104760.925949","105527.660335","NA","NA","NA","NA","NA","104770.623476","Mapping"
"Blocked","m160","done","21","m160tile.wav","None","721.812756732","162","103227.959893","NA","NA","NA","NA","NA","NA","NA","103994.991394","104760.925949","105527.660335","106277.876215","NA","NA","NA","NA","105537.612929","Mapping"
"Blocked","m160","done","21","m160jolt.wav","None","735.610847361","162","103227.959893","NA","NA","NA","NA","NA","NA","NA","103994.991394","104760.925949","105527.660335","106277.876215","107044.159208","NA","NA","NA","106287.026196","Mapping"
"Blocked","m160","done","21","m160done.wav","None","735.059900675","162","103227.959893","NA","NA","NA","NA","NA","NA","NA","103994.991394","104760.925949","105527.660335","106277.876215","107044.159208","107810.563397","NA","NA","107054.036674","Mapping"
"Blocked","m160","done","21","m160depth.wav","space","361.92062078","162","103227.959893","NA","NA","NA","NA","NA","NA","NA","103994.991394","104760.925949","105527.660335","106277.876215","107044.159208","107810.563397","108577.069613","NA","107819.747696","Mapping"
"Blocked","m160","done","21","m160done.wav","None","732.454188634","162","103227.959893","NA","NA","NA","NA","NA","NA","NA","103994.991394","104760.925949","105527.660335","106277.876215","107044.159208","107810.563397","108577.069613","109343.636427","108586.556284","Mapping"
"Blocked","m160","done","21","m160cad.wav","space","589.027196169","162","103227.959893","110110.480569","NA","NA","NA","NA","NA","NA","103994.991394","104760.925949","105527.660335","106277.876215","107044.159208","107810.563397","108577.069613","109343.636427","109352.63615","Mapping"
"Blocked","m160","done","21","m160cave.wav","None","729.125630576","162","103227.959893","110110.480569","110877.080156","NA","NA","NA","NA","NA","103994.991394","104760.925949","105527.660335","106277.876215","107044.159208","107810.563397","108577.069613","109343.636427","110119.56717","Mapping"
"Blocked","m160","done","21","m160bluff.wav","None","728.558606934","162","103227.959893","110110.480569","110877.080156","111643.324193","NA","NA","NA","NA","103994.991394","104760.925949","105527.660335","106277.876215","107044.159208","107810.563397","108577.069613","109343.636427","110886.578266","Mapping"
"Blocked","m160","done","21","m160done.wav","None","730.369743425","162","103227.959893","110110.480569","110877.080156","111643.324193","112410.168026","NA","NA","NA","103994.991394","104760.925949","105527.660335","106277.876215","107044.159208","107810.563397","108577.069613","109343.636427","111652.103166","Mapping"
"Blocked","m160","done","21","m160depth.wav","space","306.54862849","162","103227.959893","110110.480569","110877.080156","111643.324193","112410.168026","113177.35195","NA","NA","103994.991394","104760.925949","105527.660335","106277.876215","107044.159208","107810.563397","108577.069613","109343.636427","112419.041606","Mapping"
"Blocked","m160","done","21","m160cling.wav","None","721.650749911","162","103227.959893","110110.480569","110877.080156","111643.324193","112410.168026","113177.35195","113944.001004","NA","103994.991394","104760.925949","105527.660335","106277.876215","107044.159208","107810.563397","108577.069613","109343.636427","113187.066172","Mapping"
"Blocked","m160","done","21","m160ball.wav","None","721.905199811","162","103227.959893","110110.480569","110877.080156","111643.324193","112410.168026","113177.35195","113944.001004","114710.907599","103994.991394","104760.925949","105527.660335","106277.876215","107044.159208","107810.563397","108577.069613","109343.636427","113953.540543","Mapping"
"Blocked","m160","ball","5","m160romp.wav","None","721.175241284","162","117910.740152","110110.480569","110877.080156","111643.324193","112410.168026","113177.35195","113944.001004","114710.907599","103994.991394","104760.925949","105527.660335","106277.876215","107044.159208","107810.563397","108577.069613","109343.636427","114720.867923","Mapping"
"Blocked","m160","ball","5","m160jaw.wav","None","723.51351846","162","117910.740152","110110.480569","110877.080156","111643.324193","112410.168026","113177.35195","113944.001004","114710.907599","118676.674397","104760.925949","105527.660335","106277.876215","107044.159208","107810.563397","108577.069613","109343.636427","117920.315864","Mapping"
"Blocked","m160","ball","5","m160greet.wav","None","725.317543838","162","117910.740152","110110.480569","110877.080156","111643.324193","112410.168026","113177.35195","113944.001004","114710.907599","118676.674397","119443.628605","105527.660335","106277.876215","107044.159208","107810.563397","108577.069613","109343.636427","118685.53561","Mapping"
"Blocked","m160","ball","5","m160ball.wav","None","724.749902263","162","117910.740152","110110.480569","110877.080156","111643.324193","112410.168026","113177.35195","113944.001004","114710.907599","118676.674397","119443.628605","120211.472305","106277.876215","107044.159208","107810.563397","108577.069613","109343.636427","119452.985732","Mapping"
"Blocked","m160","ball","5","m160knife.wav","space","416.584915947","162","117910.740152","110110.480569","110877.080156","111643.324193","112410.168026","113177.35195","113944.001004","114710.907599","118676.674397","119443.628605","120211.472305","120977.282262","107044.159208","107810.563397","108577.069613","109343.636427","120220.817064","Mapping"
"Blocked","m160","ball","5","m160ball.wav","None","720.73837975","162","117910.740152","110110.480569","110877.080156","111643.324193","112410.168026","113177.35195","113944.001004","114710.907599","118676.674397","119443.628605","120211.472305","120977.282262","121726.757054","107810.563397","108577.069613","109343.636427","120986.813454","Mapping"
"Blocked","m160","ball","5","m160jolt.wav","space","581.624971237","162","117910.740152","110110.480569","110877.080156","111643.324193","112410.168026","113177.35195","113944.001004","114710.907599","118676.674397","119443.628605","120211.472305","120977.282262","121726.757054","122493.445064","108577.069613","109343.636427","121735.803771","Mapping"
"Blocked","m160","ball","5","m160done.wav","None","731.660850346","162","117910.740152","110110.480569","110877.080156","111643.324193","112410.168026","113177.35195","113944.001004","114710.907599","118676.674397","119443.628605","120211.472305","120977.282262","121726.757054","122493.445064","123260.245304","109343.636427","122502.385735","Mapping"
"Blocked","m160","ball","5","m160romp.wav","None","728.209859226","162","117910.740152","110110.480569","110877.080156","111643.324193","112410.168026","113177.35195","113944.001004","114710.907599","118676.674397","119443.628605","120211.472305","120977.282262","121726.757054","122493.445064","123260.245304","124027.278352","123269.265742","Mapping"
"Blocked","m160","ball","5","m160ball.wav","None","724.022726528","162","117910.740152","124793.837745","110877.080156","111643.324193","112410.168026","113177.35195","113944.001004","114710.907599","118676.674397","119443.628605","120211.472305","120977.282262","121726.757054","122493.445064","123260.245304","124027.278352","124036.600542","Mapping"
"Blocked","m160","ball","5","m160dime.wav","space","362.099013757","162","117910.740152","124793.837745","125543.333252","111643.324193","112410.168026","113177.35195","113944.001004","114710.907599","118676.674397","119443.628605","120211.472305","120977.282262","121726.757054","122493.445064","123260.245304","124027.278352","124803.258253","Mapping"
"Blocked","m160","ball","5","m160cling.wav","None","734.451756813","162","117910.740152","124793.837745","125543.333252","126310.213568","112410.168026","113177.35195","113944.001004","114710.907599","118676.674397","119443.628605","120211.472305","120977.282262","121726.757054","122493.445064","123260.245304","124027.278352","125552.352453","Mapping"
"Blocked","m160","ball","5","m160tile.wav","None","731.204511132","162","117910.740152","124793.837745","125543.333252","126310.213568","127076.764614","113177.35195","113944.001004","114710.907599","118676.674397","119443.628605","120211.472305","120977.282262","121726.757054","122493.445064","123260.245304","124027.278352","126319.06767","Mapping"
"Blocked","m160","ball","5","m160lash.wav","None","727.795567364","162","117910.740152","124793.837745","125543.333252","126310.213568","127076.764614","127843.728716","113944.001004","114710.907599","118676.674397","119443.628605","120211.472305","120977.282262","121726.757054","122493.445064","123260.245304","124027.278352","127085.818442","Mapping"
"Blocked","m160","ball","5","m160ball.wav","None","723.926264793","162","117910.740152","124793.837745","125543.333252","126310.213568","127076.764614","127843.728716","128610.721879","114710.907599","118676.674397","119443.628605","120211.472305","120977.282262","121726.757054","122493.445064","123260.245304","124027.278352","127853.038848","Mapping"
"Blocked","m160","ball","5","m160cling.wav","space","385.059143417","162","117910.740152","124793.837745","125543.333252","126310.213568","127076.764614","127843.728716","128610.721879","129359.81948","118676.674397","119443.628605","120211.472305","120977.282262","121726.757054","122493.445064","123260.245304","124027.278352","128620.228337","Mapping"
"Blocked","m160","done","24","m160dime.wav","None","734.839460347","162","132493.554821","124793.837745","125543.333252","126310.213568","127076.764614","127843.728716","128610.721879","129359.81948","118676.674397","119443.628605","120211.472305","120977.282262","121726.757054","122493.445064","123260.245304","124027.278352","129368.737272","Mapping"
"Blocked","m160","done","24","m160priest.wav","None","719.828173984","162","132493.554821","124793.837745","125543.333252","126310.213568","127076.764614","127843.728716","128610.721879","129359.81948","133260.403601","119443.628605","120211.472305","120977.282262","121726.757054","122493.445064","123260.245304","124027.278352","132503.133006","Mapping"
"Blocked","m160","done","24","m160cad.wav","None","719.214774668","162","132493.554821","124793.837745","125543.333252","126310.213568","127076.764614","127843.728716","128610.721879","129359.81948","133260.403601","134010.088012","120211.472305","120977.282262","121726.757054","122493.445064","123260.245304","124027.278352","133270.551593","Mapping"
"Blocked","m160","done","24","m160tile.wav","None","733.728601132","162","132493.554821","124793.837745","125543.333252","126310.213568","127076.764614","127843.728716","128610.721879","129359.81948","133260.403601","134010.088012","134776.621127","120977.282262","121726.757054","122493.445064","123260.245304","124027.278352","134019.117725","Mapping"
"Blocked","m160","done","24","m160romp.wav","None","730.652946047","162","132493.554821","124793.837745","125543.333252","126310.213568","127076.764614","127843.728716","128610.721879","129359.81948","133260.403601","134010.088012","134776.621127","135543.193196","121726.757054","122493.445064","123260.245304","124027.278352","134785.765542","Mapping"
"Blocked","m160","done","24","m160tile.wav","None","727.273373399","162","132493.554821","124793.837745","125543.333252","126310.213568","127076.764614","127843.728716","128610.721879","129359.81948","133260.403601","134010.088012","134776.621127","135543.193196","136310.700206","122493.445064","123260.245304","124027.278352","135552.396974","Mapping"
"Blocked","m160","done","24","m160done.wav","None","722.897336353","162","132493.554821","124793.837745","125543.333252","126310.213568","127076.764614","127843.728716","128610.721879","129359.81948","133260.403601","134010.088012","134776.621127","135543.193196","136310.700206","137077.049053","123260.245304","124027.278352","136320.145756","Mapping"
"Blocked","m160","done","24","m160lash.wav","space","374.587446917","162","132493.554821","124793.837745","125543.333252","126310.213568","127076.764614","127843.728716","128610.721879","129359.81948","133260.403601","134010.088012","134776.621127","135543.193196","136310.700206","137077.049053","137826.311134","124027.278352","137086.550564","Mapping"
"Blocked","m160","done","24","m160done.wav","None","734.494423028","162","132493.554821","124793.837745","125543.333252","126310.213568","127076.764614","127843.728716","128610.721879","129359.81948","133260.403601","134010.088012","134776.621127","135543.193196","136310.700206","137077.049053","137826.311134","138593.13889","137835.076813","Mapping"
"Blocked","m160","done","24","m160ball.wav","space","523.108687252","162","132493.554821","139359.938821","125543.333252","126310.213568","127076.764614","127843.728716","128610.721879","129359.81948","133260.403601","134010.088012","134776.621127","135543.193196","136310.700206","137077.049053","137826.311134","138593.13889","138602.092855","Mapping"
"Blocked","m160","done","24","m160greet.wav","None","726.975330617","162","132493.554821","139359.938821","140126.468534","126310.213568","127076.764614","127843.728716","128610.721879","129359.81948","133260.403601","134010.088012","134776.621127","135543.193196","136310.700206","137077.049053","137826.311134","138593.13889","139368.795705","Mapping"
"Blocked","m160","done","24","m160done.wav","None","723.692220636","162","132493.554821","139359.938821","140126.468534","140893.426452","127076.764614","127843.728716","128610.721879","129359.81948","133260.403601","134010.088012","134776.621127","135543.193196","136310.700206","137077.049053","137826.311134","138593.13889","140135.233285","Mapping"
"Blocked","m160","done","24","m160gnash.wav","space","453.983124346","162","132493.554821","139359.938821","140126.468534","140893.426452","141660.324081","127843.728716","128610.721879","129359.81948","133260.403601","134010.088012","134776.621127","135543.193196","136310.700206","137077.049053","137826.311134","138593.13889","140903.061835","Mapping"
"Blocked","m160","done","24","m160dime.wav","None","721.494308207","162","132493.554821","139359.938821","140126.468534","140893.426452","141660.324081","142409.953151","128610.721879","129359.81948","133260.403601","134010.088012","134776.621127","135543.193196","136310.700206","137077.049053","137826.311134","138593.13889","141669.890828","Mapping"
"Blocked","m160","done","24","m160done.wav","space","402.11653756","162","132493.554821","139359.938821","140126.468534","140893.426452","141660.324081","142409.953151","143176.468952","129359.81948","133260.403601","134010.088012","134776.621127","135543.193196","136310.700206","137077.049053","137826.311134","138593.13889","142418.951328","Mapping"
"Blocked","m160","done","24","m160cad.wav","None","730.579981115","162","132493.554821","139359.938821","140126.468534","140893.426452","141660.324081","142409.953151","143176.468952","143943.049678","133260.403601","134010.088012","134776.621127","135543.193196","136310.700206","137077.049053","137826.311134","138593.13889","143187.599805","Mapping"
"Blocked","m160","tile","14","m160reek.wav","space","0.0358638353646","162","147076.375365","139359.938821","140126.468534","140893.426452","141660.324081","142409.953151","143176.468952","143943.049678","133260.403601","134010.088012","134776.621127","135543.193196","136310.700206","137077.049053","137826.311134","138593.13889","143951.769599","Mapping"
"Blocked","m160","tile","14","m160gnash.wav","None","725.104214624","162","147076.375365","139359.938821","140126.468534","140893.426452","141660.324081","142409.953151","143176.468952","143943.049678","147843.368528","134010.088012","134776.621127","135543.193196","136310.700206","137077.049053","137826.311134","138593.13889","147085.381271","Mapping"
"Blocked","m160","tile","14","m160jaw.wav","None","721.359509043","162","147076.375365","139359.938821","140126.468534","140893.426452","141660.324081","142409.953151","143176.468952","143943.049678","147843.368528","148592.726144","134776.621127","135543.193196","136310.700206","137077.049053","137826.311134","138593.13889","147852.657946","Mapping"
"Blocked","m160","tile","14","m160jaw.wav","None","735.672682058","162","147076.375365","139359.938821","140126.468534","140893.426452","141660.324081","142409.953151","143176.468952","143943.049678","147843.368528","148592.726144","149359.708177","135543.193196","136310.700206","137077.049053","137826.311134","138593.13889","148601.794194","Mapping"
"Blocked","m160","tile","14","m160tile.wav","None","732.242096215","162","147076.375365","139359.938821","140126.468534","140893.426452","141660.324081","142409.953151","143176.468952","143943.049678","147843.368528","148592.726144","149359.708177","150126.337754","136310.700206","137077.049053","137826.311134","138593.13889","149368.817966","Mapping"
"Blocked","m160","tile","14","m160knife.wav","space","469.424471259","162","147076.375365","139359.938821","140126.468534","140893.426452","141660.324081","142409.953151","143176.468952","143943.049678","147843.368528","148592.726144","149359.708177","150126.337754","150892.89993","137077.049053","137826.311134","138593.13889","150135.47815","Mapping"
"Blocked","m160","tile","14","m160tile.wav","None","726.144582499","162","147076.375365","139359.938821","140126.468534","140893.426452","141660.324081","142409.953151","143176.468952","143943.049678","147843.368528","148592.726144","149359.708177","150126.337754","150892.89993","151660.156819","137826.311134","138593.13889","150901.785877","Mapping"
"Blocked","m160","tile","14","m160jaw.wav","space","454.978044145","162","147076.375365","139359.938821","140126.468534","140893.426452","141660.324081","142409.953151","143176.468952","143943.049678","147843.368528","148592.726144","149359.708177","150126.337754","150892.89993","151660.156819","152409.980667","138593.13889","151669.886808","Mapping"
"Blocked","m160","tile","14","m160tile.wav","None","736.263202969","162","147076.375365","139359.938821","140126.468534","140893.426452","141660.324081","142409.953151","143176.468952","143943.049678","147843.368528","148592.726144","149359.708177","150126.337754","150892.89993","151660.156819","152409.980667","153176.247892","152418.983791","Mapping"
"Blocked","m160","tile","14","m160cad.wav","space","370.960845146","162","147076.375365","153942.789045","140126.468534","140893.426452","141660.324081","142409.953151","143176.468952","143943.049678","147843.368528","148592.726144","149359.708177","150126.337754","150892.89993","151660.156819","152409.980667","153176.247892","153185.852049","Mapping"
"Blocked","m160","tile","14","m160romp.wav","None","730.342536233","162","147076.375365","153942.789045","154709.618038","140893.426452","141660.324081","142409.953151","143176.468952","143943.049678","147843.368528","148592.726144","149359.708177","150126.337754","150892.89993","151660.156819","152409.980667","153176.247892","153951.524116","Mapping"
"Blocked","m160","tile","14","m160knife.wav","None","726.882578805","162","147076.375365","153942.789045","154709.618038","155476.353351","141660.324081","142409.953151","143176.468952","143943.049678","147843.368528","148592.726144","149359.708177","150126.337754","150892.89993","151660.156819","152409.980667","153176.247892","154718.528719","Mapping"
"Blocked","m160","tile","14","m160lash.wav","None","723.417365458","162","147076.375365","153942.789045","154709.618038","155476.353351","156243.200586","142409.953151","143176.468952","143943.049678","147843.368528","148592.726144","149359.708177","150126.337754","150892.89993","151660.156819","152409.980667","153176.247892","155485.66874","Mapping"
"Blocked","m160","tile","14","m160lash.wav","None","719.642360695","162","147076.375365","153942.789045","154709.618038","155476.353351","156243.200586","156992.744942","143176.468952","143943.049678","147843.368528","148592.726144","149359.708177","150126.337754","150892.89993","151660.156819","152409.980667","153176.247892","156253.039404","Mapping"
"Blocked","m160","tile","14","m160tile.wav","None","734.545127489","162","147076.375365","153942.789045","154709.618038","155476.353351","156243.200586","156992.744942","157759.68771","143943.049678","147843.368528","148592.726144","149359.708177","150126.337754","150892.89993","151660.156819","152409.980667","153176.247892","157001.638618","Mapping"
"Blocked","m160","tile","14","m160dime.wav","space","420.119074639","162","147076.375365","153942.789045","154709.618038","155476.353351","156243.200586","156992.744942","157759.68771","158526.171975","147843.368528","148592.726144","149359.708177","150126.337754","150892.89993","151660.156819","152409.980667","153176.247892","157768.676612","Mapping"
"Blocked","m160","tile","16","m160priest.wav","None","727.667878848","162","161643.04099","153942.789045","154709.618038","155476.353351","156243.200586","156992.744942","157759.68771","158526.171975","147843.368528","148592.726144","149359.708177","150126.337754","150892.89993","151660.156819","152409.980667","153176.247892","158535.338651","Mapping"
"Blocked","m160","tile","16","m160gnash.wav","None","720.005948562","162","161643.04099","153942.789045","154709.618038","155476.353351","156243.200586","156992.744942","157759.68771","158526.171975","162392.639761","148592.726144","149359.708177","150126.337754","150892.89993","151660.156819","152409.980667","153176.247892","161652.571564","Mapping"
"Blocked","m160","tile","16","m160done.wav","None","734.486693516","162","161643.04099","153942.789045","154709.618038","155476.353351","156243.200586","156992.744942","157759.68771","158526.171975","162392.639761","163159.546665","149359.708177","150126.337754","150892.89993","151660.156819","152409.980667","153176.247892","162401.5996","Mapping"
"Blocked","m160","tile","16","m160cave.wav","None","731.13618372","162","161643.04099","153942.789045","154709.618038","155476.353351","156243.200586","156992.744942","157759.68771","158526.171975","162392.639761","163159.546665","163926.079161","150126.337754","150892.89993","151660.156819","152409.980667","153176.247892","163168.641304","Mapping"
"Blocked","m160","tile","16","m160tile.wav","None","727.692303713","162","161643.04099","153942.789045","154709.618038","155476.353351","156243.200586","156992.744942","157759.68771","158526.171975","162392.639761","163159.546665","163926.079161","164692.518287","150892.89993","151660.156819","152409.980667","153176.247892","163935.63756","Mapping"
"Blocked","m160","tile","16","m160bluff.wav","space","463.254301343","162","161643.04099","153942.789045","154709.618038","155476.353351","156243.200586","156992.744942","157759.68771","158526.171975","162392.639761","163159.546665","163926.079161","164692.518287","165459.737766","151660.156819","152409.980667","153176.247892","164701.396195","Mapping"
"Blocked","m160","tile","16","m160tile.wav","None","721.243259963","162","161643.04099","153942.789045","154709.618038","155476.353351","156243.200586","156992.744942","157759.68771","158526.171975","162392.639761","163159.546665","163926.079161","164692.518287","165459.737766","166209.349521","152409.980667","153176.247892","165468.874143","Mapping"
"Blocked","m160","tile","16","m160jolt.wav","space","522.114385851","162","161643.04099","153942.789045","154709.618038","155476.353351","156243.200586","156992.744942","157759.68771","158526.171975","162392.639761","163159.546665","163926.079161","164692.518287","165459.737766","166209.349521","166976.028565","153176.247892","166218.459619","Mapping"
"Blocked","m160","tile","16","m160tile.wav","None","731.153497472","162","161643.04099","153942.789045","154709.618038","155476.353351","156243.200586","156992.744942","157759.68771","158526.171975","162392.639761","163159.546665","163926.079161","164692.518287","165459.737766","166209.349521","166976.028565","167742.647011","166985.578925","Mapping"
"Blocked","m160","tile","16","m160cling.wav","space","373.083628714","162","161643.04099","168509.244124","154709.618038","155476.353351","156243.200586","156992.744942","157759.68771","158526.171975","162392.639761","163159.546665","163926.079161","164692.518287","165459.737766","166209.349521","166976.028565","167742.647011","167751.545634","Mapping"
"Blocked","m160","tile","16","m160depth.wav","None","725.016409531","162","161643.04099","168509.244124","169276.142063","155476.353351","156243.200586","156992.744942","157759.68771","158526.171975","162392.639761","163159.546665","163926.079161","164692.518287","165459.737766","166209.349521","166976.028565","167742.647011","168518.444191","Mapping"
"Blocked","m160","tile","16","m160tile.wav","None","721.439275425","162","161643.04099","168509.244124","169276.142063","170025.805759","156243.200586","156992.744942","157759.68771","158526.171975","162392.639761","163159.546665","163926.079161","164692.518287","165459.737766","166209.349521","166976.028565","167742.647011","169285.577101","Mapping"
"Blocked","m160","tile","16","m160reek.wav","space","457.702478394","162","161643.04099","168509.244124","169276.142063","170025.805759","170792.634134","156992.744942","157759.68771","158526.171975","162392.639761","163159.546665","163926.079161","164692.518287","165459.737766","166209.349521","166976.028565","167742.647011","170034.829597","Mapping"
"Blocked","m160","tile","16","m160bluff.wav","None","732.14346962","162","161643.04099","168509.244124","169276.142063","170025.805759","170792.634134","171559.412113","157759.68771","158526.171975","162392.639761","163159.546665","163926.079161","164692.518287","165459.737766","166209.349521","166976.028565","167742.647011","170801.518535","Mapping"
"Blocked","m160","tile","16","m160cad.wav","None","728.900243063","162","161643.04099","168509.244124","169276.142063","170025.805759","170792.634134","171559.412113","172325.711802","158526.171975","162392.639761","163159.546665","163926.079161","164692.518287","165459.737766","166209.349521","166976.028565","167742.647011","171568.413691","Mapping"
"Blocked","m160","tile","16","m160cling.wav","None","726.414181292","162","161643.04099","168509.244124","169276.142063","170025.805759","170792.634134","171559.412113","172325.711802","173092.700019","162392.639761","163159.546665","163926.079161","164692.518287","165459.737766","166209.349521","166976.028565","167742.647011","172334.646907","Mapping"
"Blocked","m160","tile","15","m160done.wav","None","722.509323619","162","176209.573981","168509.244124","169276.142063","170025.805759","170792.634134","171559.412113","172325.711802","173092.700019","162392.639761","163159.546665","163926.079161","164692.518287","165459.737766","166209.349521","166976.028565","167742.647011","173102.184525","Mapping"
"Blocked","m160","tile","15","m160tile.wav","None","719.349264633","162","176209.573981","168509.244124","169276.142063","170025.805759","170792.634134","171559.412113","172325.711802","173092.700019","176959.156984","163159.546665","163926.079161","164692.518287","165459.737766","166209.349521","166976.028565","167742.647011","176219.160205","Mapping"
"Blocked","m160","tile","15","m160lash.wav","space","356.327987276","162","176209.573981","168509.244124","169276.142063","170025.805759","170792.634134","171559.412113","172325.711802","173092.700019","176959.156984","177725.839429","163926.079161","164692.518287","165459.737766","166209.349521","166976.028565","167742.647011","176968.129499","Mapping"
"Blocked","m160","tile","15","m160greet.wav","None","730.100762565","162","176209.573981","168509.244124","169276.142063","170025.805759","170792.634134","171559.412113","172325.711802","173092.700019","176959.156984","177725.839429","178492.50425","164692.518287","165459.737766","166209.349521","166976.028565","167742.647011","177735.347741","Mapping"
"Blocked","m160","tile","15","m160bluff.wav","None","727.734351065","162","176209.573981","168509.244124","169276.142063","170025.805759","170792.634134","171559.412113","172325.711802","173092.700019","176959.156984","177725.839429","178492.50425","179259.653547","165459.737766","166209.349521","166976.028565","167742.647011","178501.346604","Mapping"
"Blocked","m160","tile","15","m160priest.wav","None","723.543199245","162","176209.573981","168509.244124","169276.142063","170025.805759","170792.634134","171559.412113","172325.711802","173092.700019","176959.156984","177725.839429","178492.50425","179259.653547","180026.014761","166209.349521","166976.028565","167742.647011","179269.134961","Mapping"
"Blocked","m160","tile","15","m160priest.wav","None","721.12422809","162","176209.573981","168509.244124","169276.142063","170025.805759","170792.634134","171559.412113","172325.711802","173092.700019","176959.156984","177725.839429","178492.50425","179259.653547","180026.014761","180775.552315","166976.028565","167742.647011","180035.353337","Mapping"
"Blocked","m160","tile","15","m160tile.wav","None","735.699270852","162","176209.573981","168509.244124","169276.142063","170025.805759","170792.634134","171559.412113","172325.711802","173092.700019","176959.156984","177725.839429","178492.50425","179259.653547","180026.014761","180775.552315","181542.385945","167742.647011","180784.553274","Mapping"
"Blocked","m160","tile","15","m160bluff.wav","space","381.073282566","162","176209.573981","168509.244124","169276.142063","170025.805759","170792.634134","171559.412113","172325.711802","173092.700019","176959.156984","177725.839429","178492.50425","179259.653547","180026.014761","180775.552315","181542.385945","182309.1732","181551.260762","Mapping"
"Blocked","m160","tile","15","m160tile.wav","None","729.82343426","162","176209.573981","183075.77495","169276.142063","170025.805759","170792.634134","171559.412113","172325.711802","173092.700019","176959.156984","177725.839429","178492.50425","179259.653547","180026.014761","180775.552315","181542.385945","182309.1732","182318.203531","Mapping"
"Blocked","m160","tile","15","m160jaw.wav","space","502.904527355","162","176209.573981","183075.77495","183842.771824","170025.805759","170792.634134","171559.412113","172325.711802","173092.700019","176959.156984","177725.839429","178492.50425","179259.653547","180026.014761","180775.552315","181542.385945","182309.1732","183085.404768","Mapping"
"Blocked","m160","tile","15","m160tile.wav","None","722.393692937","162","176209.573981","183075.77495","183842.771824","184609.66729","170792.634134","171559.412113","172325.711802","173092.700019","176959.156984","177725.839429","178492.50425","179259.653547","180026.014761","180775.552315","181542.385945","182309.1732","183852.24551","Mapping"
"Blocked","m160","tile","15","m160priest.wav","space","553.113946225","162","176209.573981","183075.77495","183842.771824","184609.66729","185359.168052","171559.412113","172325.711802","173092.700019","176959.156984","177725.839429","178492.50425","179259.653547","180026.014761","180775.552315","181542.385945","182309.1732","184619.175911","Mapping"
"Blocked","m160","tile","15","m160cave.wav","None","733.256802429","162","176209.573981","183075.77495","183842.771824","184609.66729","185359.168052","186125.461557","172325.711802","173092.700019","176959.156984","177725.839429","178492.50425","179259.653547","180026.014761","180775.552315","181542.385945","182309.1732","185368.407075","Mapping"
"Blocked","m160","tile","15","m160dime.wav","None","731.04404984","162","176209.573981","183075.77495","183842.771824","184609.66729","185359.168052","186125.461557","186892.348365","173092.700019","176959.156984","177725.839429","178492.50425","179259.653547","180026.014761","180775.552315","181542.385945","182309.1732","186134.306693","Mapping"
"Blocked","m160","tile","15","m160jolt.wav","None","727.891101968","162","176209.573981","183075.77495","183842.771824","184609.66729","185359.168052","186125.461557","186892.348365","187658.868494","176959.156984","177725.839429","178492.50425","179259.653547","180026.014761","180775.552315","181542.385945","182309.1732","186901.230602","Mapping"
"Blocked","m160","done","22","m160park.wav","None","725.745749194","162","190776.048847","183075.77495","183842.771824","184609.66729","185359.168052","186125.461557","186892.348365","187658.868494","176959.156984","177725.839429","178492.50425","179259.653547","180026.014761","180775.552315","181542.385945","182309.1732","187667.803599","Mapping"
"Blocked","m160","done","22","m160tile.wav","None","722.948350012","162","190776.048847","183075.77495","183842.771824","184609.66729","185359.168052","186125.461557","186892.348365","187658.868494","191542.944621","177725.839429","178492.50425","179259.653547","180026.014761","180775.552315","181542.385945","182309.1732","190785.941462","Mapping"
"Blocked","m160","done","22","m160jaw.wav","None","720.225461293","162","190776.048847","183075.77495","183842.771824","184609.66729","185359.168052","186125.461557","186892.348365","187658.868494","191542.944621","192292.28585","178492.50425","179259.653547","180026.014761","180775.552315","181542.385945","182309.1732","191552.196011","Mapping"
"Blocked","m160","done","22","m160done.wav","None","734.883980826","162","190776.048847","183075.77495","183842.771824","184609.66729","185359.168052","186125.461557","186892.348365","187658.868494","191542.944621","192292.28585","193059.022401","179259.653547","180026.014761","180775.552315","181542.385945","182309.1732","192301.229304","Mapping"
"Blocked","m160","done","22","m160tile.wav","space","632.176953834","162","190776.048847","183075.77495","183842.771824","184609.66729","185359.168052","186125.461557","186892.348365","187658.868494","191542.944621","192292.28585","193059.022401","193825.545312","180026.014761","180775.552315","181542.385945","182309.1732","193067.926588","Mapping"
"Blocked","m160","done","22","m160done.wav","None","727.480210364","162","190776.048847","183075.77495","183842.771824","184609.66729","185359.168052","186125.461557","186892.348365","187658.868494","191542.944621","192292.28585","193059.022401","193825.545312","194592.527037","180775.552315","181542.385945","182309.1732","193835.110203","Mapping"
"Blocked","m160","done","22","m160jaw.wav","space","623.424569145","162","190776.048847","183075.77495","183842.771824","184609.66729","185359.168052","186125.461557","186892.348365","187658.868494","191542.944621","192292.28585","193059.022401","193825.545312","194592.527037","195359.301615","181542.385945","182309.1732","194596.633784","Mapping"
"Blocked","m160","done","22","m160done.wav","None","719.869294204","162","190776.048847","183075.77495","183842.771824","184609.66729","185359.168052","186125.461557","186892.348365","187658.868494","191542.944621","192292.28585","193059.022401","193825.545312","194592.527037","195359.301615","196108.649646","182309.1732","195369.637275","Mapping"
"Blocked","m160","done","22","m160tile.wav","space","382.265144959","162","190776.048847","183075.77495","183842.771824","184609.66729","185359.168052","186125.461557","186892.348365","187658.868494","191542.944621","192292.28585","193059.022401","193825.545312","194592.527037","195359.301615","196108.649646","196875.486059","196117.816322","Mapping"
"Blocked","m160","done","22","m160gnash.wav","None","731.761641335","162","190776.048847","197642.071114","183842.771824","184609.66729","185359.168052","186125.461557","186892.348365","187658.868494","191542.944621","192292.28585","193059.022401","193825.545312","194592.527037","195359.301615","196108.649646","196875.486059","196884.492892","Mapping"
"Blocked","m160","done","22","m160done.wav","None","729.558472987","162","190776.048847","197642.071114","198408.947101","184609.66729","185359.168052","186125.461557","186892.348365","187658.868494","191542.944621","192292.28585","193059.022401","193825.545312","194592.527037","195359.301615","196108.649646","196875.486059","197651.042084","Mapping"
"Blocked","m160","done","22","m160lash.wav","space","450.086923782","162","190776.048847","197642.071114","198408.947101","199175.950468","185359.168052","186125.461557","186892.348365","187658.868494","191542.944621","192292.28585","193059.022401","193825.545312","194592.527037","195359.301615","196108.649646","196875.486059","198417.94466","Mapping"
"Blocked","m160","done","22","m160lash.wav","None","721.531408839","162","190776.048847","197642.071114","198408.947101","199175.950468","199941.958297","186125.461557","186892.348365","187658.868494","191542.944621","192292.28585","193059.022401","193825.545312","194592.527037","195359.301615","196108.649646","196875.486059","199185.730544","Mapping"
"Blocked","m160","done","22","m160gnash.wav","None","719.77994265","162","190776.048847","197642.071114","198408.947101","199175.950468","199941.958297","200691.797913","186892.348365","187658.868494","191542.944621","192292.28585","193059.022401","193825.545312","194592.527037","195359.301615","196108.649646","196875.486059","199951.27956","Mapping"
"Blocked","m160","done","22","m160ball.wav","None","734.07518398","162","190776.048847","197642.071114","198408.947101","199175.950468","199941.958297","200691.797913","201458.787985","187658.868494","191542.944621","192292.28585","193059.022401","193825.545312","194592.527037","195359.301615","196108.649646","196875.486059","200700.834737","Mapping"
"Blocked","m160","done","22","m160lash.wav","None","730.85854575","162","190776.048847","197642.071114","198408.947101","199175.950468","199941.958297","200691.797913","201458.787985","202225.378915","191542.944621","192292.28585","193059.022401","193825.545312","194592.527037","195359.301615","196108.649646","196875.486059","201467.866547","Mapping"
"Blocked","m160","cave","10","m160jolt.wav","None","728.134730365","162","205359.017485","197642.071114","198408.947101","199175.950468","199941.958297","200691.797913","201458.787985","202225.378915","191542.944621","192292.28585","193059.022401","193825.545312","194592.527037","195359.301615","196108.649646","196875.486059","202234.388222","Mapping"
"Blocked","m160","cave","10","m160cave.wav","None","719.470151234","162","205359.017485","197642.071114","198408.947101","199175.950468","199941.958297","200691.797913","201458.787985","202225.378915","206108.764658","192292.28585","193059.022401","193825.545312","194592.527037","195359.301615","196108.649646","196875.486059","205368.530744","Mapping"
"Blocked","m160","cave","10","m160reek.wav","space","510.319119319","162","205359.017485","197642.071114","198408.947101","199175.950468","199941.958297","200691.797913","201458.787985","202225.378915","206108.764658","206875.44432","193059.022401","193825.545312","194592.527037","195359.301615","196108.649646","196875.486059","206117.591244","Mapping"
"Blocked","m160","cave","10","m160reek.wav","None","729.779222514","162","205359.017485","197642.071114","198408.947101","199175.950468","199941.958297","200691.797913","201458.787985","202225.378915","206108.764658","206875.44432","207641.777399","193825.545312","194592.527037","195359.301615","196108.649646","196875.486059","206885.037656","Mapping"
"Blocked","m160","cave","10","m160tile.wav","None","730.755900498","162","205359.017485","197642.071114","198408.947101","199175.950468","199941.958297","200691.797913","201458.787985","202225.378915","206108.764658","206875.44432","207641.777399","208408.857441","194592.527037","195359.301615","196108.649646","196875.486059","207650.412607","Mapping"
"Blocked","m160","cave","10","m160knife.wav","None","727.236891165","162","205359.017485","197642.071114","198408.947101","199175.950468","199941.958297","200691.797913","201458.787985","202225.378915","206108.764658","206875.44432","207641.777399","208408.857441","209175.623363","195359.301615","196108.649646","196875.486059","208417.82872","Mapping"
"Blocked","m160","cave","10","m160cling.wav","None","723.415201064","162","205359.017485","197642.071114","198408.947101","199175.950468","199941.958297","200691.797913","201458.787985","202225.378915","206108.764658","206875.44432","207641.777399","208408.857441","209175.623363","209942.080111","196108.649646","196875.486059","209185.2909","Mapping"
"Blocked","m160","cave","10","m160done.wav","None","726.120157633","162","205359.017485","197642.071114","198408.947101","199175.950468","199941.958297","200691.797913","201458.787985","202225.378915","206108.764658","206875.44432","207641.777399","208408.857441","209175.623363","209942.080111","210691.739789","196875.486059","209946.346701","Mapping"
"Blocked","m160","cave","10","m160cave.wav","None","735.63929135","162","205359.017485","197642.071114","198408.947101","199175.950468","199941.958297","200691.797913","201458.787985","202225.378915","206108.764658","206875.44432","207641.777399","208408.857441","209175.623363","209942.080111","210691.739789","211458.687504","210700.688807","Mapping"
"Blocked","m160","cave","10","m160cad.wav","space","543.804122601","162","205359.017485","212225.16404","198408.947101","199175.950468","199941.958297","200691.797913","201458.787985","202225.378915","206108.764658","206875.44432","207641.777399","208408.857441","209175.623363","209942.080111","210691.739789","211458.687504","211468.00382","Mapping"
"Blocked","m160","cave","10","m160ball.wav","None","728.980628308","162","205359.017485","212225.16404","212991.812785","199175.950468","199941.958297","200691.797913","201458.787985","202225.378915","206108.764658","206875.44432","207641.777399","208408.857441","209175.623363","209942.080111","210691.739789","211458.687504","212234.225288","Mapping"
"Blocked","m160","cave","10","m160cave.wav","None","726.010710001","162","205359.017485","212225.16404","212991.812785","213758.690008","199941.958297","200691.797913","201458.787985","202225.378915","206108.764658","206875.44432","207641.777399","208408.857441","209175.623363","209942.080111","210691.739789","211458.687504","213000.774479","Mapping"
"Blocked","m160","cave","10","m160jaw.wav","None","722.557864152","162","205359.017485","212225.16404","212991.812785","213758.690008","214525.431815","200691.797913","201458.787985","202225.378915","206108.764658","206875.44432","207641.777399","208408.857441","209175.623363","209942.080111","210691.739789","211458.687504","213768.130303","Mapping"
"Blocked","m160","cave","10","m160tile.wav","None","719.853525981","162","205359.017485","212225.16404","212991.812785","213758.690008","214525.431815","215275.15209","201458.787985","202225.378915","206108.764658","206875.44432","207641.777399","208408.857441","209175.623363","209942.080111","210691.739789","211458.687504","214534.615495","Mapping"
"Blocked","m160","cave","10","m160cave.wav","None","733.715615701","162","205359.017485","212225.16404","212991.812785","213758.690008","214525.431815","215275.15209","216041.77672","202225.378915","206108.764658","206875.44432","207641.777399","208408.857441","209175.623363","209942.080111","210691.739789","211458.687504","215284.740169","Mapping"
"Blocked","m160","cave","10","m160ball.wav","None","731.530688703","162","205359.017485","212225.16404","212991.812785","213758.690008","214525.431815","215275.15209","216041.77672","216808.513269","206108.764658","206875.44432","207641.777399","208408.857441","209175.623363","209942.080111","210691.739789","211458.687504","216050.70255","Mapping"
"Blocked","m160","ball","2","m160priest.wav","None","728.521196637","162","219925.390324","212225.16404","212991.812785","213758.690008","214525.431815","215275.15209","216041.77672","216808.513269","206108.764658","206875.44432","207641.777399","208408.857441","209175.623363","209942.080111","210691.739789","211458.687504","216817.591213","Mapping"
"Blocked","m160","ball","2","m160cave.wav","space","0.0346275046468","162","219925.390324","212225.16404","212991.812785","213758.690008","214525.431815","215275.15209","216041.77672","216808.513269","220691.649819","206875.44432","207641.777399","208408.857441","209175.623363","209942.080111","210691.739789","211458.687504","219934.542159","Mapping"
"Blocked","m160","ball","2","m160priest.wav","None","733.021212742","162","219925.390324","212225.16404","212991.812785","213758.690008","214525.431815","215275.15209","216041.77672","216808.513269","220691.649819","221458.536937","207641.777399","208408.857441","209175.623363","209942.080111","210691.739789","211458.687504","220700.57936","Mapping"
"Blocked","m160","ball","2","m160reek.wav","None","729.919895995","162","219925.390324","212225.16404","212991.812785","213758.690008","214525.431815","215275.15209","216041.77672","216808.513269","220691.649819","221458.536937","222225.016873","208408.857441","209175.623363","209942.080111","210691.739789","211458.687504","221467.637759","Mapping"
"Blocked","m160","ball","2","m160ball.wav","None","727.172274143","162","219925.390324","212225.16404","212991.812785","213758.690008","214525.431815","215275.15209","216041.77672","216808.513269","220691.649819","221458.536937","222225.016873","222992.009109","209175.623363","209942.080111","210691.739789","211458.687504","222234.076885","Mapping"
"Blocked","m160","ball","2","m160reek.wav","space","506.172797643","162","219925.390324","212225.16404","212991.812785","213758.690008","214525.431815","215275.15209","216041.77672","216808.513269","220691.649819","221458.536937","222225.016873","222992.009109","223758.516253","209942.080111","210691.739789","211458.687504","223001.448167","Mapping"
"Blocked","m160","ball","2","m160done.wav","None","720.831750426","162","219925.390324","212225.16404","212991.812785","213758.690008","214525.431815","215275.15209","216041.77672","216808.513269","220691.649819","221458.536937","222225.016873","222992.009109","223758.516253","224508.243949","210691.739789","211458.687504","223767.622331","Mapping"
"Blocked","m160","ball","2","m160done.wav","None","734.934067354","162","219925.390324","212225.16404","212991.812785","213758.690008","214525.431815","215275.15209","216041.77672","216808.513269","220691.649819","221458.536937","222225.016873","222992.009109","223758.516253","224508.243949","225274.981736","211458.687504","224517.274898","Mapping"
"Blocked","m160","ball","2","m160ball.wav","None","732.144088484","162","219925.390324","212225.16404","212991.812785","213758.690008","214525.431815","215275.15209","216041.77672","216808.513269","220691.649819","221458.536937","222225.016873","222992.009109","223758.516253","224508.243949","225274.981736","226041.586578","225284.103272","Mapping"
"Blocked","m160","ball","2","m160jolt.wav","space","576.989227906","162","219925.390324","226808.334258","212991.812785","213758.690008","214525.431815","215275.15209","216041.77672","216808.513269","220691.649819","221458.536937","222225.016873","222992.009109","223758.516253","224508.243949","225274.981736","226041.586578","226050.532814","Mapping"
"Blocked","m160","ball","2","m160cad.wav","None","725.9621704","162","219925.390324","226808.334258","227575.170362","213758.690008","214525.431815","215275.15209","216041.77672","216808.513269","220691.649819","221458.536937","222225.016873","222992.009109","223758.516253","224508.243949","225274.981736","226041.586578","226817.403854","Mapping"
"Blocked","m160","ball","2","m160ball.wav","None","722.179745324","162","219925.390324","226808.334258","227575.170362","228342.062117","214525.431815","215275.15209","216041.77672","216808.513269","220691.649819","221458.536937","222225.016873","222992.009109","223758.516253","224508.243949","225274.981736","226041.586578","227584.915502","Mapping"
"Blocked","m160","ball","2","m160jaw.wav","None","719.076882582","162","219925.390324","226808.334258","227575.170362","228342.062117","229091.416022","215275.15209","216041.77672","216808.513269","220691.649819","221458.536937","222225.016873","222992.009109","223758.516253","224508.243949","225274.981736","226041.586578","228351.862599","Mapping"
"Blocked","m160","ball","2","m160ball.wav","space","213.660941459","162","219925.390324","226808.334258","227575.170362","228342.062117","229091.416022","229858.382907","216041.77672","216808.513269","220691.649819","221458.536937","222225.016873","222992.009109","223758.516253","224508.243949","225274.981736","226041.586578","229101.804551","Mapping"
"Blocked","m160","ball","2","m160cad.wav","space","600.135170389","162","219925.390324","226808.334258","227575.170362","228342.062117","229091.416022","229858.382907","230624.884794","216808.513269","220691.649819","221458.536937","222225.016873","222992.009109","223758.516253","224508.243949","225274.981736","226041.586578","229867.368408","Mapping"
"Blocked","m160","ball","2","m160park.wav","None","727.235036436","162","219925.390324","226808.334258","227575.170362","228342.062117","229091.416022","229858.382907","230624.884794","231391.804066","220691.649819","221458.536937","222225.016873","222992.009109","223758.516253","224508.243949","225274.981736","226041.586578","230633.771978","Mapping"
"Blocked","m160","done","20","m160depth.wav","None","723.673979286","162","234508.571981","226808.334258","227575.170362","228342.062117","229091.416022","229858.382907","230624.884794","231391.804066","220691.649819","221458.536937","222225.016873","222992.009109","223758.516253","224508.243949","225274.981736","226041.586578","231401.240341","Mapping"
"Blocked","m160","done","20","m160ball.wav","None","718.437512871","162","234508.571981","226808.334258","227575.170362","228342.062117","229091.416022","229858.382907","230624.884794","231391.804066","235257.962679","221458.536937","222225.016873","222992.009109","223758.516253","224508.243949","225274.981736","226041.586578","234519.036567","Mapping"
"Blocked","m160","done","20","m160done.wav","None","734.41341985","162","234508.571981","226808.334258","227575.170362","228342.062117","229091.416022","229858.382907","230624.884794","231391.804066","235257.962679","236024.901119","222225.016873","222992.009109","223758.516253","224508.243949","225274.981736","226041.586578","235267.038148","Mapping"
"Blocked","m160","done","20","m160priest.wav","space","416.932426859","162","234508.571981","226808.334258","227575.170362","228342.062117","229091.416022","229858.382907","230624.884794","231391.804066","235257.962679","236024.901119","236791.370852","222992.009109","223758.516253","224508.243949","225274.981736","226041.586578","236034.415615","Mapping"
"Blocked","m160","done","20","m160romp.wav","None","728.089591023","162","234508.571981","226808.334258","227575.170362","228342.062117","229091.416022","229858.382907","230624.884794","231391.804066","235257.962679","236024.901119","236791.370852","237558.208811","223758.516253","224508.243949","225274.981736","226041.586578","236800.311832","Mapping"
"Blocked","m160","done","20","m160depth.wav","None","724.849146791","162","234508.571981","226808.334258","227575.170362","228342.062117","229091.416022","229858.382907","230624.884794","231391.804066","235257.962679","236024.901119","236791.370852","237558.208811","238325.330282","224508.243949","225274.981736","226041.586578","237567.261093","Mapping"
"Blocked","m160","done","20","m160jaw.wav","None","721.335084178","162","234508.571981","226808.334258","227575.170362","228342.062117","229091.416022","229858.382907","230624.884794","231391.804066","235257.962679","236024.901119","236791.370852","237558.208811","238325.330282","239091.256798","225274.981736","226041.586578","238334.717708","Mapping"
"Blocked","m160","done","20","m160lash.wav","None","724.245949648","162","234508.571981","226808.334258","227575.170362","228342.062117","229091.416022","229858.382907","230624.884794","231391.804066","235257.962679","236024.901119","236791.370852","237558.208811","238325.330282","239091.256798","239858.189982","226041.586578","239099.993106","Mapping"
"Blocked","m160","done","20","m160done.wav","None","720.376028679","162","234508.571981","226808.334258","227575.170362","228342.062117","229091.416022","229858.382907","230624.884794","231391.804066","235257.962679","236024.901119","236791.370852","237558.208811","238325.330282","239091.256798","239858.189982","240607.9656","239867.837732","Mapping"
"Blocked","m160","done","20","m160reek.wav","space","346.238428727","162","234508.571981","241374.700914","227575.170362","228342.062117","229091.416022","229858.382907","230624.884794","231391.804066","235257.962679","236024.901119","236791.370852","237558.208811","238325.330282","239091.256798","239858.189982","240607.9656","240617.04478","Mapping"
"Blocked","m160","done","20","m160done.wav","None","731.416604016","162","234508.571981","241374.700914","242141.262162","228342.062117","229091.416022","229858.382907","230624.884794","231391.804066","235257.962679","236024.901119","236791.370852","237558.208811","238325.330282","239091.256798","239858.189982","240607.9656","241383.855841","Mapping"
"Blocked","m160","done","20","m160bluff.wav","space","557.126705069","162","234508.571981","241374.700914","242141.262162","242908.101049","229091.416022","229858.382907","230624.884794","231391.804066","235257.962679","236024.901119","236791.370852","237558.208811","238325.330282","239091.256798","239858.189982","240607.9656","242150.133887","Mapping"
"Blocked","m160","done","20","m160done.wav","None","725.397001486","162","234508.571981","241374.700914","242141.262162","242908.101049","243674.887685","229858.382907","230624.884794","231391.804066","235257.962679","236024.901119","236791.370852","237558.208811","238325.330282","239091.256798","239858.189982","240607.9656","242917.031517","Mapping"
"Blocked","m160","done","20","m160jolt.wav","space","366.654681042","162","234508.571981","241374.700914","242141.262162","242908.101049","243674.887685","244424.212219","230624.884794","231391.804066","235257.962679","236024.901119","236791.370852","237558.208811","238325.330282","239091.256798","239858.189982","240607.9656","243684.584284","Mapping"
"Blocked","m160","done","20","m160cling.wav","None","735.649493989","162","234508.571981","241374.700914","242141.262162","242908.101049","243674.887685","244424.212219","245191.029463","231391.804066","235257.962679","236024.901119","236791.370852","237558.208811","238325.330282","239091.256798","239858.189982","240607.9656","244433.810192","Mapping"
"Blocked","m160","done","20","m160reek.wav","None","733.722417615","162","234508.571981","241374.700914","242141.262162","242908.101049","243674.887685","244424.212219","245191.029463","245957.825066","235257.962679","236024.901119","236791.370852","237558.208811","238325.330282","239091.256798","239858.189982","240607.9656","245199.871507","Mapping"
"Blocked","m160","done","19","m160cling.wav","None","730.823919177","162","249091.501354","241374.700914","242141.262162","242908.101049","243674.887685","244424.212219","245191.029463","245957.825066","235257.962679","236024.901119","236791.370852","237558.208811","238325.330282","239091.256798","239858.189982","240607.9656","245967.016475","Mapping"
"Blocked","m160","done","19","m160reek.wav","None","720.056034159","162","249091.501354","241374.700914","242141.262162","242908.101049","243674.887685","244424.212219","245191.029463","245957.825066","249841.020358","236024.901119","236791.370852","237558.208811","238325.330282","239091.256798","239858.189982","240607.9656","249101.017087","Mapping"
"Blocked","m160","done","19","m160knife.wav","None","735.196864698","162","249091.501354","241374.700914","242141.262162","242908.101049","243674.887685","244424.212219","245191.029463","245957.825066","249841.020358","250608.053405","236791.370852","237558.208811","238325.330282","239091.256798","239858.189982","240607.9656","249849.989163","Mapping"
"Blocked","m160","done","19","m160gnash.wav","None","732.072359882","162","249091.501354","241374.700914","242141.262162","242908.101049","243674.887685","244424.212219","245191.029463","245957.825066","249841.020358","250608.053405","251374.576935","237558.208811","238325.330282","239091.256798","239858.189982","240607.9656","250617.073224","Mapping"
"Blocked","m160","done","19","m160done.wav","None","729.404195212","162","249091.501354","241374.700914","242141.262162","242908.101049","243674.887685","244424.212219","245191.029463","245957.825066","249841.020358","250608.053405","251374.576935","252141.131691","238325.330282","239091.256798","239858.189982","240607.9656","251383.824306","Mapping"
"Blocked","m160","done","19","m160lash.wav","space","348.995944485","162","249091.501354","241374.700914","242141.262162","242908.101049","243674.887685","244424.212219","245191.029463","245957.825066","249841.020358","250608.053405","251374.576935","252141.131691","252908.239868","239091.256798","239858.189982","240607.9656","252150.051338","Mapping"
"Blocked","m160","done","19","m160cave.wav","None","722.474077716","162","249091.501354","241374.700914","242141.262162","242908.101049","243674.887685","244424.212219","245191.029463","245957.825066","249841.020358","250608.053405","251374.576935","252141.131691","252908.239868","253674.777001","239858.189982","240607.9656","252917.778789","Mapping"
"Blocked","m160","done","19","m160cad.wav","None","719.956171699","162","249091.501354","241374.700914","242141.262162","242908.101049","243674.887685","244424.212219","245191.029463","245957.825066","249841.020358","250608.053405","251374.576935","252141.131691","252908.239868","253674.777001","254424.427713","240607.9656","253684.336636","Mapping"
"Blocked","m160","done","19","m160done.wav","None","734.934685752","162","249091.501354","241374.700914","242141.262162","242908.101049","243674.887685","244424.212219","245191.029463","245957.825066","249841.020358","250608.053405","251374.576935","252141.131691","252908.239868","253674.777001","254424.427713","255191.034719","254433.461444","Mapping"
"Blocked","m160","done","19","m160ball.wav","space","298.665021081","162","249091.501354","255957.59164","242141.262162","242908.101049","243674.887685","244424.212219","245191.029463","245957.825066","249841.020358","250608.053405","251374.576935","252141.131691","252908.239868","253674.777001","254424.427713","255191.034719","255200.373296","Mapping"
"Blocked","m160","done","19","m160park.wav","None","729.007217102","162","249091.501354","255957.59164","256724.421869","242908.101049","243674.887685","244424.212219","245191.029463","245957.825066","249841.020358","250608.053405","251374.576935","252141.131691","252908.239868","253674.777001","254424.427713","255191.034719","255966.461819","Mapping"
"Blocked","m160","done","19","m160jolt.wav","None","726.171171293","162","249091.501354","255957.59164","256724.421869","257491.364947","243674.887685","244424.212219","245191.029463","245957.825066","249841.020358","250608.053405","251374.576935","252141.131691","252908.239868","253674.777001","254424.427713","255191.034719","256733.5196","Mapping"
"Blocked","m160","done","19","m160done.wav","None","723.100462928","162","249091.501354","255957.59164","256724.421869","257491.364947","258258.154675","244424.212219","245191.029463","245957.825066","249841.020358","250608.053405","251374.576935","252141.131691","252908.239868","253674.777001","254424.427713","255191.034719","257500.815753","Mapping"
"Blocked","m160","done","19","m160ball.wav","space","327.250247356","162","249091.501354","255957.59164","256724.421869","257491.364947","258258.154675","259007.492503","245191.029463","245957.825066","249841.020358","250608.053405","251374.576935","252141.131691","252908.239868","253674.777001","254424.427713","255191.034719","258267.752339","Mapping"
"Blocked","m160","done","19","m160done.wav","None","734.556566924","162","249091.501354","255957.59164","256724.421869","257491.364947","258258.154675","259007.492503","259774.348703","245957.825066","249841.020358","250608.053405","251374.576935","252141.131691","252908.239868","253674.777001","254424.427713","255191.034719","259016.426681","Mapping"
"Blocked","m160","done","19","m160gnash.wav","None","731.601180043","162","249091.501354","255957.59164","256724.421869","257491.364947","258258.154675","259007.492503","259774.348703","260540.942725","249841.020358","250608.053405","251374.576935","252141.131691","252908.239868","253674.777001","254424.427713","255191.034719","259783.366358","Mapping"
"Blocked","m160","ball","6","m160jaw.wav","None","729.253627826","162","263674.316333","255957.59164","256724.421869","257491.364947","258258.154675","259007.492503","259774.348703","260540.942725","249841.020358","250608.053405","251374.576935","252141.131691","252908.239868","253674.777001","254424.427713","255191.034719","260549.904728","Mapping"
"Blocked","m160","ball","6","m160ball.wav","None","720.347585157","162","263674.316333","255957.59164","256724.421869","257491.364947","258258.154675","259007.492503","259774.348703","260540.942725","264424.209746","250608.053405","251374.576935","252141.131691","252908.239868","253674.777001","254424.427713","255191.034719","263683.654291","Mapping"
"Blocked","m160","ball","6","m160jaw.wav","space","569.594114553","162","263674.316333","255957.59164","256724.421869","257491.364947","258258.154675","259007.492503","259774.348703","260540.942725","264424.209746","265191.125925","251374.576935","252141.131691","252908.239868","253674.777001","254424.427713","255191.034719","264433.274704","Mapping"
"Blocked","m160","ball","6","m160ball.wav","None","731.831823476","162","263674.316333","255957.59164","256724.421869","257491.364947","258258.154675","259007.492503","259774.348703","260540.942725","264424.209746","265191.125925","265957.748699","252141.131691","252908.239868","253674.777001","254424.427713","255191.034719","265199.823586","Mapping"
"Blocked","m160","ball","6","m160cave.wav","space","331.908250693","162","263674.316333","255957.59164","256724.421869","257491.364947","258258.154675","259007.492503","259774.348703","260540.942725","264424.209746","265191.125925","265957.748699","266724.233892","252908.239868","253674.777001","254424.427713","255191.034719","265966.937636","Mapping"
"Blocked","m160","ball","6","m160romp.wav","None","725.387417246","162","263674.316333","255957.59164","256724.421869","257491.364947","258258.154675","259007.492503","259774.348703","260540.942725","264424.209746","265191.125925","265957.748699","266724.233892","267491.17326","253674.777001","254424.427713","255191.034719","266733.441997","Mapping"
"Blocked","m160","ball","6","m160ball.wav","None","722.298776731","162","263674.316333","255957.59164","256724.421869","257491.364947","258258.154675","259007.492503","259774.348703","260540.942725","264424.209746","265191.125925","265957.748699","266724.233892","267491.17326","268257.842719","254424.427713","255191.034719","267500.772778","Mapping"
"Blocked","m160","ball","6","m160dime.wav","space","558.648455422","162","263674.316333","255957.59164","256724.421869","257491.364947","258258.154675","259007.492503","259774.348703","260540.942725","264424.209746","265191.125925","265957.748699","266724.233892","267491.17326","268257.842719","269007.456949","255191.034719","268268.156737","Mapping"
"Blocked","m160","ball","6","m160jaw.wav","None","733.76817489","162","263674.316333","255957.59164","256724.421869","257491.364947","258258.154675","259007.492503","259774.348703","260540.942725","264424.209746","265191.125925","265957.748699","266724.233892","267491.17326","268257.842719","269007.456949","269774.25286","269016.670001","Mapping"
"Blocked","m160","ball","6","m160tile.wav","None","730.915124994","162","263674.316333","270540.679309","256724.421869","257491.364947","258258.154675","259007.492503","259774.348703","260540.942725","264424.209746","265191.125925","265957.748699","266724.233892","267491.17326","268257.842719","269007.456949","269774.25286","269783.701811","Mapping"
"Blocked","m160","ball","6","m160romp.wav","None","729.202305432","162","263674.316333","270540.679309","271306.941897","257491.364947","258258.154675","259007.492503","259774.348703","260540.942725","264424.209746","265191.125925","265957.748699","266724.233892","267491.17326","268257.842719","269007.456949","269774.25286","270549.629564","Mapping"
"Blocked","m160","ball","6","m160greet.wav","None","730.359231122","162","263674.316333","270540.679309","271306.941897","272074.086864","258258.154675","259007.492503","259774.348703","260540.942725","264424.209746","265191.125925","265957.748699","266724.233892","267491.17326","268257.842719","269007.456949","269774.25286","271315.618534","Mapping"
"Blocked","m160","ball","6","m160knife.wav","None","726.9450319","162","263674.316333","270540.679309","271306.941897","272074.086864","272841.054367","259007.492503","259774.348703","260540.942725","264424.209746","265191.125925","265957.748699","266724.233892","267491.17326","268257.842719","269007.456949","269774.25286","272083.213658","Mapping"
"Blocked","m160","ball","6","m160ball.wav","None","723.917607684","162","263674.316333","270540.679309","271306.941897","272074.086864","272841.054367","273607.738667","259774.348703","260540.942725","264424.209746","265191.125925","265957.748699","266724.233892","267491.17326","268257.842719","269007.456949","269774.25286","272850.516613","Mapping"
"Blocked","m160","ball","6","m160done.wav","space","457.043012138","162","263674.316333","270540.679309","271306.941897","272074.086864","272841.054367","273607.738667","274357.08979","260540.942725","264424.209746","265191.125925","265957.748699","266724.233892","267491.17326","268257.842719","269007.456949","269774.25286","273617.613659","Mapping"
"Blocked","m160","ball","6","m160done.wav","None","735.876427032","162","263674.316333","270540.679309","271306.941897","272074.086864","272841.054367","273607.738667","274357.08979","275123.660932","264424.209746","265191.125925","265957.748699","266724.233892","267491.17326","268257.842719","269007.456949","269774.25286","274366.110845","Mapping"
"Blocked","m160","tile","18","m160dime.wav","None","733.967901208","162","278257.805928","270540.679309","271306.941897","272074.086864","272841.054367","273607.738667","274357.08979","275123.660932","264424.209746","265191.125925","265957.748699","266724.233892","267491.17326","268257.842719","269007.456949","269774.25286","275132.321492","Mapping"
"Blocked","m160","tile","18","m160greet.wav","None","718.761217315","162","278257.805928","270540.679309","271306.941897","272074.086864","272841.054367","273607.738667","274357.08979","275123.660932","279007.152413","265191.125925","265957.748699","266724.233892","267491.17326","268257.842719","269007.456949","269774.25286","278267.955156","Mapping"
"Blocked","m160","tile","18","m160dime.wav","None","734.741761349","162","278257.805928","270540.679309","271306.941897","272074.086864","272841.054367","273607.738667","274357.08979","275123.660932","279007.152413","279774.144958","265957.748699","266724.233892","267491.17326","268257.842719","269007.456949","269774.25286","279016.302703","Mapping"
"Blocked","m160","tile","18","m160romp.wav","None","732.005269732","162","278257.805928","270540.679309","271306.941897","272074.086864","272841.054367","273607.738667","274357.08979","275123.660932","279007.152413","279774.144958","280540.4397","266724.233892","267491.17326","268257.842719","269007.456949","269774.25286","279783.311944","Mapping"
"Blocked","m160","tile","18","m160romp.wav","None","730.602550786","162","278257.805928","270540.679309","271306.941897","272074.086864","272841.054367","273607.738667","274357.08979","275123.660932","279007.152413","279774.144958","280540.4397","281307.503046","267491.17326","268257.842719","269007.456949","269774.25286","280549.152201","Mapping"
"Blocked","m160","tile","18","m160tile.wav","None","727.482374758","162","278257.805928","270540.679309","271306.941897","272074.086864","272841.054367","273607.738667","274357.08979","275123.660932","279007.152413","279774.144958","280540.4397","281307.503046","282074.054092","268257.842719","269007.456949","269774.25286","281316.313246","Mapping"
"Blocked","m160","tile","18","m160lash.wav","space","422.874426469","162","278257.805928","270540.679309","271306.941897","272074.086864","272841.054367","273607.738667","274357.08979","275123.660932","279007.152413","279774.144958","280540.4397","281307.503046","282074.054092","282840.855878","269007.456949","269774.25286","282083.639389","Mapping"
"Blocked","m160","tile","18","m160jolt.wav","None","721.287780441","162","278257.805928","270540.679309","271306.941897","272074.086864","272841.054367","273607.738667","274357.08979","275123.660932","279007.152413","279774.144958","280540.4397","281307.503046","282074.054092","282840.855878","283590.578936","269774.25286","282850.316887","Mapping"
"Blocked","m160","tile","18","m160tile.wav","None","736.662036274","162","278257.805928","270540.679309","271306.941897","272074.086864","272841.054367","273607.738667","274357.08979","275123.660932","279007.152413","279774.144958","280540.4397","281307.503046","282074.054092","282840.855878","283590.578936","284356.975086","283599.325755","Mapping"
"Blocked","m160","tile","18","m160jolt.wav","space","676.592465956","162","278257.805928","285124.054819","271306.941897","272074.086864","272841.054367","273607.738667","274357.08979","275123.660932","279007.152413","279774.144958","280540.4397","281307.503046","282074.054092","282840.855878","283590.578936","284356.975086","284365.909264","Mapping"
"Blocked","m160","tile","18","m160cad.wav","None","729.731919244","162","278257.805928","285124.054819","285890.504456","272074.086864","272841.054367","273607.738667","274357.08979","275123.660932","279007.152413","279774.144958","280540.4397","281307.503046","282074.054092","282840.855878","283590.578936","284356.975086","285133.804905","Mapping"
"Blocked","m160","tile","18","m160tile.wav","None","728.472038638","162","278257.805928","285124.054819","285890.504456","286657.035715","272841.054367","273607.738667","274357.08979","275123.660932","279007.152413","279774.144958","280540.4397","281307.503046","282074.054092","282840.855878","283590.578936","284356.975086","285899.415446","Mapping"
"Blocked","m160","tile","18","m160cad.wav","space","528.445016593","162","278257.805928","285124.054819","285890.504456","286657.035715","287424.095351","273607.738667","274357.08979","275123.660932","279007.152413","279774.144958","280540.4397","281307.503046","282074.054092","282840.855878","283590.578936","284356.975086","286666.002975","Mapping"
"Blocked","m160","tile","18","m160done.wav","None","722.303414717","162","278257.805928","285124.054819","285890.504456","286657.035715","287424.095351","288190.752444","274357.08979","275123.660932","279007.152413","279774.144958","280540.4397","281307.503046","282074.054092","282840.855878","283590.578936","284356.975086","287433.452169","Mapping"
"Blocked","m160","tile","18","m160tile.wav","None","720.028827433","162","278257.805928","285124.054819","285890.504456","286657.035715","287424.095351","288190.752444","288940.079142","275123.660932","279007.152413","279774.144958","280540.4397","281307.503046","282074.054092","282840.855878","283590.578936","284356.975086","288200.062267","Mapping"
"Blocked","m160","tile","18","m160depth.wav","space","517.469367944","162","278257.805928","285124.054819","285890.504456","286657.035715","287424.095351","288190.752444","288940.079142","289706.907517","279007.152413","279774.144958","280540.4397","281307.503046","282074.054092","282840.855878","283590.578936","284356.975086","288948.947157","Mapping"
"Blocked","m160","cave","8","m160bluff.wav","None","732.251989655","162","292840.840728","285124.054819","285890.504456","286657.035715","287424.095351","288190.752444","288940.079142","289706.907517","279007.152413","279774.144958","280540.4397","281307.503046","282074.054092","282840.855878","283590.578936","284356.975086","289715.687108","Mapping"
"Blocked","m160","cave","8","m160cave.wav","None","719.719963148","162","292840.840728","285124.054819","285890.504456","286657.035715","287424.095351","288190.752444","288940.079142","289706.907517","293590.272236","279774.144958","280540.4397","281307.503046","282074.054092","282840.855878","283590.578936","284356.975086","292850.453851","Mapping"
"Blocked","m160","cave","8","m160gnash.wav","space","579.119431321","162","292840.840728","285124.054819","285890.504456","286657.035715","287424.095351","288190.752444","288940.079142","289706.907517","293590.272236","294357.202329","280540.4397","281307.503046","282074.054092","282840.855878","283590.578936","284356.975086","293599.220945","Mapping"
"Blocked","m160","cave","8","m160knife.wav","None","731.333745643","162","292840.840728","285124.054819","285890.504456","286657.035715","287424.095351","288190.752444","288940.079142","289706.907517","293590.272236","294357.202329","295123.801606","281307.503046","282074.054092","282840.855878","283590.578936","284356.975086","294366.223693","Mapping"
"Blocked","m160","cave","8","m160cave.wav","None","728.479767684","162","292840.840728","285124.054819","285890.504456","286657.035715","287424.095351","288190.752444","288940.079142","289706.907517","293590.272236","294357.202329","295123.801606","295890.352652","282074.054092","282840.855878","283590.578936","284356.975086","295133.249939","Mapping"
"Blocked","m160","cave","8","m160tile.wav","None","726.716861594","162","292840.840728","285124.054819","285890.504456","286657.035715","287424.095351","288190.752444","288940.079142","289706.907517","293590.272236","294357.202329","295123.801606","295890.352652","296657.155674","282840.855878","283590.578936","284356.975086","295899.237053","Mapping"
"Blocked","m160","cave","8","m160dime.wav","None","724.208849017","162","292840.840728","285124.054819","285890.504456","286657.035715","287424.095351","288190.752444","288940.079142","289706.907517","293590.272236","294357.202329","295123.801606","295890.352652","296657.155674","297424.091332","283590.578936","284356.975086","296666.413866","Mapping"
"Blocked","m160","cave","8","m160cave.wav","None","721.121445298","162","292840.840728","285124.054819","285890.504456","286657.035715","287424.095351","288190.752444","288940.079142","289706.907517","293590.272236","294357.202329","295123.801606","295890.352652","296657.155674","297424.091332","298190.601259","284356.975086","297433.795352","Mapping"
"Blocked","m160","cave","8","m160depth.wav","space","642.250434961","162","292840.840728","285124.054819","285890.504456","286657.035715","287424.095351","288190.752444","288940.079142","289706.907517","293590.272236","294357.202329","295123.801606","295890.352652","296657.155674","297424.091332","298190.601259","298940.186116","298199.998887","Mapping"
"Blocked","m160","cave","8","m160romp.wav","None","733.504450414","162","292840.840728","299707.139397","285890.504456","286657.035715","287424.095351","288190.752444","288940.079142","289706.907517","293590.272236","294357.202329","295123.801606","295890.352652","296657.155674","297424.091332","298190.601259","298940.186116","298949.12926","Mapping"
"Blocked","m160","cave","8","m160tile.wav","None","735.937025398","162","292840.840728","299707.139397","300473.645303","286657.035715","287424.095351","288190.752444","288940.079142","289706.907517","293590.272236","294357.202329","295123.801606","295890.352652","296657.155674","297424.091332","298190.601259","298940.186116","299711.207497","Mapping"
"Blocked","m160","cave","8","m160jaw.wav","None","728.38083189","162","292840.840728","299707.139397","300473.645303","301240.073917","287424.095351","288190.752444","288940.079142","289706.907517","293590.272236","294357.202329","295123.801606","295890.352652","296657.155674","297424.091332","298190.601259","298940.186116","300483.104148","Mapping"
"Blocked","m160","cave","8","m160jolt.wav","None","727.04829555","162","292840.840728","299707.139397","300473.645303","301240.073917","302007.369761","288190.752444","288940.079142","289706.907517","293590.272236","294357.202329","295123.801606","295890.352652","296657.155674","297424.091332","298190.601259","298940.186116","301248.81548","Mapping"
"Blocked","m160","cave","8","m160lash.wav","None","723.340690602","162","292840.840728","299707.139397","300473.645303","301240.073917","302007.369761","302773.118813","288940.079142","289706.907517","293590.272236","294357.202329","295123.801606","295890.352652","296657.155674","297424.091332","298190.601259","298940.186116","302016.966807","Mapping"
"Blocked","m160","cave","8","m160cave.wav","None","727.430124301","162","292840.840728","299707.139397","300473.645303","301240.073917","302007.369761","302773.118813","303540.397962","289706.907517","293590.272236","294357.202329","295123.801606","295890.352652","296657.155674","297424.091332","298190.601259","298940.186116","302781.729595","Mapping"
"Blocked","m160","cave","8","m160ball.wav","space","644.181221258","162","292840.840728","299707.139397","300473.645303","301240.073917","302007.369761","302773.118813","303540.397962","304307.409985","293590.272236","294357.202329","295123.801606","295890.352652","296657.155674","297424.091332","298190.601259","298940.186116","303549.960689","Mapping"
"Blocked","m160","cave","11","m160greet.wav","None","719.536005054","162","307423.858834","299707.139397","300473.645303","301240.073917","302007.369761","302773.118813","303540.397962","304307.409985","293590.272236","294357.202329","295123.801606","295890.352652","296657.155674","297424.091332","298190.601259","298940.186116","304316.979823","Mapping"
"Blocked","m160","cave","11","m160lash.wav","None","718.960943166","162","307423.858834","299707.139397","300473.645303","301240.073917","302007.369761","302773.118813","303540.397962","304307.409985","308173.412156","294357.202329","295123.801606","295890.352652","296657.155674","297424.091332","298190.601259","298940.186116","307434.011154","Mapping"
"Blocked","m160","cave","11","m160priest.wav","None","734.897893853","162","307423.858834","299707.139397","300473.645303","301240.073917","302007.369761","302773.118813","303540.397962","304307.409985","308173.412156","308940.085325","295123.801606","295890.352652","296657.155674","297424.091332","298190.601259","298940.186116","308182.44527","Mapping"
"Blocked","m160","cave","11","m160cave.wav","None","732.666900381","162","307423.858834","299707.139397","300473.645303","301240.073917","302007.369761","302773.118813","303540.397962","304307.409985","308173.412156","308940.085325","309706.887111","295890.352652","296657.155674","297424.091332","298190.601259","298940.186116","308948.959833","Mapping"
"Blocked","m160","cave","11","m160jaw.wav","None","730.108492076","162","307423.858834","299707.139397","300473.645303","301240.073917","302007.369761","302773.118813","303540.397962","304307.409985","308173.412156","308940.085325","309706.887111","310473.751659","296657.155674","297424.091332","298190.601259","298940.186116","309715.976803","Mapping"
"Blocked","m160","cave","11","m160dime.wav","space","38.7143590488","162","307423.858834","299707.139397","300473.645303","301240.073917","302007.369761","302773.118813","303540.397962","304307.409985","308173.412156","308940.085325","309706.887111","310473.751659","311240.390201","297424.091332","298190.601259","298940.186116","310483.35427","Mapping"
"Blocked","m160","cave","11","m160done.wav","None","723.814653233","162","307423.858834","299707.139397","300473.645303","301240.073917","302007.369761","302773.118813","303540.397962","304307.409985","308173.412156","308940.085325","309706.887111","310473.751659","311240.390201","312007.200335","298190.601259","298940.186116","311249.827713","Mapping"
"Blocked","m160","cave","11","m160bluff.wav","None","721.602209844","162","307423.858834","299707.139397","300473.645303","301240.073917","302007.369761","302773.118813","303540.397962","304307.409985","308173.412156","308940.085325","309706.887111","310473.751659","311240.390201","312007.200335","312773.750762","298940.186116","312016.596417","Mapping"
"Blocked","m160","cave","11","m160cave.wav","None","719.218793791","162","307423.858834","299707.139397","300473.645303","301240.073917","302007.369761","302773.118813","303540.397962","304307.409985","308173.412156","308940.085325","309706.887111","310473.751659","311240.390201","312007.200335","312773.750762","313523.346751","312783.366667","Mapping"
"Blocked","m160","cave","11","m160knife.wav","space","381.643706933","162","307423.858834","314289.88883","300473.645303","301240.073917","302007.369761","302773.118813","303540.397962","304307.409985","308173.412156","308940.085325","309706.887111","310473.751659","311240.390201","312007.200335","312773.750762","313523.346751","313532.334415","Mapping"
"Blocked","m160","cave","11","m160cling.wav","None","731.392488349","162","307423.858834","314289.88883","315056.877357","301240.073917","302007.369761","302773.118813","303540.397962","304307.409985","308173.412156","308940.085325","309706.887111","310473.751659","311240.390201","312007.200335","312773.750762","313523.346751","314298.652654","Mapping"
"Blocked","m160","cave","11","m160cave.wav","None","728.638991714","162","307423.858834","314289.88883","315056.877357","315823.331632","302007.369761","302773.118813","303540.397962","304307.409985","308173.412156","308940.085325","309706.887111","310473.751659","311240.390201","312007.200335","312773.750762","313523.346751","315065.79484","Mapping"
"Blocked","m160","cave","11","m160greet.wav","space","657.084564678","162","307423.858834","314289.88883","315056.877357","315823.331632","316590.186905","302773.118813","303540.397962","304307.409985","308173.412156","308940.085325","309706.887111","310473.751659","311240.390201","312007.200335","312773.750762","313523.346751","315832.849219","Mapping"
"Blocked","m160","cave","11","m160jolt.wav","None","721.755559556","162","307423.858834","314289.88883","315056.877357","315823.331632","316590.186905","317357.271584","303540.397962","304307.409985","308173.412156","308940.085325","309706.887111","310473.751659","311240.390201","312007.200335","312773.750762","313523.346751","316600.058186","Mapping"
"Blocked","m160","cave","11","m160cave.wav","None","719.661838841","162","307423.858834","314289.88883","315056.877357","315823.331632","316590.186905","317357.271584","318106.483887","304307.409985","308173.412156","308940.085325","309706.887111","310473.751659","311240.390201","312007.200335","312773.750762","313523.346751","317366.731356","Mapping"
"Blocked","m160","cave","11","m160bluff.wav","space","566.29492715","162","307423.858834","314289.88883","315056.877357","315823.331632","316590.186905","317357.271584","318106.483887","318873.018547","308173.412156","308940.085325","309706.887111","310473.751659","311240.390201","312007.200335","312773.750762","313523.346751","318115.597077","Mapping"
"Blocked","m160","tile","17","m160bluff.wav","None","731.888711452","162","322007.055642","314289.88883","315056.877357","315823.331632","316590.186905","317357.271584","318106.483887","318873.018547","308173.412156","308940.085325","309706.887111","310473.751659","311240.390201","312007.200335","312773.750762","313523.346751","318881.837404","Mapping"
"Blocked","m160","tile","17","m160gnash.wav","None","720.344183967","162","322007.055642","314289.88883","315056.877357","315823.331632","316590.186905","317357.271584","318106.483887","318873.018547","322756.354205","308940.085325","309706.887111","310473.751659","311240.390201","312007.200335","312773.750762","313523.346751","322016.561481","Mapping"
"Blocked","m160","tile","17","m160greet.wav","None","735.67701038","162","322007.055642","314289.88883","315056.877357","315823.331632","316590.186905","317357.271584","318106.483887","318873.018547","322756.354205","323523.027993","309706.887111","310473.751659","311240.390201","312007.200335","312773.750762","313523.346751","322765.733901","Mapping"
"Blocked","m160","tile","17","m160ball.wav","None","733.98181377","162","322007.055642","314289.88883","315056.877357","315823.331632","316590.186905","317357.271584","318106.483887","318873.018547","322756.354205","323523.027993","324289.814011","310473.751659","311240.390201","312007.200335","312773.750762","313523.346751","323532.015349","Mapping"
"Blocked","m160","tile","17","m160tile.wav","None","731.782355811","162","322007.055642","314289.88883","315056.877357","315823.331632","316590.186905","317357.271584","318106.483887","318873.018547","322756.354205","323523.027993","324289.814011","325056.673612","311240.390201","312007.200335","312773.750762","313523.346751","324298.778797","Mapping"
"Blocked","m160","tile","17","m160jolt.wav","space","352.106845472","162","322007.055642","314289.88883","315056.877357","315823.331632","316590.186905","317357.271584","318106.483887","318873.018547","322756.354205","323523.027993","324289.814011","325056.673612","325823.187866","312007.200335","312773.750762","313523.346751","325065.671789","Mapping"
"Blocked","m160","tile","17","m160romp.wav","None","725.466565695","162","322007.055642","314289.88883","315056.877357","315823.331632","316590.186905","317357.271584","318106.483887","318873.018547","322756.354205","323523.027993","324289.814011","325056.673612","325823.187866","326590.140219","312773.750762","313523.346751","325832.822321","Mapping"
"Blocked","m160","tile","17","m160tile.wav","None","723.291222937","162","322007.055642","314289.88883","315056.877357","315823.331632","316590.186905","317357.271584","318106.483887","318873.018547","322756.354205","323523.027993","324289.814011","325056.673612","325823.187866","326590.140219","327356.952517","313523.346751","326599.617305","Mapping"
"Blocked","m160","tile","17","m160knife.wav","space","451.112760697","162","322007.055642","314289.88883","315056.877357","315823.331632","316590.186905","317357.271584","318106.483887","318873.018547","322756.354205","323523.027993","324289.814011","325056.673612","325823.187866","326590.140219","327356.952517","328106.113807","327366.621909","Mapping"
"Blocked","m160","tile","17","m160tile.wav","None","735.47666613","162","322007.055642","328873.128304","315056.877357","315823.331632","316590.186905","317357.271584","318106.483887","318873.018547","322756.354205","323523.027993","324289.814011","325056.673612","325823.187866","326590.140219","327356.952517","328106.113807","328115.348811","Mapping"
"Blocked","m160","tile","17","m160greet.wav","space","399.473725352","162","322007.055642","328873.128304","329639.723562","315823.331632","316590.186905","317357.271584","318106.483887","318873.018547","322756.354205","323523.027993","324289.814011","325056.673612","325823.187866","326590.140219","327356.952517","328106.113807","328882.234382","Mapping"
"Blocked","m160","tile","17","m160tile.wav","None","730.123641435","162","322007.055642","328873.128304","329639.723562","330406.336443","316590.186905","317357.271584","318106.483887","318873.018547","322756.354205","323523.027993","324289.814011","325056.673612","325823.187866","326590.140219","327356.952517","328106.113807","329648.560041","Mapping"
"Blocked","m160","tile","17","m160cave.wav","space","409.851433244","162","322007.055642","328873.128304","329639.723562","330406.336443","331173.042385","317357.271584","318106.483887","318873.018547","322756.354205","323523.027993","324289.814011","325056.673612","325823.187866","326590.140219","327356.952517","328106.113807","330415.833934","Mapping"
"Blocked","m160","tile","17","m160ball.wav","None","724.525442347","162","322007.055642","328873.128304","329639.723562","330406.336443","331173.042385","331940.356161","318106.483887","318873.018547","322756.354205","323523.027993","324289.814011","325056.673612","325823.187866","326590.140219","327356.952517","328106.113807","331181.78704","Mapping"
"Blocked","m160","tile","17","m160jaw.wav","None","721.321480349","162","322007.055642","328873.128304","329639.723562","330406.336443","331173.042385","331940.356161","332706.504664","318873.018547","322756.354205","323523.027993","324289.814011","325056.673612","325823.187866","326590.140219","327356.952517","328106.113807","331949.688863","Mapping"
"Blocked","m160","tile","17","m160priest.wav","None","719.249092042","162","322007.055642","328873.128304","329639.723562","330406.336443","331173.042385","331940.356161","332706.504664","333456.171762","322756.354205","323523.027993","324289.814011","325056.673612","325823.187866","326590.140219","327356.952517","328106.113807","332716.410264","Mapping"
"Blocked","m160","cave","12","m160bluff.wav","None","735.225308686","162","336590.009439","328873.128304","329639.723562","330406.336443","331173.042385","331940.356161","332706.504664","333456.171762","322756.354205","323523.027993","324289.814011","325056.673612","325823.187866","326590.140219","327356.952517","328106.113807","333465.300719","Mapping"
"Blocked","m160","cave","12","m160dime.wav","None","719.214155804","162","336590.009439","328873.128304","329639.723562","330406.336443","331173.042385","331940.356161","332706.504664","333456.171762","337339.46599","323523.027993","324289.814011","325056.673612","325823.187866","326590.140219","327356.952517","328106.113807","336600.080138","Mapping"
"Blocked","m160","cave","12","m160lash.wav","None","735.493979882","162","336590.009439","328873.128304","329639.723562","330406.336443","331173.042385","331940.356161","332706.504664","333456.171762","337339.46599","338106.177188","324289.814011","325056.673612","325823.187866","326590.140219","327356.952517","328106.113807","337348.435414","Mapping"
"Blocked","m160","cave","12","m160cave.wav","None","738.693922758","162","336590.009439","328873.128304","329639.723562","330406.336443","331173.042385","331940.356161","332706.504664","333456.171762","337339.46599","338106.177188","338872.956404","325056.673612","325823.187866","326590.140219","327356.952517","328106.113807","338109.815229","Mapping"
"Blocked","m160","cave","12","m160gnash.wav","space","351.476750337","162","336590.009439","328873.128304","329639.723562","330406.336443","331173.042385","331940.356161","332706.504664","333456.171762","337339.46599","338106.177188","338872.956404","339639.439432","325823.187866","326590.140219","327356.952517","328106.113807","338882.059699","Mapping"
"Blocked","m160","cave","12","m160cad.wav","None","727.69168485","162","336590.009439","328873.128304","329639.723562","330406.336443","331173.042385","331940.356161","332706.504664","333456.171762","337339.46599","338106.177188","338872.956404","339639.439432","340406.391476","326590.140219","327356.952517","328106.113807","339648.263235","Mapping"
"Blocked","m160","cave","12","m160cave.wav","None","725.204077084","162","336590.009439","328873.128304","329639.723562","330406.336443","331173.042385","331940.356161","332706.504664","333456.171762","337339.46599","338106.177188","338872.956404","339639.439432","340406.391476","341173.199136","327356.952517","328106.113807","340415.388107","Mapping"
"Blocked","m160","cave","12","m160gnash.wav","space","434.67340339","162","336590.009439","328873.128304","329639.723562","330406.336443","331173.042385","331940.356161","332706.504664","333456.171762","337339.46599","338106.177188","338872.956404","339639.439432","340406.391476","341173.199136","341922.977845","328106.113807","341182.789379","Mapping"
"Blocked","m160","cave","12","m160cave.wav","None","735.255298205","162","336590.009439","328873.128304","329639.723562","330406.336443","331173.042385","331940.356161","332706.504664","333456.171762","337339.46599","338106.177188","338872.956404","339639.439432","340406.391476","341173.199136","341922.977845","342689.380488","341932.676917","Mapping"
"Blocked","m160","cave","12","m160cad.wav","space","671.139269136","162","336590.009439","343456.309034","329639.723562","330406.336443","331173.042385","331940.356161","332706.504664","333456.171762","337339.46599","338106.177188","338872.956404","339639.439432","340406.391476","341173.199136","341922.977845","342689.380488","342698.314666","Mapping"
"Blocked","m160","cave","12","m160reek.wav","None","729.925461579","162","336590.009439","343456.309034","344222.846168","330406.336443","331173.042385","331940.356161","332706.504664","333456.171762","337339.46599","338106.177188","338872.956404","339639.439432","340406.391476","341173.199136","341922.977845","342689.380488","343465.799415","Mapping"
"Blocked","m160","cave","12","m160cling.wav","None","728.359190281","162","336590.009439","343456.309034","344222.846168","344989.482855","331173.042385","331940.356161","332706.504664","333456.171762","337339.46599","338106.177188","338872.956404","339639.439432","340406.391476","341173.199136","341922.977845","342689.380488","344231.912981","Mapping"
"Blocked","m160","cave","12","m160done.wav","None","726.305970922","162","336590.009439","343456.309034","344222.846168","344989.482855","345756.327307","331940.356161","332706.504664","333456.171762","337339.46599","338106.177188","338872.956404","339639.439432","340406.391476","341173.199136","341922.977845","342689.380488","344998.393845","Mapping"
"Blocked","m160","cave","12","m160cave.wav","None","723.751890939","162","336590.009439","343456.309034","344222.846168","344989.482855","345756.327307","346523.315833","332706.504664","333456.171762","337339.46599","338106.177188","338872.956404","339639.439432","340406.391476","341173.199136","341922.977845","342689.380488","345765.754307","Mapping"
"Blocked","m160","cave","12","m160lash.wav","space","636.032652576","162","336590.009439","343456.309034","344222.846168","344989.482855","345756.327307","346523.315833","347272.653661","333456.171762","337339.46599","338106.177188","338872.956404","339639.439432","340406.391476","341173.199136","341922.977845","342689.380488","346533.355923","Mapping"
"Blocked","m160","cave","12","m160tile.wav","None","735.170584638","162","336590.009439","343456.309034","344222.846168","344989.482855","345756.327307","346523.315833","347272.653661","348039.280146","337339.46599","338106.177188","338872.956404","339639.439432","340406.391476","341173.199136","341922.977845","342689.380488","347281.992547","Mapping"
"Blocked","m160","cave","9","m160cling.wav","None","733.47786162","162","351173.005902","343456.309034","344222.846168","344989.482855","345756.327307","346523.315833","347272.653661","348039.280146","337339.46599","338106.177188","338872.956404","339639.439432","340406.391476","341173.199136","341922.977845","342689.380488","348048.227927","Mapping"
"Blocked","m160","cave","9","m160cad.wav","None","719.903612044","162","351173.005902","343456.309034","344222.846168","344989.482855","345756.327307","346523.315833","347272.653661","348039.280146","351922.544384","338106.177188","338872.956404","339639.439432","340406.391476","341173.199136","341922.977845","342689.380488","351182.47866","Mapping"
"Blocked","m160","cave","9","m160cave.wav","None","735.533554107","162","351173.005902","343456.309034","344222.846168","344989.482855","345756.327307","346523.315833","347272.653661","348039.280146","351922.544384","352689.141806","338872.956404","339639.439432","340406.391476","341173.199136","341922.977845","342689.380488","351931.628202","Mapping"
"Blocked","m160","cave","9","m160greet.wav","space","479.166209232","162","351173.005902","343456.309034","344222.846168","344989.482855","345756.327307","346523.315833","347272.653661","348039.280146","351922.544384","352689.141806","353456.15012","339639.439432","340406.391476","341173.199136","341922.977845","342689.380488","352698.116486","Mapping"
"Blocked","m160","cave","9","m160jolt.wav","None","734.916444402","162","351173.005902","343456.309034","344222.846168","344989.482855","345756.327307","346523.315833","347272.653661","348039.280146","351922.544384","352689.141806","353456.15012","354222.691582","340406.391476","341173.199136","341922.977845","342689.380488","353460.259032","Mapping"
"Blocked","m160","cave","9","m160reek.wav","None","727.372618392","162","351173.005902","343456.309034","344222.846168","344989.482855","345756.327307","346523.315833","347272.653661","348039.280146","351922.544384","352689.141806","353456.15012","354222.691582","354989.099789","341173.199136","341922.977845","342689.380488","354232.296665","Mapping"
"Blocked","m160","cave","9","m160cling.wav","None","726.740977261","162","351173.005902","343456.309034","344222.846168","344989.482855","345756.327307","346523.315833","347272.653661","348039.280146","351922.544384","352689.141806","353456.15012","354222.691582","354989.099789","355756.348949","341922.977845","342689.380488","354997.803943","Mapping"
"Blocked","m160","cave","9","m160tile.wav","None","723.328633234","162","351173.005902","343456.309034","344222.846168","344989.482855","345756.327307","346523.315833","347272.653661","348039.280146","351922.544384","352689.141806","353456.15012","354222.691582","354989.099789","355756.348949","356523.027065","342689.380488","355765.903946","Mapping"
"Blocked","m160","cave","9","m160cave.wav","None","721.35858098","162","351173.005902","343456.309034","344222.846168","344989.482855","345756.327307","346523.315833","347272.653661","348039.280146","351922.544384","352689.141806","353456.15012","354222.691582","354989.099789","355756.348949","356523.027065","357289.648603","356532.49704","Mapping"
"Blocked","m160","cave","9","m160jolt.wav","space","382.123234682","162","351173.005902","358039.154312","344222.846168","344989.482855","345756.327307","346523.315833","347272.653661","348039.280146","351922.544384","352689.141806","353456.15012","354222.691582","354989.099789","355756.348949","356523.027065","357289.648603","357299.038193","Mapping"
"Blocked","m160","cave","9","m160cave.wav","None","733.388819732","162","351173.005902","358039.154312","358805.954243","344989.482855","345756.327307","346523.315833","347272.653661","348039.280146","351922.544384","352689.141806","353456.15012","354222.691582","354989.099789","355756.348949","356523.027065","357289.648603","358048.161764","Mapping"
"Blocked","m160","cave","9","m160cad.wav","None","731.555113569","162","351173.005902","358039.154312","358805.954243","359572.568052","345756.327307","346523.315833","347272.653661","348039.280146","351922.544384","352689.141806","353456.15012","354222.691582","354989.099789","355756.348949","356523.027065","357289.648603","358814.862759","Mapping"
