"Condition","Talker","Target","Trial","current_stimulus","response_response","response_time_response","subject_nr","time_Audio1","time_Audio10","time_Audio11","time_Audio12","time_Audio13","time_Audio14","time_Audio15","time_Audio16","time_Audio2","time_Audio3","time_Audio4","time_Audio5","time_Audio6","time_Audio7","time_Audio8","time_Audio9","time_response","title"
"Blocked","m150","tile","18","m150ball.wav","NA","NA","161","340326.661273","NA","NA","NA","NA","NA","NA","NA","NA","NA","NA","NA","NA","NA","NA","NA","NA","Mapping"
"Blocked","m150","tile","18","m150cling.wav","None","714.779993985","161","340326.661273","NA","NA","NA","NA","NA","NA","NA","341076.145649","NA","NA","NA","NA","NA","NA","NA","340341.624019","Mapping"
"Blocked","m150","tile","18","m150tile.wav","None","734.402907547","161","340326.661273","NA","NA","NA","NA","NA","NA","NA","341076.145649","341842.459559","NA","NA","NA","NA","NA","NA","341085.866364","Mapping"
"Blocked","m150","tile","18","m150cling.wav","space","453.250384424","161","340326.661273","NA","NA","NA","NA","NA","NA","NA","341076.145649","341842.459559","342609.191472","NA","NA","NA","NA","NA","341851.625926","Mapping"
"Blocked","m150","tile","18","m150depth.wav","None","729.156856891","161","340326.661273","NA","NA","NA","NA","NA","NA","NA","341076.145649","341842.459559","342609.191472","343376.078899","NA","NA","NA","NA","342618.344544","Mapping"
"Blocked","m150","tile","18","m150tile.wav","None","725.662890822","161","340326.661273","NA","NA","NA","NA","NA","NA","NA","341076.145649","341842.459559","342609.191472","343376.078899","344143.220156","NA","NA","NA","343385.434789","Mapping"
"Blocked","m150","tile","18","m150park.wav","space","479.940069839","161","340326.661273","NA","NA","NA","NA","NA","NA","NA","341076.145649","341842.459559","342609.191472","343376.078899","344143.220156","344909.441933","NA","NA","344152.926031","Mapping"
"Blocked","m150","tile","18","m150dime.wav","None","719.000517391","161","340326.661273","NA","NA","NA","NA","NA","NA","NA","341076.145649","341842.459559","342609.191472","343376.078899","344143.220156","344909.441933","345658.809133","NA","344919.623934","Mapping"
"Blocked","m150","tile","18","m150cave.wav","None","734.536779579","161","340326.661273","NA","NA","NA","NA","NA","NA","NA","341076.145649","341842.459559","342609.191472","343376.078899","344143.220156","344909.441933","345658.809133","346425.70027","345667.858324","Mapping"
"Blocked","m150","tile","18","m150depth.wav","None","730.821136385","161","340326.661273","347192.316551","NA","NA","NA","NA","NA","NA","341076.145649","341842.459559","342609.191472","343376.078899","344143.220156","344909.441933","345658.809133","346425.70027","346435.328232","Mapping"
"Blocked","m150","tile","18","m150tile.wav","None","728.163792752","161","340326.661273","347192.316551","347958.611911","NA","NA","NA","NA","NA","341076.145649","341842.459559","342609.191472","343376.078899","344143.220156","344909.441933","345658.809133","346425.70027","347201.668113","Mapping"
"Blocked","m150","tile","18","m150jaw.wav","space","321.430680342","161","340326.661273","347192.316551","347958.611911","348725.491299","NA","NA","NA","NA","341076.145649","341842.459559","342609.191472","343376.078899","344143.220156","344909.441933","345658.809133","346425.70027","347967.352856","Mapping"
"Blocked","m150","tile","18","m150depth.wav","None","722.657727078","161","340326.661273","347192.316551","347958.611911","348725.491299","349475.927929","NA","NA","NA","341076.145649","341842.459559","342609.191472","343376.078899","344143.220156","344909.441933","345658.809133","346425.70027","348734.431352","Mapping"
"Blocked","m150","tile","18","m150greet.wav","None","735.697724856","161","340326.661273","347192.316551","347958.611911","348725.491299","349475.927929","350241.897421","NA","NA","341076.145649","341842.459559","342609.191472","343376.078899","344143.220156","344909.441933","345658.809133","346425.70027","349485.258777","Mapping"
"Blocked","m150","tile","18","m150tile.wav","None","734.027262311","161","340326.661273","347192.316551","347958.611911","348725.491299","349475.927929","350241.897421","351008.838025","NA","341076.145649","341842.459559","342609.191472","343376.078899","344143.220156","344909.441933","345658.809133","346425.70027","350250.694944","Mapping"
"Blocked","m150","tile","18","m150cave.wav","space","382.125707809","161","340326.661273","347192.316551","347958.611911","348725.491299","349475.927929","350241.897421","351008.838025","351775.574884","341076.145649","341842.459559","342609.191472","343376.078899","344143.220156","344909.441933","345658.809133","346425.70027","351018.606662","Mapping"
"Blocked","m150","ball","6","m150depth.wav","None","727.434452623","161","354942.824909","347192.316551","347958.611911","348725.491299","349475.927929","350241.897421","351008.838025","351775.574884","341076.145649","341842.459559","342609.191472","343376.078899","344143.220156","344909.441933","345658.809133","346425.70027","351784.569042","Mapping"
"Blocked","m150","ball","6","m150ball.wav","None","719.991726335","161","354942.824909","347192.316551","347958.611911","348725.491299","349475.927929","350241.897421","351008.838025","351775.574884","355692.184998","341842.459559","342609.191472","343376.078899","344143.220156","344909.441933","345658.809133","346425.70027","354952.261494","Mapping"
"Blocked","m150","ball","6","m150romp.wav","space","282.916356344","161","354942.824909","347192.316551","347958.611911","348725.491299","349475.927929","350241.897421","351008.838025","351775.574884","355692.184998","356458.874554","342609.191472","343376.078899","344143.220156","344909.441933","345658.809133","346425.70027","355701.722682","Mapping"
"Blocked","m150","ball","6","m150priest.wav","None","731.963222381","161","354942.824909","347192.316551","347958.611911","348725.491299","349475.927929","350241.897421","351008.838025","351775.574884","355692.184998","356458.874554","357226.052294","343376.078899","344143.220156","344909.441933","345658.809133","346425.70027","356467.919725","Mapping"
"Blocked","m150","ball","6","m150ball.wav","None","728.983719833","161","354942.824909","347192.316551","347958.611911","348725.491299","349475.927929","350241.897421","351008.838025","351775.574884","355692.184998","356458.874554","357226.052294","357991.759607","344143.220156","344909.441933","345658.809133","346425.70027","357235.494444","Mapping"
"Blocked","m150","ball","6","m150reek.wav","space","328.113459051","161","354942.824909","347192.316551","347958.611911","348725.491299","349475.927929","350241.897421","351008.838025","351775.574884","355692.184998","356458.874554","357226.052294","357991.759607","358758.569431","344909.441933","345658.809133","346425.70027","358000.481383","Mapping"
"Blocked","m150","ball","6","m150reek.wav","None","724.688685965","161","354942.824909","347192.316551","347958.611911","348725.491299","349475.927929","350241.897421","351008.838025","351775.574884","355692.184998","356458.874554","357226.052294","357991.759607","358758.569431","359525.287431","345658.809133","346425.70027","358767.476093","Mapping"
"Blocked","m150","ball","6","m150park.wav","None","721.835017204","161","354942.824909","347192.316551","347958.611911","348725.491299","349475.927929","350241.897421","351008.838025","351775.574884","355692.184998","356458.874554","357226.052294","357991.759607","358758.569431","359525.287431","360275.214852","346425.70027","359534.143079","Mapping"
"Blocked","m150","ball","6","m150gnash.wav","None","735.601881053","161","354942.824909","347192.316551","347958.611911","348725.491299","349475.927929","350241.897421","351008.838025","351775.574884","355692.184998","356458.874554","357226.052294","357991.759607","358758.569431","359525.287431","360275.214852","361042.038589","360284.234362","Mapping"
"Blocked","m150","ball","6","m150ball.wav","None","732.448623516","161","354942.824909","361808.588089","347958.611911","348725.491299","349475.927929","350241.897421","351008.838025","351775.574884","355692.184998","356458.874554","357226.052294","357991.759607","358758.569431","359525.287431","360275.214852","361042.038589","361051.325843","Mapping"
"Blocked","m150","ball","6","m150cave.wav","space","286.243987735","161","354942.824909","361808.588089","362575.397914","348725.491299","349475.927929","350241.897421","351008.838025","351775.574884","355692.184998","356458.874554","357226.052294","357991.759607","358758.569431","359525.287431","360275.214852","361042.038589","361818.2918","Mapping"
"Blocked","m150","ball","6","m150depth.wav","None","727.111367043","161","354942.824909","361808.588089","362575.397914","363342.0649","349475.927929","350241.897421","351008.838025","351775.574884","355692.184998","356458.874554","357226.052294","357991.759607","358758.569431","359525.287431","360275.214852","361042.038589","362584.272421","Mapping"
"Blocked","m150","ball","6","m150lash.wav","None","724.040040746","161","354942.824909","361808.588089","362575.397914","363342.0649","364108.950781","350241.897421","351008.838025","351775.574884","355692.184998","356458.874554","357226.052294","357991.759607","358758.569431","359525.287431","360275.214852","361042.038589","363351.086883","Mapping"
"Blocked","m150","ball","6","m150ball.wav","None","720.43167986","161","354942.824909","361808.588089","362575.397914","363342.0649","364108.950781","364858.12753","351008.838025","351775.574884","355692.184998","356458.874554","357226.052294","357991.759607","358758.569431","359525.287431","360275.214852","361042.038589","364118.565449","Mapping"
"Blocked","m150","ball","6","m150bluff.wav","space","317.310019862","161","354942.824909","361808.588089","362575.397914","363342.0649","364108.950781","364858.12753","365625.37638","351775.574884","355692.184998","356458.874554","357226.052294","357991.759607","358758.569431","359525.287431","360275.214852","361042.038589","364867.151059","Mapping"
"Blocked","m150","ball","6","m150jolt.wav","None","732.048553415","161","354942.824909","361808.588089","362575.397914","363342.0649","364108.950781","364858.12753","365625.37638","366392.00441","355692.184998","356458.874554","357226.052294","357991.759607","358758.569431","359525.287431","360275.214852","361042.038589","365634.332818","Mapping"
"Blocked","m150","tile","13","m150cave.wav","None","728.740400635","161","369525.728003","361808.588089","362575.397914","363342.0649","364108.950781","364858.12753","365625.37638","366392.00441","355692.184998","356458.874554","357226.052294","357991.759607","358758.569431","359525.287431","360275.214852","361042.038589","366401.372358","Mapping"
"Blocked","m150","tile","13","m150cave.wav","None","720.567407086","161","369525.728003","361808.588089","362575.397914","363342.0649","364108.950781","364858.12753","365625.37638","366392.00441","370274.9839","356458.874554","357226.052294","357991.759607","358758.569431","359525.287431","360275.214852","361042.038589","369535.250537","Mapping"
"Blocked","m150","tile","13","m150gnash.wav","None","735.640218481","161","369525.728003","361808.588089","362575.397914","363342.0649","364108.950781","364858.12753","365625.37638","366392.00441","370274.9839","371042.031478","357226.052294","357991.759607","358758.569431","359525.287431","360275.214852","361042.038589","370284.129553","Mapping"
"Blocked","m150","tile","13","m150jolt.wav","None","732.72966221","161","369525.728003","361808.588089","362575.397914","363342.0649","364108.950781","364858.12753","365625.37638","366392.00441","370274.9839","371042.031478","371808.43103","357991.759607","358758.569431","359525.287431","360275.214852","361042.038589","371050.963183","Mapping"
"Blocked","m150","tile","13","m150cad.wav","None","730.168780778","161","369525.728003","361808.588089","362575.397914","363342.0649","364108.950781","364858.12753","365625.37638","366392.00441","370274.9839","371042.031478","371808.43103","372575.204371","358758.569431","359525.287431","360275.214852","361042.038589","371817.419622","Mapping"
"Blocked","m150","tile","13","m150tile.wav","None","727.006247733","161","369525.728003","361808.588089","362575.397914","363342.0649","364108.950781","364858.12753","365625.37638","366392.00441","370274.9839","371042.031478","371808.43103","372575.204371","373342.336663","359525.287431","360275.214852","361042.038589","372584.467201","Mapping"
"Blocked","m150","tile","13","m150greet.wav","space","416.677359026","161","369525.728003","361808.588089","362575.397914","363342.0649","364108.950781","364858.12753","365625.37638","366392.00441","370274.9839","371042.031478","371808.43103","372575.204371","373342.336663","374108.61069","360275.214852","361042.038589","373351.631028","Mapping"
"Blocked","m150","tile","13","m150tile.wav","None","720.530615188","161","369525.728003","361808.588089","362575.397914","363342.0649","364108.950781","364858.12753","365625.37638","366392.00441","370274.9839","371042.031478","371808.43103","372575.204371","373342.336663","374108.61069","374858.261711","361042.038589","374118.414882","Mapping"
"Blocked","m150","tile","13","m150jaw.wav","space","485.008655582","161","369525.728003","361808.588089","362575.397914","363342.0649","364108.950781","364858.12753","365625.37638","366392.00441","370274.9839","371042.031478","371808.43103","372575.204371","373342.336663","374108.61069","374858.261711","375624.962088","374867.282148","Mapping"
"Blocked","m150","tile","13","m150priest.wav","None","732.577548828","161","369525.728003","376391.782115","362575.397914","363342.0649","364108.950781","364858.12753","365625.37638","366392.00441","370274.9839","371042.031478","371808.43103","372575.204371","373342.336663","374108.61069","374858.261711","375624.962088","375633.964902","Mapping"
"Blocked","m150","tile","13","m150greet.wav","None","729.371113703","161","369525.728003","376391.782115","377158.36717","363342.0649","364108.950781","364858.12753","365625.37638","366392.00441","370274.9839","371042.031478","371808.43103","372575.204371","373342.336663","374108.61069","374858.261711","375624.962088","376401.10616","Mapping"
"Blocked","m150","tile","13","m150priest.wav","None","726.53970588","161","369525.728003","376391.782115","377158.36717","377925.467926","364108.950781","364858.12753","365625.37638","366392.00441","370274.9839","371042.031478","371808.43103","372575.204371","373342.336663","374108.61069","374858.261711","375624.962088","377167.949375","Mapping"
"Blocked","m150","tile","13","m150tile.wav","None","723.285657819","161","369525.728003","376391.782115","377158.36717","377925.467926","378692.127183","364858.12753","365625.37638","366392.00441","370274.9839","371042.031478","371808.43103","372575.204371","373342.336663","374108.61069","374858.261711","375624.962088","377935.059097","Mapping"
"Blocked","m150","tile","13","m150bluff.wav","space","354.543748312","161","369525.728003","376391.782115","377158.36717","377925.467926","378692.127183","379441.53643","365625.37638","366392.00441","370274.9839","371042.031478","371808.43103","372575.204371","373342.336663","374108.61069","374858.261711","375624.962088","378701.681562","Mapping"
"Blocked","m150","tile","13","m150tile.wav","None","735.721222591","161","369525.728003","376391.782115","377158.36717","377925.467926","378692.127183","379441.53643","380207.912175","366392.00441","370274.9839","371042.031478","371808.43103","372575.204371","373342.336663","374108.61069","374858.261711","375624.962088","379450.58964","Mapping"
"Blocked","m150","tile","13","m150gnash.wav","space","639.476223383","161","369525.728003","376391.782115","377158.36717","377925.467926","378692.127183","379441.53643","380207.912175","380975.08806","370274.9839","371042.031478","371808.43103","372575.204371","373342.336663","374108.61069","374858.261711","375624.962088","380216.715573","Mapping"
"Blocked","m150","ball","4","m150knife.wav","None","729.094094597","161","384108.775479","376391.782115","377158.36717","377925.467926","378692.127183","379441.53643","380207.912175","380975.08806","370274.9839","371042.031478","371808.43103","372575.204371","373342.336663","374108.61069","374858.261711","375624.962088","380984.64244","Mapping"
"Blocked","m150","ball","4","m150ball.wav","None","720.248959027","161","384108.775479","376391.782115","377158.36717","377925.467926","378692.127183","379441.53643","380207.912175","380975.08806","384857.736116","371042.031478","371808.43103","372575.204371","373342.336663","374108.61069","374858.261711","375624.962088","384118.205262","Mapping"
"Blocked","m150","ball","4","m150knife.wav","space","357.516758144","161","384108.775479","376391.782115","377158.36717","377925.467926","378692.127183","379441.53643","380207.912175","380975.08806","384857.736116","385624.948175","371808.43103","372575.204371","373342.336663","374108.61069","374858.261711","375624.962088","384866.620208","Mapping"
"Blocked","m150","ball","4","m150reek.wav","None","732.024129014","161","384108.775479","376391.782115","377158.36717","377925.467926","378692.127183","379441.53643","380207.912175","380975.08806","384857.736116","385624.948175","386391.239206","372575.204371","373342.336663","374108.61069","374858.261711","375624.962088","385633.825156","Mapping"
"Blocked","m150","ball","4","m150cling.wav","None","729.369876906","161","384108.775479","376391.782115","377158.36717","377925.467926","378692.127183","379441.53643","380207.912175","380975.08806","384857.736116","385624.948175","386391.239206","387158.300079","373342.336663","374108.61069","374858.261711","375624.962088","386400.327353","Mapping"
"Blocked","m150","ball","4","m150knife.wav","None","726.337506436","161","384108.775479","376391.782115","377158.36717","377925.467926","378692.127183","379441.53643","380207.912175","380975.08806","384857.736116","385624.948175","386391.239206","387158.300079","387925.334363","374108.61069","374858.261711","375624.962088","387167.432746","Mapping"
"Blocked","m150","ball","4","m150gnash.wav","space","584.744837601","161","384108.775479","376391.782115","377158.36717","377925.467926","378692.127183","379441.53643","380207.912175","380975.08806","384857.736116","385624.948175","386391.239206","387158.300079","387925.334363","388691.468026","374858.261711","375624.962088","387935.321894","Mapping"
"Blocked","m150","ball","4","m150priest.wav","None","720.985409338","161","384108.775479","376391.782115","377158.36717","377925.467926","378692.127183","379441.53643","380207.912175","380975.08806","384857.736116","385624.948175","386391.239206","387158.300079","387925.334363","388691.468026","389441.127703","375624.962088","388700.403749","Mapping"
"Blocked","m150","ball","4","m150ball.wav","None","735.815519933","161","384108.775479","376391.782115","377158.36717","377925.467926","378692.127183","379441.53643","380207.912175","380975.08806","384857.736116","385624.948175","386391.239206","387158.300079","387925.334363","388691.468026","389441.127703","390208.108191","389449.893073","Mapping"
"Blocked","m150","ball","4","m150done.wav","space","526.573590934","161","384108.775479","390974.522274","377158.36717","377925.467926","378692.127183","379441.53643","380207.912175","380975.08806","384857.736116","385624.948175","386391.239206","387158.300079","387925.334363","388691.468026","389441.127703","390208.108191","390217.445531","Mapping"
"Blocked","m150","ball","4","m150lash.wav","None","729.886814486","161","384108.775479","390974.522274","391741.571088","377925.467926","378692.127183","379441.53643","380207.912175","380975.08806","384857.736116","385624.948175","386391.239206","387158.300079","387925.334363","388691.468026","389441.127703","390208.108191","390983.362154","Mapping"
"Blocked","m150","ball","4","m150cling.wav","None","726.236715913","161","384108.775479","390974.522274","391741.571088","392508.444293","378692.127183","379441.53643","380207.912175","380975.08806","384857.736116","385624.948175","386391.239206","387158.300079","387925.334363","388691.468026","389441.127703","390208.108191","391750.900699","Mapping"
"Blocked","m150","ball","4","m150ball.wav","None","723.226605915","161","384108.775479","390974.522274","391741.571088","392508.444293","393275.422308","379441.53643","380207.912175","380975.08806","384857.736116","385624.948175","386391.239206","387158.300079","387925.334363","388691.468026","389441.127703","390208.108191","392517.879641","Mapping"
"Blocked","m150","ball","4","m150dime.wav","space","411.059063859","161","384108.775479","390974.522274","391741.571088","392508.444293","393275.422308","394024.802802","380207.912175","380975.08806","384857.736116","385624.948175","386391.239206","387158.300079","387925.334363","388691.468026","389441.127703","390208.108191","393284.903413","Mapping"
"Blocked","m150","ball","4","m150ball.wav","None","734.410327859","161","384108.775479","390974.522274","391741.571088","392508.444293","393275.422308","394024.802802","394791.164943","380975.08806","384857.736116","385624.948175","386391.239206","387158.300079","387925.334363","388691.468026","389441.127703","390208.108191","394034.166112","Mapping"
"Blocked","m150","ball","4","m150knife.wav","None","734.74980006","161","384108.775479","390974.522274","391741.571088","392508.444293","393275.422308","394024.802802","394791.164943","395557.982806","384857.736116","385624.948175","386391.239206","387158.300079","387925.334363","388691.468026","389441.127703","390208.108191","394800.077788","Mapping"
"Blocked","m150","done","21","m150knife.wav","space","0.926901120692","161","398691.763904","390974.522274","391741.571088","392508.444293","393275.422308","394024.802802","394791.164943","395557.982806","384857.736116","385624.948175","386391.239206","387158.300079","387925.334363","388691.468026","389441.127703","390208.108191","395567.012209","Mapping"
"Blocked","m150","done","21","m150done.wav","None","719.536314253","161","398691.763904","390974.522274","391741.571088","392508.444293","393275.422308","394024.802802","394791.164943","395557.982806","399440.939726","385624.948175","386391.239206","387158.300079","387925.334363","388691.468026","389441.127703","390208.108191","398701.827183","Mapping"
"Blocked","m150","done","21","m150knife.wav","space","542.203532998","161","398691.763904","390974.522274","391741.571088","392508.444293","393275.422308","394024.802802","394791.164943","395557.982806","399440.939726","400208.042337","386391.239206","387158.300079","387925.334363","388691.468026","389441.127703","390208.108191","399449.631203","Mapping"
"Blocked","m150","done","21","m150done.wav","None","731.84851883","161","398691.763904","390974.522274","391741.571088","392508.444293","393275.422308","394024.802802","394791.164943","395557.982806","399440.939726","400208.042337","400974.6546","387158.300079","387925.334363","388691.468026","389441.127703","390208.108191","400217.03835","Mapping"
"Blocked","m150","done","21","m150lash.wav","space","360.110411886","161","398691.763904","390974.522274","391741.571088","392508.444293","393275.422308","394024.802802","394791.164943","395557.982806","399440.939726","400208.042337","400974.6546","401741.006847","387925.334363","388691.468026","389441.127703","390208.108191","400983.712756","Mapping"
"Blocked","m150","done","21","m150knife.wav","None","726.555473637","161","398691.763904","390974.522274","391741.571088","392508.444293","393275.422308","394024.802802","394791.164943","395557.982806","399440.939726","400208.042337","400974.6546","401741.006847","402507.868303","388691.468026","389441.127703","390208.108191","401749.835288","Mapping"
"Blocked","m150","done","21","m150done.wav","None","723.623274826","161","398691.763904","390974.522274","391741.571088","392508.444293","393275.422308","394024.802802","394791.164943","395557.982806","399440.939726","400208.042337","400974.6546","401741.006847","402507.868303","403274.419659","389441.127703","390208.108191","402516.708493","Mapping"
"Blocked","m150","done","21","m150cling.wav","space","324.450375047","161","398691.763904","390974.522274","391741.571088","392508.444293","393275.422308","394024.802802","394791.164943","395557.982806","399440.939726","400208.042337","400974.6546","401741.006847","402507.868303","403274.419659","404024.19002","390208.108191","403283.327866","Mapping"
"Blocked","m150","done","21","m150cling.wav","None","735.227472614","161","398691.763904","390974.522274","391741.571088","392508.444293","393275.422308","394024.802802","394791.164943","395557.982806","399440.939726","400208.042337","400974.6546","401741.006847","402507.868303","403274.419659","404024.19002","404790.897199","404032.781325","Mapping"
"Blocked","m150","done","21","m150reek.wav","None","732.428836636","161","398691.763904","405557.7568","391741.571088","392508.444293","393275.422308","394024.802802","394791.164943","395557.982806","399440.939726","400208.042337","400974.6546","401741.006847","402507.868303","403274.419659","404024.19002","404790.897199","404800.018118","Mapping"
"Blocked","m150","done","21","m150gnash.wav","None","728.809964377","161","398691.763904","405557.7568","406324.696477","392508.444293","393275.422308","394024.802802","394791.164943","395557.982806","399440.939726","400208.042337","400974.6546","401741.006847","402507.868303","403274.419659","404024.19002","404790.897199","405567.675695","Mapping"
"Blocked","m150","done","21","m150dime.wav","None","726.304424927","161","398691.763904","405557.7568","406324.696477","407091.619459","393275.422308","394024.802802","394791.164943","395557.982806","399440.939726","400208.042337","400974.6546","401741.006847","402507.868303","403274.419659","404024.19002","404790.897199","406334.138936","Mapping"
"Blocked","m150","done","21","m150priest.wav","space","345.996037126","161","398691.763904","405557.7568","406324.696477","407091.619459","407858.495755","394024.802802","394791.164943","395557.982806","399440.939726","400208.042337","400974.6546","401741.006847","402507.868303","403274.419659","404024.19002","404790.897199","407101.709635","Mapping"
"Blocked","m150","done","21","m150park.wav","None","719.899283722","161","398691.763904","405557.7568","406324.696477","407091.619459","407858.495755","408607.370133","394791.164943","395557.982806","399440.939726","400208.042337","400974.6546","401741.006847","402507.868303","403274.419659","404024.19002","404790.897199","407867.982117","Mapping"
"Blocked","m150","done","21","m150done.wav","None","735.614866484","161","398691.763904","405557.7568","406324.696477","407091.619459","407858.495755","408607.370133","409374.544472","395557.982806","399440.939726","400208.042337","400974.6546","401741.006847","402507.868303","403274.419659","404024.19002","404790.897199","408616.2972","Mapping"
"Blocked","m150","done","21","m150dime.wav","space","552.27886932","161","398691.763904","405557.7568","406324.696477","407091.619459","407858.495755","408607.370133","409374.544472","410140.817881","399440.939726","400208.042337","400974.6546","401741.006847","402507.868303","403274.419659","404024.19002","404790.897199","409383.38497","Mapping"
"Blocked","m150","cave","10","m150bluff.wav","None","729.833018966","161","413274.762841","405557.7568","406324.696477","407091.619459","407858.495755","408607.370133","409374.544472","410140.817881","399440.939726","400208.042337","400974.6546","401741.006847","402507.868303","403274.419659","404024.19002","404790.897199","410149.62437","Mapping"
"Blocked","m150","cave","10","m150knife.wav","None","719.56012072","161","413274.762841","405557.7568","406324.696477","407091.619459","407858.495755","408607.370133","409374.544472","410140.817881","414024.502594","400208.042337","400974.6546","401741.006847","402507.868303","403274.419659","404024.19002","404790.897199","413284.342263","Mapping"
"Blocked","m150","cave","10","m150reek.wav","None","734.406926669","161","413274.762841","405557.7568","406324.696477","407091.619459","407858.495755","408607.370133","409374.544472","410140.817881","414024.502594","414791.134953","400974.6546","401741.006847","402507.868303","403274.419659","404024.19002","404790.897199","414033.460888","Mapping"
"Blocked","m150","cave","10","m150cave.wav","None","737.412708811","161","413274.762841","405557.7568","406324.696477","407091.619459","407858.495755","408607.370133","409374.544472","410140.817881","414024.502594","414791.134953","415557.632203","401741.006847","402507.868303","403274.419659","404024.19002","404790.897199","414795.033009","Mapping"
"Blocked","m150","cave","10","m150knife.wav","space","360.467507038","161","413274.762841","405557.7568","406324.696477","407091.619459","407858.495755","408607.370133","409374.544472","410140.817881","414024.502594","414791.134953","415557.632203","416324.5085","402507.868303","403274.419659","404024.19002","404790.897199","415567.103724","Mapping"
"Blocked","m150","cave","10","m150gnash.wav","None","726.312463172","161","413274.762841","405557.7568","406324.696477","407091.619459","407858.495755","408607.370133","409374.544472","410140.817881","414024.502594","414791.134953","415557.632203","416324.5085","417091.566899","403274.419659","404024.19002","404790.897199","416333.483798","Mapping"
"Blocked","m150","cave","10","m150cad.wav","None","722.489845939","161","413274.762841","405557.7568","406324.696477","407091.619459","407858.495755","408607.370133","409374.544472","410140.817881","414024.502594","414791.134953","415557.632203","416324.5085","417091.566899","417857.801661","404024.19002","404790.897199","417101.24062","Mapping"
"Blocked","m150","cave","10","m150cave.wav","None","719.528276008","161","413274.762841","405557.7568","406324.696477","407091.619459","407858.495755","408607.370133","409374.544472","410140.817881","414024.502594","414791.134953","415557.632203","416324.5085","417091.566899","417857.801661","418607.155567","404790.897199","417868.272739","Mapping"
"Blocked","m150","cave","10","m150park.wav","space","567.461746745","161","413274.762841","405557.7568","406324.696477","407091.619459","407858.495755","408607.370133","409374.544472","410140.817881","414024.502594","414791.134953","415557.632203","416324.5085","417091.566899","417857.801661","418607.155567","419374.444918","418616.059445","Mapping"
"Blocked","m150","cave","10","m150bluff.wav","None","731.885928661","161","413274.762841","420141.009259","406324.696477","407091.619459","407858.495755","408607.370133","409374.544472","410140.817881","414024.502594","414791.134953","415557.632203","416324.5085","417091.566899","417857.801661","418607.155567","419374.444918","419383.503693","Mapping"
"Blocked","m150","cave","10","m150knife.wav","None","729.207252152","161","413274.762841","420141.009259","420907.548557","407091.619459","407858.495755","408607.370133","409374.544472","410140.817881","414024.502594","414791.134953","415557.632203","416324.5085","417091.566899","417857.801661","418607.155567","419374.444918","420150.175008","Mapping"
"Blocked","m150","cave","10","m150cave.wav","None","726.211363915","161","413274.762841","420141.009259","420907.548557","421674.757833","407858.495755","408607.370133","409374.544472","410140.817881","414024.502594","414791.134953","415557.632203","416324.5085","417091.566899","417857.801661","418607.155567","419374.444918","420917.255668","Mapping"
"Blocked","m150","cave","10","m150jaw.wav","space","403.039110824","161","413274.762841","420141.009259","420907.548557","421674.757833","422440.776482","408607.370133","409374.544472","410140.817881","414024.502594","414791.134953","415557.632203","416324.5085","417091.566899","417857.801661","418607.155567","419374.444918","421684.404964","Mapping"
"Blocked","m150","cave","10","m150jaw.wav","None","703.778992873","161","413274.762841","420141.009259","420907.548557","421674.757833","422440.776482","423190.668349","409374.544472","410140.817881","414024.502594","414791.134953","415557.632203","416324.5085","417091.566899","417857.801661","418607.155567","419374.444918","422467.056514","Mapping"
"Blocked","m150","cave","10","m150cave.wav","None","735.227472614","161","413274.762841","420141.009259","420907.548557","421674.757833","422440.776482","423190.668349","423957.571853","410140.817881","414024.502594","414791.134953","415557.632203","416324.5085","417091.566899","417857.801661","418607.155567","419374.444918","423199.742273","Mapping"
"Blocked","m150","cave","10","m150dime.wav","space","600.687663071","161","413274.762841","420141.009259","420907.548557","421674.757833","422440.776482","423190.668349","423957.571853","424724.285833","414024.502594","414791.134953","415557.632203","416324.5085","417091.566899","417857.801661","418607.155567","419374.444918","423966.685969","Mapping"
"Blocked","m150","tile","14","m150gnash.wav","None","729.275579099","161","427857.752194","420141.009259","420907.548557","421674.757833","422440.776482","423190.668349","423957.571853","424724.285833","414024.502594","414791.134953","415557.632203","416324.5085","417091.566899","417857.801661","418607.155567","419374.444918","424733.218156","Mapping"
"Blocked","m150","tile","14","m150tile.wav","None","719.031743705","161","427857.752194","420141.009259","420907.548557","421674.757833","422440.776482","423190.668349","423957.571853","424724.285833","428607.313245","414791.134953","415557.632203","416324.5085","417091.566899","417857.801661","418607.155567","419374.444918","427867.862775","Mapping"
"Blocked","m150","tile","14","m150done.wav","space","567.042508163","161","427857.752194","420141.009259","420907.548557","421674.757833","422440.776482","423190.668349","423957.571853","424724.285833","428607.313245","429374.243337","415557.632203","416324.5085","417091.566899","417857.801661","418607.155567","419374.444918","428616.298745","Mapping"
"Blocked","m150","tile","14","m150dime.wav","None","731.377029791","161","427857.752194","420141.009259","420907.548557","421674.757833","422440.776482","423190.668349","423957.571853","424724.285833","428607.313245","429374.243337","430140.923618","416324.5085","417091.566899","417857.801661","418607.155567","419374.444918","429383.263465","Mapping"
"Blocked","m150","tile","14","m150tile.wav","None","728.649503551","161","427857.752194","420141.009259","420907.548557","421674.757833","422440.776482","423190.668349","423957.571853","424724.285833","428607.313245","429374.243337","430140.923618","430907.306783","417091.566899","417857.801661","418607.155567","419374.444918","430150.236224","Mapping"
"Blocked","m150","tile","14","m150greet.wav","space","499.063978437","161","427857.752194","420141.009259","420907.548557","421674.757833","422440.776482","423190.668349","423957.571853","424724.285833","428607.313245","429374.243337","430140.923618","430907.306783","431674.432273","417857.801661","418607.155567","419374.444918","430916.235705","Mapping"
"Blocked","m150","tile","14","m150tile.wav","None","722.096577752","161","427857.752194","420141.009259","420907.548557","421674.757833","422440.776482","423190.668349","423957.571853","424724.285833","428607.313245","429374.243337","430140.923618","430907.306783","431674.432273","432441.084419","418607.155567","419374.444918","431684.579956","Mapping"
"Blocked","m150","tile","14","m150depth.wav","space","652.567235287","161","427857.752194","420141.009259","420907.548557","421674.757833","422440.776482","423190.668349","423957.571853","424724.285833","428607.313245","429374.243337","430140.923618","430907.306783","431674.432273","432441.084419","433190.622282","419374.444918","432450.684556","Mapping"
"Blocked","m150","tile","14","m150depth.wav","None","734.449902084","161","427857.752194","420141.009259","420907.548557","421674.757833","422440.776482","423190.668349","423957.571853","424724.285833","428607.313245","429374.243337","430140.923618","430907.306783","431674.432273","432441.084419","433190.622282","433957.315858","433200.146053","Mapping"
"Blocked","m150","tile","14","m150lash.wav","None","732.184280641","161","427857.752194","434723.704897","420907.548557","421674.757833","422440.776482","423190.668349","423957.571853","424724.285833","428607.313245","429374.243337","430140.923618","430907.306783","431674.432273","432441.084419","433190.622282","433957.315858","433966.671438","Mapping"
"Blocked","m150","tile","14","m150priest.wav","None","730.952225626","161","427857.752194","434723.704897","435490.635917","421674.757833","422440.776482","423190.668349","423957.571853","424724.285833","428607.313245","429374.243337","430140.923618","430907.306783","431674.432273","432441.084419","433190.622282","433957.315858","434732.236531","Mapping"
"Blocked","m150","tile","14","m150tile.wav","None","728.223462589","161","427857.752194","434723.704897","435490.635917","436257.327328","422440.776482","423190.668349","423957.571853","424724.285833","428607.313245","429374.243337","430140.923618","430907.306783","431674.432273","432441.084419","433190.622282","433957.315858","435499.570404","Mapping"
"Blocked","m150","tile","14","m150park.wav","space","356.192260049","161","427857.752194","434723.704897","435490.635917","436257.327328","437023.886722","423190.668349","423957.571853","424724.285833","428607.313245","429374.243337","430140.923618","430907.306783","431674.432273","432441.084419","433190.622282","433957.315858","436267.027019","Mapping"
"Blocked","m150","tile","14","m150romp.wav","None","723.048830871","161","427857.752194","434723.704897","435490.635917","436257.327328","437023.886722","437790.409324","423957.571853","424724.285833","428607.313245","429374.243337","430140.923618","430907.306783","431674.432273","432441.084419","433190.622282","433957.315858","437032.67126","Mapping"
"Blocked","m150","tile","14","m150cave.wav","None","721.454424784","161","427857.752194","434723.704897","435490.635917","436257.327328","437023.886722","437790.409324","438540.52565","424724.285833","428607.313245","429374.243337","430140.923618","430907.306783","431674.432273","432441.084419","433190.622282","433957.315858","437799.155834","Mapping"
"Blocked","m150","tile","14","m150reek.wav","None","735.342485365","161","427857.752194","434723.704897","435490.635917","436257.327328","437023.886722","437790.409324","438540.52565","439307.275495","428607.313245","429374.243337","430140.923618","430907.306783","431674.432273","432441.084419","433190.622282","433957.315858","438549.58628","Mapping"
"Blocked","m150","ball","5","m150gnash.wav","None","732.535192277","161","442440.202966","434723.704897","435490.635917","436257.327328","437023.886722","437790.409324","438540.52565","439307.275495","428607.313245","429374.243337","430140.923618","430907.306783","431674.432273","432441.084419","433190.622282","433957.315858","439316.570787","Mapping"
"Blocked","m150","ball","5","m150dime.wav","None","721.765762661","161","442440.202966","434723.704897","435490.635917","436257.327328","437023.886722","437790.409324","438540.52565","439307.275495","443190.389784","429374.243337","430140.923618","430907.306783","431674.432273","432441.084419","433190.622282","433957.315858","442448.810039","Mapping"
"Blocked","m150","ball","5","m150park.wav","None","735.280959401","161","442440.202966","434723.704897","435490.635917","436257.327328","437023.886722","437790.409324","438540.52565","439307.275495","443190.389784","443956.991844","430140.923618","430907.306783","431674.432273","432441.084419","433190.622282","433957.315858","443199.737327","Mapping"
"Blocked","m150","ball","5","m150dime.wav","None","733.606477268","161","442440.202966","434723.704897","435490.635917","436257.327328","437023.886722","437790.409324","438540.52565","439307.275495","443190.389784","443956.991844","444723.543818","430907.306783","431674.432273","432441.084419","433190.622282","433957.315858","443965.715166","Mapping"
"Blocked","m150","ball","5","m150bluff.wav","None","731.227080338","161","442440.202966","434723.704897","435490.635917","436257.327328","437023.886722","437790.409324","438540.52565","439307.275495","443190.389784","443956.991844","444723.543818","445490.529871","431674.432273","432441.084419","433190.622282","433957.315858","444732.344433","Mapping"
"Blocked","m150","ball","5","m150ball.wav","space","290.914048906","161","442440.202966","434723.704897","435490.635917","436257.327328","437023.886722","437790.409324","438540.52565","439307.275495","443190.389784","443956.991844","444723.543818","445490.529871","446256.985073","432441.084419","433190.622282","433957.315858","445500.105583","Mapping"
"Blocked","m150","ball","5","m150gnash.wav","space","0.0469945371151","161","442440.202966","434723.704897","435490.635917","436257.327328","437023.886722","437790.409324","438540.52565","439307.275495","443190.389784","443956.991844","444723.543818","445490.529871","446256.985073","447024.330385","433190.622282","433957.315858","446266.068581","Mapping"
"Blocked","m150","ball","5","m150reek.wav","space","0.0340091064572","161","442440.202966","434723.704897","435490.635917","436257.327328","437023.886722","437790.409324","438540.52565","439307.275495","443190.389784","443956.991844","444723.543818","445490.529871","446256.985073","447024.330385","447773.902876","433957.315858","447034.510222","Mapping"
"Blocked","m150","ball","5","m150ball.wav","None","736.350698862","161","442440.202966","434723.704897","435490.635917","436257.327328","437023.886722","437790.409324","438540.52565","439307.275495","443190.389784","443956.991844","444723.543818","445490.529871","446256.985073","447024.330385","447773.902876","448540.463506","447782.973708","Mapping"
"Blocked","m150","ball","5","m150romp.wav","space","696.93358941","161","442440.202966","449306.736606","435490.635917","436257.327328","437023.886722","437790.409324","438540.52565","439307.275495","443190.389784","443956.991844","444723.543818","445490.529871","446256.985073","447024.330385","447773.902876","448540.463506","448550.017577","Mapping"
"Blocked","m150","ball","5","m150ball.wav","None","731.646010187","161","442440.202966","449306.736606","450073.884047","436257.327328","437023.886722","437790.409324","438540.52565","439307.275495","443190.389784","443956.991844","444723.543818","445490.529871","446256.985073","447024.330385","447773.902876","448540.463506","449315.297612","Mapping"
"Blocked","m150","ball","5","m150reek.wav","space","516.057992354","161","442440.202966","449306.736606","450073.884047","450840.412524","437023.886722","437790.409324","438540.52565","439307.275495","443190.389784","443956.991844","444723.543818","445490.529871","446256.985073","447024.330385","447773.902876","448540.463506","450082.874804","Mapping"
"Blocked","m150","ball","5","m150ball.wav","None","717.236065771","161","442440.202966","449306.736606","450073.884047","450840.412524","451606.969753","437790.409324","438540.52565","439307.275495","443190.389784","443956.991844","444723.543818","445490.529871","446256.985073","447024.330385","447773.902876","448540.463506","450857.771362","Mapping"
"Blocked","m150","ball","5","m150gnash.wav","space","366.791953798","161","442440.202966","449306.736606","450073.884047","450840.412524","451606.969753","452374.165116","438540.52565","439307.275495","443190.389784","443956.991844","444723.543818","445490.529871","446256.985073","447024.330385","447773.902876","448540.463506","451616.090363","Mapping"
"Blocked","m150","ball","5","m150dime.wav","None","718.638475519","161","442440.202966","449306.736606","450073.884047","450840.412524","451606.969753","452374.165116","453123.623832","439307.275495","443190.389784","443956.991844","444723.543818","445490.529871","446256.985073","447024.330385","447773.902876","448540.463506","452384.352992","Mapping"
"Blocked","m150","ball","5","m150lash.wav","None","734.296552371","161","442440.202966","449306.736606","450073.884047","450840.412524","451606.969753","452374.165116","453123.623832","453890.330392","443190.389784","443956.991844","444723.543818","445490.529871","446256.985073","447024.330385","447773.902876","448540.463506","453132.860999","Mapping"
"Blocked","m150","done","24","m150romp.wav","None","731.35446012","161","457024.016883","449306.736606","450073.884047","450840.412524","451606.969753","452374.165116","453123.623832","453890.330392","443190.389784","443956.991844","444723.543818","445490.529871","446256.985073","447024.330385","447773.902876","448540.463506","453900.263818","Mapping"
"Blocked","m150","done","24","m150done.wav","None","718.322500587","161","457024.016883","449306.736606","450073.884047","450840.412524","451606.969753","452374.165116","453123.623832","453890.330392","457773.151894","443956.991844","444723.543818","445490.529871","446256.985073","447024.330385","447773.902876","448540.463506","457034.75014","Mapping"
"Blocked","m150","done","24","m150knife.wav","space","472.10222017","161","457024.016883","449306.736606","450073.884047","450840.412524","451606.969753","452374.165116","453123.623832","453890.330392","457773.151894","458540.145367","444723.543818","445490.529871","446256.985073","447024.330385","447773.902876","448540.463506","457782.667936","Mapping"
"Blocked","m150","done","24","m150done.wav","None","732.196956873","161","457024.016883","449306.736606","450073.884047","450840.412524","451606.969753","452374.165116","453123.623832","453890.330392","457773.151894","458540.145367","459307.053508","445490.529871","446256.985073","447024.330385","447773.902876","448540.463506","458548.916302","Mapping"
"Blocked","m150","done","24","m150park.wav","space","490.001493134","161","457024.016883","449306.736606","450073.884047","450840.412524","451606.969753","452374.165116","453123.623832","453890.330392","457773.151894","458540.145367","459307.053508","460073.688959","446256.985073","447024.330385","447773.902876","448540.463506","459316.769276","Mapping"
"Blocked","m150","done","24","m150knife.wav","None","725.845302455","161","457024.016883","449306.736606","450073.884047","450840.412524","451606.969753","452374.165116","453123.623832","453890.330392","457773.151894","458540.145367","459307.053508","460073.688959","460840.605139","447024.330385","447773.902876","448540.463506","460083.031864","Mapping"
"Blocked","m150","done","24","m150done.wav","None","723.168171942","161","457024.016883","449306.736606","450073.884047","450840.412524","451606.969753","452374.165116","453123.623832","453890.330392","457773.151894","458540.145367","459307.053508","460073.688959","460840.605139","461607.366113","447773.902876","448540.463506","460850.423552","Mapping"
"Blocked","m150","done","24","m150bluff.wav","space","549.45766367","161","457024.016883","449306.736606","450073.884047","450840.412524","451606.969753","452374.165116","453123.623832","453890.330392","457773.151894","458540.145367","459307.053508","460073.688959","460840.605139","461607.366113","462356.51751","448540.463506","461617.269859","Mapping"
"Blocked","m150","done","24","m150cling.wav","None","735.577456653","161","457024.016883","449306.736606","450073.884047","450840.412524","451606.969753","452374.165116","453123.623832","453890.330392","457773.151894","458540.145367","459307.053508","460073.688959","460840.605139","461607.366113","462356.51751","463123.572818","462365.977901","Mapping"
"Blocked","m150","done","24","m150cad.wav","None","732.650204562","161","457024.016883","463890.327609","450073.884047","450840.412524","451606.969753","452374.165116","453123.623832","453890.330392","457773.151894","458540.145367","459307.053508","460073.688959","460840.605139","461607.366113","462356.51751","463123.572818","463133.159042","Mapping"
"Blocked","m150","done","24","m150cad.wav","None","730.682935566","161","457024.016883","463890.327609","464656.426644","450840.412524","451606.969753","452374.165116","453123.623832","453890.330392","457773.151894","458540.145367","459307.053508","460073.688959","460840.605139","461607.366113","462356.51751","463123.572818","463899.689065","Mapping"
"Blocked","m150","done","24","m150done.wav","None","729.446243029","161","457024.016883","463890.327609","464656.426644","465423.513178","451606.969753","452374.165116","453123.623832","453890.330392","457773.151894","458540.145367","459307.053508","460073.688959","460840.605139","461607.366113","462356.51751","463123.572818","464665.35773","Mapping"
"Blocked","m150","done","24","m150dime.wav","space","422.00935958","161","457024.016883","463890.327609","464656.426644","465423.513178","466190.50356","452374.165116","453123.623832","453890.330392","457773.151894","458540.145367","459307.053508","460073.688959","460840.605139","461607.366113","462356.51751","463123.572818","465432.66285","Mapping"
"Blocked","m150","done","24","m150greet.wav","None","721.978164744","161","457024.016883","463890.327609","464656.426644","465423.513178","466190.50356","466956.957216","453123.623832","453890.330392","457773.151894","458540.145367","459307.053508","460073.688959","460840.605139","461607.366113","462356.51751","463123.572818","466200.589717","Mapping"
"Blocked","m150","done","24","m150ball.wav","None","720.333672129","161","457024.016883","463890.327609","464656.426644","465423.513178","466190.50356","466956.957216","467706.514867","453890.330392","457773.151894","458540.145367","459307.053508","460073.688959","460840.605139","461607.366113","462356.51751","463123.572818","466966.657525","Mapping"
"Blocked","m150","done","24","m150gnash.wav","None","735.555196181","161","457024.016883","463890.327609","464656.426644","465423.513178","466190.50356","466956.957216","467706.514867","468473.491644","457773.151894","458540.145367","459307.053508","460073.688959","460840.605139","461607.366113","462356.51751","463123.572818","467715.813869","Mapping"
"Blocked","m150","cave","11","m150lash.wav","None","732.120282017","161","471606.989541","463890.327609","464656.426644","465423.513178","466190.50356","466956.957216","467706.514867","468473.491644","457773.151894","458540.145367","459307.053508","460073.688959","460840.605139","461607.366113","462356.51751","463123.572818","468483.621704","Mapping"
"Blocked","m150","cave","11","m150cave.wav","None","719.661838375","161","471606.989541","463890.327609","464656.426644","465423.513178","466190.50356","466956.957216","467706.514867","468473.491644","472356.477009","458540.145367","459307.053508","460073.688959","460840.605139","461607.366113","462356.51751","463123.572818","471617.275115","Mapping"
"Blocked","m150","cave","11","m150dime.wav","space","472.482502926","161","471606.989541","463890.327609","464656.426644","465423.513178","466190.50356","466956.957216","467706.514867","468473.491644","472356.477009","473123.469863","459307.053508","460073.688959","460840.605139","461607.366113","462356.51751","463123.572818","472366.084875","Mapping"
"Blocked","m150","cave","11","m150cave.wav","None","731.607672758","161","471606.989541","463890.327609","464656.426644","465423.513178","466190.50356","466956.957216","467706.514867","468473.491644","472356.477009","473123.469863","473889.977625","460073.688959","460840.605139","461607.366113","462356.51751","463123.572818","473133.280238","Mapping"
"Blocked","m150","cave","11","m150jolt.wav","space","418.551257811","161","471606.989541","463890.327609","464656.426644","465423.513178","466190.50356","466956.957216","467706.514867","468473.491644","472356.477009","473123.469863","473889.977625","474656.543821","460840.605139","461607.366113","462356.51751","463123.572818","473899.951862","Mapping"
"Blocked","m150","cave","11","m150cling.wav","None","726.901128888","161","471606.989541","463890.327609","464656.426644","465423.513178","466190.50356","466956.957216","467706.514867","468473.491644","472356.477009","473123.469863","473889.977625","474656.543821","475423.743512","461607.366113","462356.51751","463123.572818","474665.883943","Mapping"
"Blocked","m150","cave","11","m150lash.wav","None","722.773666959","161","471606.989541","463890.327609","464656.426644","465423.513178","466190.50356","466956.957216","467706.514867","468473.491644","472356.477009","473123.469863","473889.977625","474656.543821","475423.743512","476190.503251","462356.51751","463123.572818","475434.370414","Mapping"
"Blocked","m150","cave","11","m150cling.wav","None","720.67778185","161","471606.989541","463890.327609","464656.426644","465423.513178","466190.50356","466956.957216","467706.514867","468473.491644","472356.477009","473123.469863","473889.977625","474656.543821","475423.743512","476190.503251","476956.497167","463123.572818","476200.936609","Mapping"
"Blocked","m150","cave","11","m150reek.wav","None","720.835769083","161","471606.989541","463890.327609","464656.426644","465423.513178","466190.50356","466956.957216","467706.514867","468473.491644","472356.477009","473123.469863","473889.977625","474656.543821","475423.743512","476190.503251","476956.497167","477706.355024","476965.533063","Mapping"
"Blocked","m150","cave","11","m150dime.wav","None","735.223453492","161","471606.989541","478473.303049","464656.426644","465423.513178","466190.50356","466956.957216","467706.514867","468473.491644","472356.477009","473123.469863","473889.977625","474656.543821","475423.743512","476190.503251","476956.497167","477706.355024","477715.545197","Mapping"
"Blocked","m150","cave","11","m150cave.wav","None","732.720696367","161","471606.989541","478473.303049","479239.981784","465423.513178","466190.50356","466956.957216","467706.514867","468473.491644","472356.477009","473123.469863","473889.977625","474656.543821","475423.743512","476190.503251","476956.497167","477706.355024","478482.425513","Mapping"
"Blocked","m150","cave","11","m150depth.wav","space","557.070126291","161","471606.989541","478473.303049","479239.981784","480006.478725","466190.50356","466956.957216","467706.514867","468473.491644","472356.477009","473123.469863","473889.977625","474656.543821","475423.743512","476190.503251","476956.497167","477706.355024","479249.333964","Mapping"
"Blocked","m150","cave","11","m150jolt.wav","None","726.476325188","161","471606.989541","478473.303049","479239.981784","480006.478725","480772.893426","466956.957216","467706.514867","468473.491644","472356.477009","473123.469863","473889.977625","474656.543821","475423.743512","476190.503251","476956.497167","477706.355024","480016.391436","Mapping"
"Blocked","m150","cave","11","m150cave.wav","None","725.216444116","161","471606.989541","478473.303049","479239.981784","480006.478725","480772.893426","481539.828465","467706.514867","468473.491644","472356.477009","473123.469863","473889.977625","474656.543821","475423.743512","476190.503251","476956.497167","477706.355024","480782.55076","Mapping"
"Blocked","m150","cave","11","m150gnash.wav","space","569.045950193","161","471606.989541","478473.303049","479239.981784","480006.478725","480772.893426","481539.828465","482306.373328","468473.491644","472356.477009","473123.469863","473889.977625","474656.543821","475423.743512","476190.503251","476956.497167","477706.355024","481549.345743","Mapping"
"Blocked","m150","cave","11","m150knife.wav","None","720.529997256","161","471606.989541","478473.303049","479239.981784","480006.478725","480772.893426","481539.828465","482306.373328","483056.281271","472356.477009","473123.469863","473889.977625","474656.543821","475423.743512","476190.503251","476956.497167","477706.355024","482315.154774","Mapping"
"Blocked","m150","tile","16","m150park.wav","None","734.647464007","161","486190.163469","478473.303049","479239.981784","480006.478725","480772.893426","481539.828465","482306.373328","483056.281271","472356.477009","473123.469863","473889.977625","474656.543821","475423.743512","476190.503251","476956.497167","477706.355024","483065.594495","Mapping"
"Blocked","m150","tile","16","m150tile.wav","None","719.639577903","161","486190.163469","478473.303049","479239.981784","480006.478725","480772.893426","481539.828465","482306.373328","483056.281271","486939.292915","473123.469863","473889.977625","474656.543821","475423.743512","476190.503251","476956.497167","477706.355024","486200.121629","Mapping"
"Blocked","m150","tile","16","m150cling.wav","space","425.892884377","161","486190.163469","478473.303049","479239.981784","480006.478725","480772.893426","481539.828465","482306.373328","483056.281271","486939.292915","487706.458907","473889.977625","474656.543821","475423.743512","476190.503251","476956.497167","477706.355024","486948.408268","Mapping"
"Blocked","m150","tile","16","m150tile.wav","None","731.886547059","161","486190.163469","478473.303049","479239.981784","480006.478725","480772.893426","481539.828465","482306.373328","483056.281271","486939.292915","487706.458907","488472.742827","474656.543821","475423.743512","476190.503251","476956.497167","477706.355024","487716.29989","Mapping"
"Blocked","m150","tile","16","m150reek.wav","space","620.382923633","161","486190.163469","478473.303049","479239.981784","480006.478725","480772.893426","481539.828465","482306.373328","483056.281271","486939.292915","487706.458907","488472.742827","489240.030014","475423.743512","476190.503251","476956.497167","477706.355024","488481.873948","Mapping"
"Blocked","m150","tile","16","m150greet.wav","None","726.853207219","161","486190.163469","478473.303049","479239.981784","480006.478725","480772.893426","481539.828465","482306.373328","483056.281271","486939.292915","487706.458907","488472.742827","489240.030014","490006.285491","476190.503251","476956.497167","477706.355024","489249.367045","Mapping"
"Blocked","m150","tile","16","m150cling.wav","None","728.286534082","161","486190.163469","478473.303049","479239.981784","480006.478725","480772.893426","481539.828465","482306.373328","483056.281271","486939.292915","487706.458907","488472.742827","489240.030014","490006.285491","490772.689989","476956.497167","477706.355024","490014.959346","Mapping"
"Blocked","m150","tile","16","m150priest.wav","None","726.008855272","161","486190.163469","478473.303049","479239.981784","480006.478725","480772.893426","481539.828465","482306.373328","483056.281271","486939.292915","487706.458907","488472.742827","489240.030014","490006.285491","490772.689989","491539.418501","477706.355024","490781.844917","Mapping"
"Blocked","m150","tile","16","m150dime.wav","None","723.850517068","161","486190.163469","478473.303049","479239.981784","480006.478725","480772.893426","481539.828465","482306.373328","483056.281271","486939.292915","487706.458907","488472.742827","489240.030014","490006.285491","490772.689989","491539.418501","492306.126916","491548.611148","Mapping"
"Blocked","m150","tile","16","m150dime.wav","None","721.415778622","161","486190.163469","493056.262102","479239.981784","480006.478725","480772.893426","481539.828465","482306.373328","483056.281271","486939.292915","487706.458907","488472.742827","489240.030014","490006.285491","490772.689989","491539.418501","492306.126916","492315.693044","Mapping"
"Blocked","m150","tile","16","m150dime.wav","None","736.707794014","161","486190.163469","493056.262102","493822.61435","480006.478725","480772.893426","481539.828465","482306.373328","483056.281271","486939.292915","487706.458907","488472.742827","489240.030014","490006.285491","490772.689989","491539.418501","492306.126916","493065.157634","Mapping"
"Blocked","m150","tile","16","m150tile.wav","None","734.730631113","161","486190.163469","493056.262102","493822.61435","494589.258148","480772.893426","481539.828465","482306.373328","483056.281271","486939.292915","487706.458907","488472.742827","489240.030014","490006.285491","490772.689989","491539.418501","492306.126916","493831.707752","Mapping"
"Blocked","m150","tile","16","m150ball.wav","space","520.033650566","161","486190.163469","493056.262102","493822.61435","494589.258148","495356.184531","481539.828465","482306.373328","483056.281271","486939.292915","487706.458907","488472.742827","489240.030014","490006.285491","490772.689989","491539.418501","492306.126916","494598.111941","Mapping"
"Blocked","m150","tile","16","m150tile.wav","None","729.430784006","161","486190.163469","493056.262102","493822.61435","494589.258148","495356.184531","496123.0262","482306.373328","483056.281271","486939.292915","487706.458907","488472.742827","489240.030014","490006.285491","490772.689989","491539.418501","492306.126916","495365.646158","Mapping"
"Blocked","m150","tile","16","m150gnash.wav","space","681.534290314","161","486190.163469","493056.262102","493822.61435","494589.258148","495356.184531","496123.0262","496889.267764","483056.281271","486939.292915","487706.458907","488472.742827","489240.030014","490006.285491","490772.689989","491539.418501","492306.126916","496132.592328","Mapping"
"Blocked","m150","tile","16","m150jolt.wav","None","725.521907676","161","486190.163469","493056.262102","493822.61435","494589.258148","495356.184531","496123.0262","496889.267764","497656.646157","486939.292915","487706.458907","488472.742827","489240.030014","490006.285491","490772.689989","491539.418501","492306.126916","496898.230386","Mapping"
"Blocked","m150","ball","3","m150tile.wav","None","722.106161993","161","500773.184666","493056.262102","493822.61435","494589.258148","495356.184531","496123.0262","496889.267764","497656.646157","486939.292915","487706.458907","488472.742827","489240.030014","490006.285491","490772.689989","491539.418501","492306.126916","497666.471991","Mapping"
"Blocked","m150","ball","3","m150knife.wav","None","719.808387104","161","500773.184666","493056.262102","493822.61435","494589.258148","495356.184531","496123.0262","496889.267764","497656.646157","501522.734897","487706.458907","488472.742827","489240.030014","490006.285491","490772.689989","491539.418501","492306.126916","500783.485081","Mapping"
"Blocked","m150","ball","3","m150ball.wav","None","734.878106974","161","500773.184666","493056.262102","493822.61435","494589.258148","495356.184531","496123.0262","496889.267764","497656.646157","501522.734897","502289.727133","488472.742827","489240.030014","490006.285491","490772.689989","491539.418501","492306.126916","501532.939158","Mapping"
"Blocked","m150","ball","3","m150knife.wav","space","427.079182118","161","500773.184666","493056.262102","493822.61435","494589.258148","495356.184531","496123.0262","496889.267764","497656.646157","501522.734897","502289.727133","503055.72847","489240.030014","490006.285491","490772.689989","491539.418501","492306.126916","502298.931219","Mapping"
"Blocked","m150","ball","3","m150cling.wav","None","731.404545717","161","500773.184666","493056.262102","493822.61435","494589.258148","495356.184531","496123.0262","496889.267764","497656.646157","501522.734897","502289.727133","503055.72847","503822.459763","490006.285491","490772.689989","491539.418501","492306.126916","503064.823727","Mapping"
"Blocked","m150","ball","3","m150dime.wav","None","729.447479825","161","500773.184666","493056.262102","493822.61435","494589.258148","495356.184531","496123.0262","496889.267764","497656.646157","501522.734897","502289.727133","503055.72847","503822.459763","504589.063369","490772.689989","491539.418501","492306.126916","503831.393632","Mapping"
"Blocked","m150","ball","3","m150park.wav","None","727.354995441","161","500773.184666","493056.262102","493822.61435","494589.258148","495356.184531","496123.0262","496889.267764","497656.646157","501522.734897","502289.727133","503055.72847","503822.459763","504589.063369","505355.992843","491539.418501","492306.126916","504598.038358","Mapping"
"Blocked","m150","ball","3","m150ball.wav","None","724.220597185","161","500773.184666","493056.262102","493822.61435","494589.258148","495356.184531","496123.0262","496889.267764","497656.646157","501522.734897","502289.727133","503055.72847","503822.459763","504589.063369","505355.992843","506123.194081","492306.126916","505365.929979","Mapping"
"Blocked","m150","ball","3","m150cad.wav","space","473.010262009","161","500773.184666","493056.262102","493822.61435","494589.258148","495356.184531","496123.0262","496889.267764","497656.646157","501522.734897","502289.727133","503055.72847","503822.459763","504589.063369","505355.992843","506123.194081","506872.883748","506132.940457","Mapping"
"Blocked","m150","ball","3","m150priest.wav","None","736.624935176","161","500773.184666","507639.25702","493822.61435","494589.258148","495356.184531","496123.0262","496889.267764","497656.646157","501522.734897","502289.727133","503055.72847","503822.459763","504589.063369","505355.992843","506123.194081","506872.883748","506881.803086","Mapping"
"Blocked","m150","ball","3","m150tile.wav","None","734.865739942","161","500773.184666","507639.25702","508405.975638","494589.258148","495356.184531","496123.0262","496889.267764","497656.646157","501522.734897","502289.727133","503055.72847","503822.459763","504589.063369","505355.992843","506123.194081","506872.883748","507648.47842","Mapping"
"Blocked","m150","ball","3","m150ball.wav","None","732.905891258","161","500773.184666","507639.25702","508405.975638","509172.76382","495356.184531","496123.0262","496889.267764","497656.646157","501522.734897","502289.727133","503055.72847","503822.459763","504589.063369","505355.992843","506123.194081","506872.883748","508415.226718","Mapping"
"Blocked","m150","ball","3","m150greet.wav","space","440.117015503","161","500773.184666","507639.25702","508405.975638","509172.76382","509939.289823","496123.0262","496889.267764","497656.646157","501522.734897","502289.727133","503055.72847","503822.459763","504589.063369","505355.992843","506123.194081","506872.883748","509181.77962","Mapping"
"Blocked","m150","ball","3","m150dime.wav","None","727.707762271","161","500773.184666","507639.25702","508405.975638","509172.76382","509939.289823","510705.923109","496889.267764","497656.646157","501522.734897","502289.727133","503055.72847","503822.459763","504589.063369","505355.992843","506123.194081","506872.883748","509949.166361","Mapping"
"Blocked","m150","ball","3","m150ball.wav","None","726.747469977","161","500773.184666","507639.25702","508405.975638","509172.76382","509939.289823","510705.923109","511473.179689","497656.646157","501522.734897","502289.727133","503055.72847","503822.459763","504589.063369","505355.992843","506123.194081","506872.883748","510714.786487","Mapping"
"Blocked","m150","ball","3","m150cave.wav","space","482.587829232","161","500773.184666","507639.25702","508405.975638","509172.76382","509939.289823","510705.923109","511473.179689","512239.652823","501522.734897","502289.727133","503055.72847","503822.459763","504589.063369","505355.992843","506123.194081","506872.883748","511483.247295","Mapping"
"Blocked","m150","ball","1","m150priest.wav","None","720.240920316","161","515356.175565","507639.25702","508405.975638","509172.76382","509939.289823","510705.923109","511473.179689","512239.652823","501522.734897","502289.727133","503055.72847","503822.459763","504589.063369","505355.992843","506123.194081","506872.883748","512249.478657","Mapping"
"Blocked","m150","ball","1","m150romp.wav","None","719.710688107","161","515356.175565","507639.25702","508405.975638","509172.76382","509939.289823","510705.923109","511473.179689","512239.652823","516105.244722","502289.727133","503055.72847","503822.459763","504589.063369","505355.992843","506123.194081","506872.883748","515366.542451","Mapping"
"Blocked","m150","ball","1","m150jaw.wav","None","736.75324209","161","515356.175565","507639.25702","508405.975638","509172.76382","509939.289823","510705.923109","511473.179689","512239.652823","516105.244722","516872.473166","503055.72847","503822.459763","504589.063369","505355.992843","506123.194081","506872.883748","516114.205179","Mapping"
"Blocked","m150","ball","1","m150depth.wav","None","734.20998361","161","515356.175565","507639.25702","508405.975638","509172.76382","509939.289823","510705.923109","511473.179689","512239.652823","516105.244722","516872.473166","517639.156539","503822.459763","504589.063369","505355.992843","506123.194081","506872.883748","516881.718063","Mapping"
"Blocked","m150","ball","1","m150ball.wav","None","732.44893318","161","515356.175565","507639.25702","508405.975638","509172.76382","509939.289823","510705.923109","511473.179689","512239.652823","516105.244722","516872.473166","517639.156539","518405.443551","504589.063369","505355.992843","506123.194081","506872.883748","517648.283331","Mapping"
"Blocked","m150","ball","1","m150knife.wav","space","551.245612558","161","515356.175565","507639.25702","508405.975638","509172.76382","509939.289823","510705.923109","511473.179689","512239.652823","516105.244722","516872.473166","517639.156539","518405.443551","519172.533486","505355.992843","506123.194081","506872.883748","518414.481302","Mapping"
"Blocked","m150","ball","1","m150ball.wav","None","727.336444892","161","515356.175565","507639.25702","508405.975638","509172.76382","509939.289823","510705.923109","511473.179689","512239.652823","516105.244722","516872.473166","517639.156539","518405.443551","519172.533486","519938.736712","506123.194081","506872.883748","519181.710983","Mapping"
"Blocked","m150","ball","1","m150dime.wav","space","602.143559605","161","515356.175565","507639.25702","508405.975638","509172.76382","509939.289823","510705.923109","511473.179689","512239.652823","516105.244722","516872.473166","517639.156539","518405.443551","519172.533486","519938.736712","520706.308339","506872.883748","519947.546912","Mapping"
"Blocked","m150","ball","1","m150ball.wav","None","720.497842878","161","515356.175565","507639.25702","508405.975638","509172.76382","509939.289823","510705.923109","511473.179689","512239.652823","516105.244722","516872.473166","517639.156539","518405.443551","519172.533486","519938.736712","520706.308339","521472.87268","520716.756229","Mapping"
"Blocked","m150","ball","1","m150bluff.wav","space","433.633653913","161","515356.175565","522222.524628","508405.975638","509172.76382","509939.289823","510705.923109","511473.179689","512239.652823","516105.244722","516872.473166","517639.156539","518405.443551","519172.533486","519938.736712","520706.308339","521472.87268","521484.004461","Mapping"
"Blocked","m150","ball","1","m150cad.wav","None","734.206892084","161","515356.175565","522222.524628","522988.791853","509172.76382","509939.289823","510705.923109","511473.179689","512239.652823","516105.244722","516872.473166","517639.156539","518405.443551","519172.533486","519938.736712","520706.308339","521472.87268","522231.576292","Mapping"
"Blocked","m150","ball","1","m150park.wav","None","733.118911274","161","515356.175565","522222.524628","522988.791853","523755.617136","509939.289823","510705.923109","511473.179689","512239.652823","516105.244722","516872.473166","517639.156539","518405.443551","519172.533486","519938.736712","520706.308339","521472.87268","522997.637917","Mapping"
"Blocked","m150","ball","1","m150ball.wav","None","730.35830399","161","515356.175565","522222.524628","522988.791853","523755.617136","524522.538572","510705.923109","511473.179689","512239.652823","516105.244722","516872.473166","517639.156539","518405.443551","519172.533486","519938.736712","520706.308339","521472.87268","523765.251591","Mapping"
"Blocked","m150","ball","1","m150lash.wav","space","433.848838322","161","515356.175565","522222.524628","522988.791853","523755.617136","524522.538572","525288.69604","511473.179689","512239.652823","516105.244722","516872.473166","517639.156539","518405.443551","519172.533486","519938.736712","520706.308339","521472.87268","524531.764609","Mapping"
"Blocked","m150","ball","1","m150knife.wav","None","726.045646705","161","515356.175565","522222.524628","522988.791853","523755.617136","524522.538572","525288.69604","526055.352824","512239.652823","516105.244722","516872.473166","517639.156539","518405.443551","519172.533486","519938.736712","520706.308339","521472.87268","525297.994425","Mapping"
"Blocked","m150","ball","1","m150knife.wav","None","725.255091209","161","515356.175565","522222.524628","522988.791853","523755.617136","524522.538572","525288.69604","526055.352824","526822.7677","516105.244722","516872.473166","517639.156539","518405.443551","519172.533486","519938.736712","520706.308339","521472.87268","526064.462303","Mapping"
"Blocked","m150","done","20","m150jolt.wav","None","721.66899126","161","529939.273128","522222.524628","522988.791853","523755.617136","524522.538572","525288.69604","526055.352824","526822.7677","516105.244722","516872.473166","517639.156539","518405.443551","519172.533486","519938.736712","520706.308339","521472.87268","526832.546848","Mapping"
"Blocked","m150","done","20","m150jolt.wav","None","719.720272347","161","529939.273128","522222.524628","522988.791853","523755.617136","524522.538572","525288.69604","526055.352824","526822.7677","530688.470282","516872.473166","517639.156539","518405.443551","519172.533486","519938.736712","520706.308339","521472.87268","529949.087213","Mapping"
"Blocked","m150","done","20","m150greet.wav","None","736.149736214","161","529939.273128","522222.524628","522988.791853","523755.617136","524522.538572","525288.69604","526055.352824","526822.7677","530688.470282","531455.711094","517639.156539","518405.443551","519172.533486","519938.736712","520706.308339","521472.87268","530697.401369","Mapping"
"Blocked","m150","done","20","m150done.wav","None","732.946701813","161","529939.273128","522222.524628","522988.791853","523755.617136","524522.538572","525288.69604","526055.352824","526822.7677","530688.470282","531455.711094","532222.319646","518405.443551","519172.533486","519938.736712","520706.308339","521472.87268","531465.383578","Mapping"
"Blocked","m150","done","20","m150cad.wav","space","382.047486957","161","529939.273128","522222.524628","522988.791853","523755.617136","524522.538572","525288.69604","526055.352824","526822.7677","530688.470282","531455.711094","532222.319646","532988.822771","519172.533486","519938.736712","520706.308339","521472.87268","532231.426343","Mapping"
"Blocked","m150","done","20","m150done.wav","None","733.455291484","161","529939.273128","522222.524628","522988.791853","523755.617136","524522.538572","525288.69604","526055.352824","526822.7677","530688.470282","531455.711094","532222.319646","532988.822771","533755.493158","519938.736712","520706.308339","521472.87268","532993.098327","Mapping"
"Blocked","m150","done","20","m150priest.wav","space","416.534829885","161","529939.273128","522222.524628","522988.791853","523755.617136","524522.538572","525288.69604","526055.352824","526822.7677","530688.470282","531455.711094","532222.319646","532988.822771","533755.493158","534522.661004","520706.308339","521472.87268","533764.889859","Mapping"
"Blocked","m150","done","20","m150done.wav","None","722.306197044","161","529939.273128","522222.524628","522988.791853","523755.617136","524522.538572","525288.69604","526055.352824","526822.7677","530688.470282","531455.711094","532222.319646","532988.822771","533755.493158","534522.661004","535289.385187","521472.87268","534532.906077","Mapping"
"Blocked","m150","done","20","m150knife.wav","space","450.372600462","161","529939.273128","522222.524628","522988.791853","523755.617136","524522.538572","525288.69604","526055.352824","526822.7677","530688.470282","531455.711094","532222.319646","532988.822771","533755.493158","534522.661004","535289.385187","536039.15895","535299.03572","Mapping"
"Blocked","m150","done","20","m150priest.wav","None","735.921566375","161","529939.273128","536805.064133","522988.791853","523755.617136","524522.538572","525288.69604","526055.352824","526822.7677","530688.470282","531455.711094","532222.319646","532988.822771","533755.493158","534522.661004","535289.385187","536039.15895","536048.531226","Mapping"
"Blocked","m150","done","20","m150jolt.wav","None","734.710535035","161","529939.273128","536805.064133","537572.292269","523755.617136","524522.538572","525288.69604","526055.352824","526822.7677","530688.470282","531455.711094","532222.319646","532988.822771","533755.493158","534522.661004","535289.385187","536039.15895","536814.535964","Mapping"
"Blocked","m150","done","20","m150cad.wav","None","731.945908163","161","529939.273128","536805.064133","537572.292269","538338.486529","524522.538572","525288.69604","526055.352824","526822.7677","530688.470282","531455.711094","532222.319646","532988.822771","533755.493158","534522.661004","535289.385187","536039.15895","537582.120267","Mapping"
"Blocked","m150","done","20","m150done.wav","None","731.578610372","161","529939.273128","536805.064133","537572.292269","538338.486529","539105.434863","525288.69604","526055.352824","526822.7677","530688.470282","531455.711094","532222.319646","532988.822771","533755.493158","534522.661004","535289.385187","536039.15895","538347.332593","Mapping"
"Blocked","m150","done","20","m150dime.wav","space","530.763505958","161","529939.273128","536805.064133","537572.292269","538338.486529","539105.434863","539871.818956","526055.352824","526822.7677","530688.470282","531455.711094","532222.319646","532988.822771","533755.493158","534522.661004","535289.385187","536039.15895","539114.589791","Mapping"
"Blocked","m150","done","20","m150knife.wav","None","731.926739682","161","529939.273128","536805.064133","537572.292269","538338.486529","539105.434863","539871.818956","540639.153138","526822.7677","530688.470282","531455.711094","532222.319646","532988.822771","533755.493158","534522.661004","535289.385187","536039.15895","539875.350023","Mapping"
"Blocked","m150","done","20","m150romp.wav","None","723.093043081","161","529939.273128","536805.064133","537572.292269","538338.486529","539105.434863","539871.818956","540639.153138","541405.932972","530688.470282","531455.711094","532222.319646","532988.822771","533755.493158","534522.661004","535289.385187","536039.15895","540648.970005","Mapping"
"Blocked","m150","done","23","m150bluff.wav","None","721.170912962","161","544522.476119","536805.064133","537572.292269","538338.486529","539105.434863","539871.818956","540639.153138","541405.932972","530688.470282","531455.711094","532222.319646","532988.822771","533755.493158","534522.661004","535289.385187","536039.15895","541415.859596","Mapping"
"Blocked","m150","done","23","m150done.wav","None","720.299044624","161","544522.476119","536805.064133","537572.292269","538338.486529","539105.434863","539871.818956","540639.153138","541405.932972","545272.316663","531455.711094","532222.319646","532988.822771","533755.493158","534522.661004","535289.385187","536039.15895","544532.233316","Mapping"
"Blocked","m150","done","23","m150gnash.wav","space","369.148162659","161","544522.476119","536805.064133","537572.292269","538338.486529","539105.434863","539871.818956","540639.153138","541405.932972","545272.316663","546038.658708","532222.319646","532988.822771","533755.493158","534522.661004","535289.385187","536039.15895","545276.072499","Mapping"
"Blocked","m150","done","23","m150dime.wav","None","732.721933164","161","544522.476119","536805.064133","537572.292269","538338.486529","539105.434863","539871.818956","540639.153138","541405.932972","545272.316663","546038.658708","546805.260768","532988.822771","533755.493158","534522.661004","535289.385187","536039.15895","546048.520715","Mapping"
"Blocked","m150","done","23","m150done.wav","None","731.445665937","161","544522.476119","536805.064133","537572.292269","538338.486529","539105.434863","539871.818956","540639.153138","541405.932972","545272.316663","546038.658708","546805.260768","547572.032873","533755.493158","534522.661004","535289.385187","536039.15895","546814.590069","Mapping"
"Blocked","m150","done","23","m150lash.wav","space","439.702414442","161","544522.476119","536805.064133","537572.292269","538338.486529","539105.434863","539871.818956","540639.153138","541405.932972","545272.316663","546038.658708","546805.260768","547572.032873","548338.685637","534522.661004","535289.385187","536039.15895","547581.496046","Mapping"
"Blocked","m150","done","23","m150jolt.wav","None","727.952318266","161","544522.476119","536805.064133","537572.292269","538338.486529","539105.434863","539871.818956","540639.153138","541405.932972","545272.316663","546038.658708","546805.260768","547572.032873","548338.685637","549105.189379","535289.385187","536039.15895","548348.286083","Mapping"
"Blocked","m150","done","23","m150gnash.wav","None","726.44138895","161","544522.476119","536805.064133","537572.292269","538338.486529","539105.434863","539871.818956","540639.153138","541405.932972","545272.316663","546038.658708","546805.260768","547572.032873","548338.685637","549105.189379","549872.065367","536039.15895","549114.802811","Mapping"
"Blocked","m150","done","23","m150knife.wav","None","724.633343983","161","544522.476119","536805.064133","537572.292269","538338.486529","539105.434863","539871.818956","540639.153138","541405.932972","545272.316663","546038.658708","546805.260768","547572.032873","548338.685637","549105.189379","549872.065367","550638.38577","549881.504734","Mapping"
"Blocked","m150","done","23","m150reek.wav","None","723.532687407","161","544522.476119","551406.132389","537572.292269","538338.486529","539105.434863","539871.818956","540639.153138","541405.932972","545272.316663","546038.658708","546805.260768","547572.032873","548338.685637","549105.189379","549872.065367","550638.38577","550647.568523","Mapping"
"Blocked","m150","done","23","m150done.wav","None","719.57341535","161","544522.476119","551406.132389","552172.314591","538338.486529","539105.434863","539871.818956","540639.153138","541405.932972","545272.316663","546038.658708","546805.260768","547572.032873","548338.685637","549105.189379","549872.065367","550638.38577","551416.393847","Mapping"
"Blocked","m150","done","23","m150reek.wav","space","343.007877935","161","544522.476119","551406.132389","552172.314591","552921.614391","539105.434863","539871.818956","540639.153138","541405.932972","545272.316663","546038.658708","546805.260768","547572.032873","548338.685637","549105.189379","549872.065367","550638.38577","552182.11229","Mapping"
"Blocked","m150","done","23","m150done.wav","None","733.901119791","161","544522.476119","551406.132389","552172.314591","552921.614391","553688.402264","539871.818956","540639.153138","541405.932972","545272.316663","546038.658708","546805.260768","547572.032873","548338.685637","549105.189379","549872.065367","550638.38577","552930.453653","Mapping"
"Blocked","m150","done","23","m150cad.wav","space","387.763481122","161","544522.476119","551406.132389","552172.314591","552921.614391","553688.402264","554455.154273","540639.153138","541405.932972","545272.316663","546038.658708","546805.260768","547572.032873","548338.685637","549105.189379","549872.065367","550638.38577","553697.33335","Mapping"
"Blocked","m150","done","23","m150gnash.wav","None","731.203274336","161","544522.476119","551406.132389","552172.314591","552921.614391","553688.402264","554455.154273","555221.519815","541405.932972","545272.316663","546038.658708","546805.260768","547572.032873","548338.685637","549105.189379","549872.065367","550638.38577","554464.792748","Mapping"
"Blocked","m150","done","23","m150cave.wav","None","730.12673296","161","544522.476119","551406.132389","552172.314591","552921.614391","553688.402264","554455.154273","555221.519815","555988.517617","545272.316663","546038.658708","546805.260768","547572.032873","548338.685637","549105.189379","549872.065367","550638.38577","555230.792847","Mapping"
"Blocked","m150","ball","2","m150greet.wav","None","727.431670297","161","559121.996035","551406.132389","552172.314591","552921.614391","553688.402264","554455.154273","555221.519815","555988.517617","545272.316663","546038.658708","546805.260768","547572.032873","548338.685637","549105.189379","549872.065367","550638.38577","555998.540394","Mapping"
"Blocked","m150","ball","2","m150reek.wav","None","721.314987633","161","559121.996035","551406.132389","552172.314591","552921.614391","553688.402264","554455.154273","555221.519815","555988.517617","559872.073405","546038.658708","546805.260768","547572.032873","548338.685637","549105.189379","549872.065367","550638.38577","559131.005651","Mapping"
"Blocked","m150","ball","2","m150depth.wav","None","736.048636492","161","559121.996035","551406.132389","552172.314591","552921.614391","553688.402264","554455.154273","555221.519815","555988.517617","559872.073405","560638.263956","546805.260768","547572.032873","548338.685637","549105.189379","549872.065367","550638.38577","559881.335925","Mapping"
"Blocked","m150","ball","2","m150gnash.wav","None","734.939014073","161","559121.996035","551406.132389","552172.314591","552921.614391","553688.402264","554455.154273","555221.519815","555988.517617","559872.073405","560638.263956","561405.078108","547572.032873","548338.685637","549105.189379","549872.065367","550638.38577","560647.484119","Mapping"
"Blocked","m150","ball","2","m150romp.wav","None","732.706165407","161","559121.996035","551406.132389","552172.314591","552921.614391","553688.402264","554455.154273","555221.519815","555988.517617","559872.073405","560638.263956","561405.078108","562171.724998","548338.685637","549105.189379","549872.065367","550638.38577","561414.834996","Mapping"
"Blocked","m150","ball","2","m150ball.wav","None","731.416913215","161","559121.996035","551406.132389","552172.314591","552921.614391","553688.402264","554455.154273","555221.519815","555988.517617","559872.073405","560638.263956","561405.078108","562171.724998","562938.348391","549105.189379","549872.065367","550638.38577","562180.926611","Mapping"
"Blocked","m150","ball","2","m150greet.wav","space","345.294523053","161","559121.996035","551406.132389","552172.314591","552921.614391","553688.402264","554455.154273","555221.519815","555988.517617","559872.073405","560638.263956","561405.078108","562171.724998","562938.348391","563704.63293","549872.065367","550638.38577","562947.631316","Mapping"
"Blocked","m150","ball","2","m150bluff.wav","None","727.081686258","161","559121.996035","551406.132389","552172.314591","552921.614391","553688.402264","554455.154273","555221.519815","555988.517617","559872.073405","560638.263956","561405.078108","562171.724998","562938.348391","563704.63293","564471.729357","550638.38577","563713.789712","Mapping"
"Blocked","m150","ball","2","m150cave.wav","None","724.503491074","161","559121.996035","551406.132389","552172.314591","552921.614391","553688.402264","554455.154273","555221.519815","555988.517617","559872.073405","560638.263956","561405.078108","562171.724998","562938.348391","563704.63293","564471.729357","565238.240211","564481.301669","Mapping"
"Blocked","m150","ball","2","m150ball.wav","None","722.952369135","161","559121.996035","566004.791566","552172.314591","552921.614391","553688.402264","554455.154273","555221.519815","555988.517617","559872.073405","560638.263956","561405.078108","562171.724998","562938.348391","563704.63293","564471.729357","565238.240211","565247.825817","Mapping"
"Blocked","m150","ball","2","m150tile.wav","space","663.001212291","161","559121.996035","566004.791566","566754.435785","552921.614391","553688.402264","554455.154273","555221.519815","555988.517617","559872.073405","560638.263956","561405.078108","562171.724998","562938.348391","563704.63293","564471.729357","565238.240211","566013.859925","Mapping"
"Blocked","m150","ball","2","m150ball.wav","None","735.933624208","161","559121.996035","566004.791566","566754.435785","567521.684017","553688.402264","554455.154273","555221.519815","555988.517617","559872.073405","560638.263956","561405.078108","562171.724998","562938.348391","563704.63293","564471.729357","565238.240211","566763.466425","Mapping"
"Blocked","m150","ball","2","m150knife.wav","space","586.020795628","161","559121.996035","566004.791566","566754.435785","567521.684017","568288.031009","554455.154273","555221.519815","555988.517617","559872.073405","560638.263956","561405.078108","562171.724998","562938.348391","563704.63293","564471.729357","565238.240211","567530.82936","Mapping"
"Blocked","m150","ball","2","m150cad.wav","None","730.812788475","161","559121.996035","566004.791566","566754.435785","567521.684017","568288.031009","569054.674498","555221.519815","555988.517617","559872.073405","560638.263956","561405.078108","562171.724998","562938.348391","563704.63293","564471.729357","565238.240211","568297.092566","Mapping"
"Blocked","m150","ball","2","m150ball.wav","None","728.89127722","161","559121.996035","566004.791566","566754.435785","567521.684017","568288.031009","569054.674498","569821.266355","555988.517617","559872.073405","560638.263956","561405.078108","562171.724998","562938.348391","563704.63293","564471.729357","565238.240211","569064.014929","Mapping"
"Blocked","m150","ball","2","m150lash.wav","space","398.388218135","161","559121.996035","566004.791566","566754.435785","567521.684017","568288.031009","569054.674498","569821.266355","570588.130285","559872.073405","560638.263956","561405.078108","562171.724998","562938.348391","563704.63293","564471.729357","565238.240211","569830.414172","Mapping"
"Blocked","m150","tile","15","m150dime.wav","None","723.900294397","161","573705.251276","566004.791566","566754.435785","567521.684017","568288.031009","569054.674498","569821.266355","570588.130285","559872.073405","560638.263956","561405.078108","562171.724998","562938.348391","563704.63293","564471.729357","565238.240211","570597.700741","Mapping"
"Blocked","m150","tile","15","m150tile.wav","None","720.045213588","161","573705.251276","566004.791566","566754.435785","567521.684017","568288.031009","569054.674498","569821.266355","570588.130285","574471.460686","560638.263956","561405.078108","562171.724998","562938.348391","563704.63293","564471.729357","565238.240211","573715.325994","Mapping"
"Blocked","m150","tile","15","m150cad.wav","space","420.449271798","161","573705.251276","566004.791566","566754.435785","567521.684017","568288.031009","569054.674498","569821.266355","570588.130285","574471.460686","575221.673474","561405.078108","562171.724998","562938.348391","563704.63293","564471.729357","565238.240211","574480.22791","Mapping"
"Blocked","m150","tile","15","m150priest.wav","None","732.80850146","161","573705.251276","566004.791566","566754.435785","567521.684017","568288.031009","569054.674498","569821.266355","570588.130285","574471.460686","575221.673474","575988.111981","562171.724998","562938.348391","563704.63293","564471.729357","565238.240211","575231.328026","Mapping"
"Blocked","m150","tile","15","m150done.wav","None","731.981154066","161","573705.251276","566004.791566","566754.435785","567521.684017","568288.031009","569054.674498","569821.266355","570588.130285","574471.460686","575221.673474","575988.111981","576754.837092","562938.348391","563704.63293","564471.729357","565238.240211","575997.388105","Mapping"
"Blocked","m150","tile","15","m150tile.wav","None","729.645968881","161","573705.251276","566004.791566","566754.435785","567521.684017","568288.031009","569054.674498","569821.266355","570588.130285","574471.460686","575221.673474","575988.111981","576754.837092","577521.318884","563704.63293","564471.729357","565238.240211","576764.747639","Mapping"
"Blocked","m150","tile","15","m150priest.wav","space","426.089827903","161","573705.251276","566004.791566","566754.435785","567521.684017","568288.031009","569054.674498","569821.266355","570588.130285","574471.460686","575221.673474","575988.111981","576754.837092","577521.318884","578288.065327","564471.729357","565238.240211","577530.555433","Mapping"
"Blocked","m150","tile","15","m150tile.wav","None","725.840974133","161","573705.251276","566004.791566","566754.435785","567521.684017","568288.031009","569054.674498","569821.266355","570588.130285","574471.460686","575221.673474","575988.111981","576754.837092","577521.318884","578288.065327","579055.205658","565238.240211","578297.321355","Mapping"
"Blocked","m150","tile","15","m150ball.wav","space","651.485437993","161","573705.251276","566004.791566","566754.435785","567521.684017","568288.031009","569054.674498","569821.266355","570588.130285","574471.460686","575221.673474","575988.111981","576754.837092","577521.318884","578288.065327","579055.205658","579821.894904","579065.131045","Mapping"
"Blocked","m150","tile","15","m150lash.wav","None","720.852155704","161","573705.251276","580588.202631","566754.435785","567521.684017","568288.031009","569054.674498","569821.266355","570588.130285","574471.460686","575221.673474","575988.111981","576754.837092","577521.318884","578288.065327","579055.205658","579821.894904","579831.42795","Mapping"
"Blocked","m150","tile","15","m150ball.wav","None","720.056653023","161","573705.251276","580588.202631","581337.912704","567521.684017","568288.031009","569054.674498","569821.266355","570588.130285","574471.460686","575221.673474","575988.111981","576754.837092","577521.318884","578288.065327","579055.205658","579821.894904","580597.39064","Mapping"
"Blocked","m150","tile","15","m150knife.wav","space","505.445313174","161","573705.251276","580588.202631","581337.912704","582104.611535","568288.031009","569054.674498","569821.266355","570588.130285","574471.460686","575221.673474","575988.111981","576754.837092","577521.318884","578288.065327","579055.205658","579821.894904","581347.133485","Mapping"
"Blocked","m150","tile","15","m150cling.wav","None","732.055355795","161","573705.251276","580588.202631","581337.912704","582104.611535","582871.445475","569054.674498","569821.266355","570588.130285","574471.460686","575221.673474","575988.111981","576754.837092","577521.318884","578288.065327","579055.205658","579821.894904","582114.048738","Mapping"
"Blocked","m150","tile","15","m150tile.wav","None","730.809078552","161","573705.251276","580588.202631","581337.912704","582104.611535","582871.445475","583637.763404","569821.266355","570588.130285","574471.460686","575221.673474","575988.111981","576754.837092","577521.318884","578288.065327","579055.205658","579821.894904","582880.548461","Mapping"
"Blocked","m150","tile","15","m150cave.wav","space","405.167149846","161","573705.251276","580588.202631","581337.912704","582104.611535","582871.445475","583637.763404","584404.281987","570588.130285","574471.460686","575221.673474","575988.111981","576754.837092","577521.318884","578288.065327","579055.205658","579821.894904","583647.405898","Mapping"
"Blocked","m150","tile","15","m150priest.wav","None","727.009339724","161","573705.251276","580588.202631","581337.912704","582104.611535","582871.445475","583637.763404","584404.281987","585171.220118","574471.460686","575221.673474","575988.111981","576754.837092","577521.318884","578288.065327","579055.205658","579821.894904","584413.415273","Mapping"
"Blocked","m150","tile","17","m150gnash.wav","None","725.342277903","161","588288.271855","580588.202631","581337.912704","582104.611535","582871.445475","583637.763404","584404.281987","585171.220118","574471.460686","575221.673474","575988.111981","576754.837092","577521.318884","578288.065327","579055.205658","579821.894904","585180.153678","Mapping"
"Blocked","m150","tile","17","m150tile.wav","None","719.159432221","161","588288.271855","580588.202631","581337.912704","582104.611535","582871.445475","583637.763404","584404.281987","585171.220118","589037.694087","575221.673474","575988.111981","576754.837092","577521.318884","578288.065327","579055.205658","579821.894904","588298.799512","Mapping"
"Blocked","m150","tile","17","m150reek.wav","space","469.657896552","161","588288.271855","580588.202631","581337.912704","582104.611535","582871.445475","583637.763404","584404.281987","585171.220118","589037.694087","589804.523389","575988.111981","576754.837092","577521.318884","578288.065327","579055.205658","579821.894904","589046.792127","Mapping"
"Blocked","m150","tile","17","m150jaw.wav","None","732.998024672","161","588288.271855","580588.202631","581337.912704","582104.611535","582871.445475","583637.763404","584404.281987","585171.220118","589037.694087","589804.523389","590570.913975","576754.837092","577521.318884","578288.065327","579055.205658","579821.894904","589813.818682","Mapping"
"Blocked","m150","tile","17","m150tile.wav","None","732.186445035","161","588288.271855","580588.202631","581337.912704","582104.611535","582871.445475","583637.763404","584404.281987","585171.220118","589037.694087","589804.523389","590570.913975","591337.933728","577521.318884","578288.065327","579055.205658","579821.894904","590579.877215","Mapping"
"Blocked","m150","tile","17","m150bluff.wav","space","487.474620342","161","588288.271855","580588.202631","581337.912704","582104.611535","582871.445475","583637.763404","584404.281987","585171.220118","589037.694087","589804.523389","590570.913975","591337.933728","592104.422321","578288.065327","579055.205658","579821.894904","591348.90072","Mapping"
"Blocked","m150","tile","17","m150lash.wav","None","727.043658029","161","588288.271855","580588.202631","581337.912704","582104.611535","582871.445475","583637.763404","584404.281987","585171.220118","589037.694087","589804.523389","590570.913975","591337.933728","592104.422321","592870.864229","579055.205658","579821.894904","592114.213836","Mapping"
"Blocked","m150","tile","17","m150ball.wav","None","727.025725879","161","588288.271855","580588.202631","581337.912704","582104.611535","582871.445475","583637.763404","584404.281987","585171.220118","589037.694087","589804.523389","590570.913975","591337.933728","592104.422321","592870.864229","593637.799268","579821.894904","592879.557252","Mapping"
"Blocked","m150","tile","17","m150romp.wav","None","724.693323486","161","588288.271855","580588.202631","581337.912704","582104.611535","582871.445475","583637.763404","584404.281987","585171.220118","589037.694087","589804.523389","590570.913975","591337.933728","592104.422321","592870.864229","593637.799268","594404.977317","593647.079411","Mapping"
"Blocked","m150","tile","17","m150tile.wav","None","721.454424784","161","588288.271855","595171.663472","581337.912704","582104.611535","582871.445475","583637.763404","584404.281987","585171.220118","589037.694087","589804.523389","590570.913975","591337.933728","592104.422321","592870.864229","593637.799268","594404.977317","594415.564954","Mapping"
"Blocked","m150","tile","17","m150cling.wav","space","430.993933231","161","588288.271855","595171.663472","595920.949669","582104.611535","582871.445475","583637.763404","584404.281987","585171.220118","589037.694087","589804.523389","590570.913975","591337.933728","592104.422321","592870.864229","593637.799268","594404.977317","595181.332555","Mapping"
"Blocked","m150","tile","17","m150tile.wav","None","735.583021771","161","588288.271855","595171.663472","595920.949669","596687.4126","582871.445475","583637.763404","584404.281987","585171.220118","589037.694087","589804.523389","590570.913975","591337.933728","592104.422321","592870.864229","593637.799268","594404.977317","595930.292883","Mapping"
"Blocked","m150","tile","17","m150greet.wav","space","547.854291741","161","588288.271855","595171.663472","595920.949669","596687.4126","597454.306829","583637.763404","584404.281987","585171.220118","589037.694087","589804.523389","590570.913975","591337.933728","592104.422321","592870.864229","593637.799268","594404.977317","596696.43242","Mapping"
