"Condition","Talker","Target","Trial","current_stimulus","response_response","response_time_response","subject_nr","time_Audio1","time_Audio10","time_Audio11","time_Audio12","time_Audio13","time_Audio14","time_Audio15","time_Audio16","time_Audio2","time_Audio3","time_Audio4","time_Audio5","time_Audio6","time_Audio7","time_Audio8","time_Audio9","time_response","title"
"Mixed","Both","cave","17","m160cad.wav","NA","NA","104","3410051.0969","NA","NA","NA","NA","NA","NA","NA","NA","NA","NA","NA","NA","NA","NA","NA","NA","Mapping"
"Mixed","Both","cave","17","m160cave.wav","None","719.765163668","104","3410051.0969","NA","NA","NA","NA","NA","NA","NA","3410818.05627","NA","NA","NA","NA","NA","NA","NA","3410063.57796","Mapping"
"Mixed","Both","cave","17","m150park.wav","space","673.815700662","104","3410051.0969","NA","NA","NA","NA","NA","NA","NA","3410818.05627","3411584.39666","NA","NA","NA","NA","NA","NA","3410827.47402","Mapping"
"Mixed","Both","cave","17","m160park.wav","None","721.882079117","104","3410051.0969","NA","NA","NA","NA","NA","NA","NA","3410818.05627","3411584.39666","3412350.89381","NA","NA","NA","NA","NA","3411593.78628","Mapping"
"Mixed","Both","cave","17","m150cave.wav","None","721.060912561","104","3410051.0969","NA","NA","NA","NA","NA","NA","NA","3410818.05627","3411584.39666","3412350.89381","3413117.53874","NA","NA","NA","NA","3412361.14015","Mapping"
"Mixed","Both","cave","17","m160priest.wav","space","590.386291471","104","3410051.0969","NA","NA","NA","NA","NA","NA","NA","3410818.05627","3411584.39666","3412350.89381","3413117.53874","3413884.43379","NA","NA","NA","3413126.8557","Mapping"
"Mixed","Both","cave","17","m160jaw.wav","None","721.418317873","104","3410051.0969","NA","NA","NA","NA","NA","NA","NA","3410818.05627","3411584.39666","3412350.89381","3413117.53874","3413884.43379","3414651.31741","NA","NA","3413893.54515","Mapping"
"Mixed","Both","cave","17","m160depth.wav","None","720.157814853","104","3410051.0969","NA","NA","NA","NA","NA","NA","NA","3410818.05627","3411584.39666","3412350.89381","3413117.53874","3413884.43379","3414651.31741","3415417.69954","NA","3414661.18563","Mapping"
"Mixed","Both","cave","17","m160cave.wav","None","720.739680634","104","3410051.0969","NA","NA","NA","NA","NA","NA","NA","3410818.05627","3411584.39666","3412350.89381","3413117.53874","3413884.43379","3414651.31741","3415417.69954","3416167.3198","3415427.18933","Mapping"
"Mixed","Both","cave","17","m150knife.wav","space","604.139903764","104","3410051.0969","3416933.99596","NA","NA","NA","NA","NA","NA","3410818.05627","3411584.39666","3412350.89381","3413117.53874","3413884.43379","3414651.31741","3415417.69954","3416167.3198","3416177.056","Mapping"
"Mixed","Both","cave","17","m150cad.wav","None","734.209471062","104","3410051.0969","3416933.99596","3417700.68324","NA","NA","NA","NA","NA","3410818.05627","3411584.39666","3412350.89381","3413117.53874","3413884.43379","3414651.31741","3415417.69954","3416167.3198","3416943.37352","Mapping"
"Mixed","Both","cave","17","m150cave.wav","None","733.682329097","104","3410051.0969","3416933.99596","3417700.68324","3418467.29046","NA","NA","NA","NA","3410818.05627","3411584.39666","3412350.89381","3413117.53874","3413884.43379","3414651.31741","3415417.69954","3416167.3198","3417710.30134","Mapping"
"Mixed","Both","cave","17","m150knife.wav","space","637.918416964","104","3410051.0969","3416933.99596","3417700.68324","3418467.29046","3419233.94497","NA","NA","NA","3410818.05627","3411584.39666","3412350.89381","3413117.53874","3413884.43379","3414651.31741","3415417.69954","3416167.3198","3418471.23985","Mapping"
"Mixed","Both","cave","17","m150cling.wav","None","726.504851103","104","3410051.0969","3416933.99596","3417700.68324","3418467.29046","3419233.94497","3420000.47984","NA","NA","3410818.05627","3411584.39666","3412350.89381","3413117.53874","3413884.43379","3414651.31741","3415417.69954","3416167.3198","3419243.5405","Mapping"
"Mixed","Both","cave","17","m150done.wav","None","726.596985012","104","3410051.0969","3416933.99596","3417700.68324","3418467.29046","3419233.94497","3420000.47984","3420767.24968","NA","3410818.05627","3411584.39666","3412350.89381","3413117.53874","3413884.43379","3414651.31741","3415417.69954","3416167.3198","3420009.94304","Mapping"
"Mixed","Both","cave","17","m160greet.wav","None","726.274825516","104","3410051.0969","3416933.99596","3417700.68324","3418467.29046","3419233.94497","3420000.47984","3420767.24968","3421533.96479","3410818.05627","3411584.39666","3412350.89381","3413117.53874","3413884.43379","3414651.31741","3415417.69954","3416167.3198","3420776.66403","Mapping"
"Mixed","Both","cave","21","m150cad.wav","None","726.600076713","104","3424733.56392","3416933.99596","3417700.68324","3418467.29046","3419233.94497","3420000.47984","3420767.24968","3421533.96479","3410818.05627","3411584.39666","3412350.89381","3413117.53874","3413884.43379","3414651.31741","3415417.69954","3416167.3198","3421542.98618","Mapping"
"Mixed","Both","cave","21","m160gnash.wav","None","736.920619238","104","3424733.56392","3416933.99596","3417700.68324","3418467.29046","3419233.94497","3420000.47984","3420767.24968","3421533.96479","3425500.3285","3411584.39666","3412350.89381","3413117.53874","3413884.43379","3414651.31741","3415417.69954","3416167.3198","3424742.94457","Mapping"
"Mixed","Both","cave","21","m160knife.wav","None","738.007984736","104","3424733.56392","3416933.99596","3417700.68324","3418467.29046","3419233.94497","3420000.47984","3420767.24968","3421533.96479","3425500.3285","3426266.98734","3412350.89381","3413117.53874","3413884.43379","3414651.31741","3415417.69954","3416167.3198","3425509.11461","Mapping"
"Mixed","Both","cave","21","m150cave.wav","None","737.730655499","104","3424733.56392","3416933.99596","3417700.68324","3418467.29046","3419233.94497","3420000.47984","3420767.24968","3421533.96479","3425500.3285","3426266.98734","3427034.1588","3413117.53874","3413884.43379","3414651.31741","3415417.69954","3416167.3198","3426275.86311","Mapping"
"Mixed","Both","cave","21","m160tile.wav","space","585.568121431","104","3424733.56392","3416933.99596","3417700.68324","3418467.29046","3419233.94497","3420000.47984","3420767.24968","3421533.96479","3425500.3285","3426266.98734","3427034.1588","3427800.14921","3413884.43379","3414651.31741","3415417.69954","3416167.3198","3427043.46525","Mapping"
"Mixed","Both","cave","21","m160knife.wav","None","734.334068227","104","3424733.56392","3416933.99596","3417700.68324","3418467.29046","3419233.94497","3420000.47984","3420767.24968","3421533.96479","3425500.3285","3426266.98734","3427034.1588","3427800.14921","3428566.90142","3414651.31741","3415417.69954","3416167.3198","3427809.28067","Mapping"
"Mixed","Both","cave","21","m150cad.wav","None","731.259640452","104","3424733.56392","3416933.99596","3417700.68324","3418467.29046","3419233.94497","3420000.47984","3420767.24968","3421533.96479","3425500.3285","3426266.98734","3427034.1588","3427800.14921","3428566.90142","3429333.59026","3415417.69954","3416167.3198","3428575.64054","Mapping"
"Mixed","Both","cave","21","m150cave.wav","None","727.620042278","104","3424733.56392","3416933.99596","3417700.68324","3418467.29046","3419233.94497","3420000.47984","3420767.24968","3421533.96479","3425500.3285","3426266.98734","3427034.1588","3427800.14921","3428566.90142","3429333.59026","3430100.6467","3416167.3198","3429342.54394","Mapping"
"Mixed","Both","cave","21","m150park.wav","space","494.563327054","104","3424733.56392","3416933.99596","3417700.68324","3418467.29046","3419233.94497","3420000.47984","3420767.24968","3421533.96479","3425500.3285","3426266.98734","3427034.1588","3427800.14921","3428566.90142","3429333.59026","3430100.6467","3430867.43509","3430110.42155","Mapping"
"Mixed","Both","cave","21","m160lash.wav","None","719.531428011","104","3424733.56392","3431616.95796","3417700.68324","3418467.29046","3419233.94497","3420000.47984","3420767.24968","3421533.96479","3425500.3285","3426266.98734","3427034.1588","3427800.14921","3428566.90142","3429333.59026","3430100.6467","3430867.43509","3430876.84851","Mapping"
"Mixed","Both","cave","21","m160cave.wav","None","736.527968053","104","3424733.56392","3431616.95796","3432383.7247","3418467.29046","3419233.94497","3420000.47984","3420767.24968","3421533.96479","3425500.3285","3426266.98734","3427034.1588","3427800.14921","3428566.90142","3429333.59026","3430100.6467","3430867.43509","3431626.25977","Mapping"
"Mixed","Both","cave","21","m150knife.wav","space","627.651670802","104","3424733.56392","3431616.95796","3432383.7247","3433150.23947","3419233.94497","3420000.47984","3420767.24968","3421533.96479","3425500.3285","3426266.98734","3427034.1588","3427800.14921","3428566.90142","3429333.59026","3430100.6467","3430867.43509","3432393.27726","Mapping"
"Mixed","Both","cave","21","m150cling.wav","None","729.17024151","104","3424733.56392","3431616.95796","3432383.7247","3433150.23947","3433917.01951","3420000.47984","3420767.24968","3421533.96479","3425500.3285","3426266.98734","3427034.1588","3427800.14921","3428566.90142","3429333.59026","3430100.6467","3430867.43509","3433159.74658","Mapping"
"Mixed","Both","cave","21","m150romp.wav","None","725.613502","104","3424733.56392","3431616.95796","3432383.7247","3433150.23947","3433917.01951","3434683.70433","3420767.24968","3421533.96479","3425500.3285","3426266.98734","3427034.1588","3427800.14921","3428566.90142","3429333.59026","3430100.6467","3430867.43509","3433926.53898","Mapping"
"Mixed","Both","cave","21","m160cave.wav","None","726.15362925","104","3424733.56392","3431616.95796","3432383.7247","3433150.23947","3433917.01951","3434683.70433","3435450.74469","3421533.96479","3425500.3285","3426266.98734","3427034.1588","3427800.14921","3428566.90142","3429333.59026","3430100.6467","3430867.43509","3434693.02531","Mapping"
"Mixed","Both","cave","21","m160dime.wav","space","592.488057388","104","3424733.56392","3431616.95796","3432383.7247","3433150.23947","3433917.01951","3434683.70433","3435450.74469","3436217.36705","3425500.3285","3426266.98734","3427034.1588","3427800.14921","3428566.90142","3429333.59026","3430100.6467","3430867.43509","3435460.41628","Mapping"
"Mixed","Both","cave","14","m160jolt.wav","None","722.129418456","104","3439334.23458","3431616.95796","3432383.7247","3433150.23947","3433917.01951","3434683.70433","3435450.74469","3436217.36705","3425500.3285","3426266.98734","3427034.1588","3427800.14921","3428566.90142","3429333.59026","3430100.6467","3430867.43509","3436226.92301","Mapping"
"Mixed","Both","cave","14","m150cave.wav","None","722.150442307","104","3439334.23458","3431616.95796","3432383.7247","3433150.23947","3433917.01951","3434683.70433","3435450.74469","3436217.36705","3440083.52618","3426266.98734","3427034.1588","3427800.14921","3428566.90142","3429333.59026","3430100.6467","3430867.43509","3439343.65511","Mapping"
"Mixed","Both","cave","14","m150priest.wav","space","551.511660655","104","3439334.23458","3431616.95796","3432383.7247","3433150.23947","3433917.01951","3434683.70433","3435450.74469","3436217.36705","3440083.52618","3440849.99859","3427034.1588","3427800.14921","3428566.90142","3429333.59026","3430100.6467","3430867.43509","3440093.33133","Mapping"
"Mixed","Both","cave","14","m160cave.wav","None","736.058641691","104","3439334.23458","3431616.95796","3432383.7247","3433150.23947","3433917.01951","3434683.70433","3435450.74469","3436217.36705","3440083.52618","3440849.99859","3441616.96568","3427800.14921","3428566.90142","3429333.59026","3430100.6467","3430867.43509","3440859.3239","Mapping"
"Mixed","Both","cave","14","m150ball.wav","space","634.506371018","104","3439334.23458","3431616.95796","3432383.7247","3433150.23947","3433917.01951","3434683.70433","3435450.74469","3436217.36705","3440083.52618","3440849.99859","3441616.96568","3442383.41089","3428566.90142","3429333.59026","3430100.6467","3430867.43509","3441626.30429","Mapping"
"Mixed","Both","cave","14","m160cave.wav","None","732.656489272","104","3439334.23458","3431616.95796","3432383.7247","3433150.23947","3433917.01951","3434683.70433","3435450.74469","3436217.36705","3440083.52618","3440849.99859","3441616.96568","3442383.41089","3443149.96616","3429333.59026","3430100.6467","3430867.43509","3442392.31263","Mapping"
"Mixed","Both","cave","14","m150knife.wav","space","581.626150961","104","3439334.23458","3431616.95796","3432383.7247","3433150.23947","3433917.01951","3434683.70433","3435450.74469","3436217.36705","3440083.52618","3440849.99859","3441616.96568","3442383.41089","3443149.96616","3443916.89522","3430100.6467","3430867.43509","3443159.15915","Mapping"
"Mixed","Both","cave","14","m150cave.wav","None","725.271555362","104","3439334.23458","3431616.95796","3432383.7247","3433150.23947","3433917.01951","3434683.70433","3435450.74469","3436217.36705","3440083.52618","3440849.99859","3441616.96568","3442383.41089","3443149.96616","3443916.89522","3444683.95167","3430867.43509","3443926.01339","Mapping"
"Mixed","Both","cave","14","m150dime.wav","space","470.885842718","104","3439334.23458","3431616.95796","3432383.7247","3433150.23947","3433917.01951","3434683.70433","3435450.74469","3436217.36705","3440083.52618","3440849.99859","3441616.96568","3442383.41089","3443149.96616","3443916.89522","3444683.95167","3445450.33937","3444693.85915","Mapping"
"Mixed","Both","cave","14","m160park.wav","None","720.667024696","104","3439334.23458","3446199.98652","3432383.7247","3433150.23947","3433917.01951","3434683.70433","3435450.74469","3436217.36705","3440083.52618","3440849.99859","3441616.96568","3442383.41089","3443149.96616","3443916.89522","3444683.95167","3445450.33937","3445460.39433","Mapping"
"Mixed","Both","cave","14","m160depth.wav","None","734.765984525","104","3439334.23458","3446199.98652","3446966.72946","3433150.23947","3433917.01951","3434683.70433","3435450.74469","3436217.36705","3440083.52618","3440849.99859","3441616.96568","3442383.41089","3443149.96616","3443916.89522","3444683.95167","3445450.33937","3446209.59225","Mapping"
"Mixed","Both","cave","14","m160lash.wav","None","732.404203154","104","3439334.23458","3446199.98652","3446966.72946","3447733.56082","3433917.01951","3434683.70433","3435450.74469","3436217.36705","3440083.52618","3440849.99859","3441616.96568","3442383.41089","3443149.96616","3443916.89522","3444683.95167","3445450.33937","3446975.62409","Mapping"
"Mixed","Both","cave","14","m160knife.wav","None","733.692222712","104","3439334.23458","3446199.98652","3446966.72946","3447733.56082","3448500.08765","3434683.70433","3435450.74469","3436217.36705","3440083.52618","3440849.99859","3441616.96568","3442383.41089","3443149.96616","3443916.89522","3444683.95167","3445450.33937","3447737.59987","Mapping"
"Mixed","Both","cave","14","m150knife.wav","None","725.353486545","104","3439334.23458","3446199.98652","3446966.72946","3447733.56082","3448500.08765","3449267.17006","3435450.74469","3436217.36705","3440083.52618","3440849.99859","3441616.96568","3442383.41089","3443149.96616","3443916.89522","3444683.95167","3445450.33937","3448509.52488","Mapping"
"Mixed","Both","cave","14","m150cad.wav","None","720.893030986","104","3439334.23458","3446199.98652","3446966.72946","3447733.56082","3448500.08765","3449267.17006","3450016.69788","3436217.36705","3440083.52618","3440849.99859","3441616.96568","3442383.41089","3443149.96616","3443916.89522","3444683.95167","3445450.33937","3449277.33478","Mapping"
"Mixed","Both","cave","14","m160bluff.wav","None","735.516968562","104","3439334.23458","3446199.98652","3446966.72946","3447733.56082","3448500.08765","3449267.17006","3450016.69788","3450783.06795","3440083.52618","3440849.99859","3441616.96568","3442383.41089","3443149.96616","3443916.89522","3444683.95167","3445450.33937","3450026.04854","Mapping"
"Mixed","Both","done","41","m150lash.wav","None","736.78087251","104","3453917.10608","3446199.98652","3446966.72946","3447733.56082","3448500.08765","3449267.17006","3450016.69788","3450783.06795","3440083.52618","3440849.99859","3441616.96568","3442383.41089","3443149.96616","3443916.89522","3444683.95167","3445450.33937","3450791.96939","Mapping"
"Mixed","Both","done","41","m160cad.wav","None","723.505243455","104","3453917.10608","3446199.98652","3446966.72946","3447733.56082","3448500.08765","3449267.17006","3450016.69788","3450783.06795","3454667.02005","3440849.99859","3441616.96568","3442383.41089","3443149.96616","3443916.89522","3444683.95167","3445450.33937","3453926.53156","Mapping"
"Mixed","Both","done","41","m160jolt.wav","None","737.257619068","104","3453917.10608","3446199.98652","3446966.72946","3447733.56082","3448500.08765","3449267.17006","3450016.69788","3450783.06795","3454667.02005","3455433.26491","3441616.96568","3442383.41089","3443149.96616","3443916.89522","3444683.95167","3445450.33937","3454676.1444","Mapping"
"Mixed","Both","done","41","m150bluff.wav","None","734.759491897","104","3453917.10608","3446199.98652","3446966.72946","3447733.56082","3448500.08765","3449267.17006","3450016.69788","3450783.06795","3454667.02005","3455433.26491","3456199.71321","3442383.41089","3443149.96616","3443916.89522","3444683.95167","3445450.33937","3455442.26405","Mapping"
"Mixed","Both","done","41","m160cling.wav","None","734.906040423","104","3453917.10608","3446199.98652","3446966.72946","3447733.56082","3448500.08765","3449267.17006","3450016.69788","3450783.06795","3454667.02005","3455433.26491","3456199.71321","3456966.71586","3443149.96616","3443916.89522","3444683.95167","3445450.33937","3456208.62516","Mapping"
"Mixed","Both","done","41","m160done.wav","None","734.048700513","104","3453917.10608","3446199.98652","3446966.72946","3447733.56082","3448500.08765","3449267.17006","3450016.69788","3450783.06795","3454667.02005","3455433.26491","3456199.71321","3456966.71586","3457733.36202","3443916.89522","3444683.95167","3445450.33937","3456976.07549","Mapping"
"Mixed","Both","done","41","m160reek.wav","space","477.762803464","104","3453917.10608","3446199.98652","3446966.72946","3447733.56082","3448500.08765","3449267.17006","3450016.69788","3450783.06795","3454667.02005","3455433.26491","3456199.71321","3456966.71586","3457733.36202","3458499.88823","3444683.95167","3445450.33937","3457742.80884","Mapping"
"Mixed","Both","done","41","m150done.wav","None","734.852553287","104","3453917.10608","3446199.98652","3446966.72946","3447733.56082","3448500.08765","3449267.17006","3450016.69788","3450783.06795","3454667.02005","3455433.26491","3456199.71321","3456966.71586","3457733.36202","3458499.88823","3459266.73753","3445450.33937","3458509.06112","Mapping"
"Mixed","Both","done","41","m150depth.wav","space","632.448816992","104","3453917.10608","3446199.98652","3446966.72946","3447733.56082","3448500.08765","3449267.17006","3450016.69788","3450783.06795","3454667.02005","3455433.26491","3456199.71321","3456966.71586","3457733.36202","3458499.88823","3459266.73753","3460033.33732","3459276.09901","Mapping"
"Mixed","Both","done","41","m150depth.wav","None","731.373725692","104","3453917.10608","3460800.00297","3446966.72946","3447733.56082","3448500.08765","3449267.17006","3450016.69788","3450783.06795","3454667.02005","3455433.26491","3456199.71321","3456966.71586","3457733.36202","3458499.88823","3459266.73753","3460033.33732","3460042.80702","Mapping"
"Mixed","Both","done","41","m150cad.wav","None","728.402562061","104","3453917.10608","3460800.00297","3461566.66831","3447733.56082","3448500.08765","3449267.17006","3450016.69788","3450783.06795","3454667.02005","3455433.26491","3456199.71321","3456966.71586","3457733.36202","3458499.88823","3459266.73753","3460033.33732","3460809.43402","Mapping"
"Mixed","Both","done","41","m160romp.wav","None","725.462625036","104","3453917.10608","3460800.00297","3461566.66831","3462333.04951","3448500.08765","3449267.17006","3450016.69788","3450783.06795","3454667.02005","3455433.26491","3456199.71321","3456966.71586","3457733.36202","3458499.88823","3459266.73753","3460033.33732","3461575.89375","Mapping"
"Mixed","Both","done","41","m150done.wav","None","725.74582856","104","3453917.10608","3460800.00297","3461566.66831","3462333.04951","3463100.01939","3449267.17006","3450016.69788","3450783.06795","3454667.02005","3455433.26491","3456199.71321","3456966.71586","3457733.36202","3458499.88823","3459266.73753","3460033.33732","3462342.10831","Mapping"
"Mixed","Both","done","41","m150cad.wav","space","549.971664208","104","3453917.10608","3460800.00297","3461566.66831","3462333.04951","3463100.01939","3463849.53916","3450016.69788","3450783.06795","3454667.02005","3455433.26491","3456199.71321","3456966.71586","3457733.36202","3458499.88823","3459266.73753","3460033.33732","3463110.51554","Mapping"
"Mixed","Both","done","41","m160done.wav","None","736.011338042","104","3453917.10608","3460800.00297","3461566.66831","3462333.04951","3463100.01939","3463849.53916","3464616.57736","3450783.06795","3454667.02005","3455433.26491","3456199.71321","3456966.71586","3457733.36202","3458499.88823","3459266.73753","3460033.33732","3463858.41215","Mapping"
"Mixed","Both","done","41","m160ball.wav","space","530.561401509","104","3453917.10608","3460800.00297","3461566.66831","3462333.04951","3463100.01939","3463849.53916","3464616.57736","3465383.26712","3454667.02005","3455433.26491","3456199.71321","3456966.71586","3457733.36202","3458499.88823","3459266.73753","3460033.33732","3464625.9138","Mapping"
"Mixed","Both","tile","31","m150jaw.wav","None","731.455966044","104","3468516.91693","3460800.00297","3461566.66831","3462333.04951","3463100.01939","3463849.53916","3464616.57736","3465383.26712","3454667.02005","3455433.26491","3456199.71321","3456966.71586","3457733.36202","3458499.88823","3459266.73753","3460033.33732","3465392.7934","Mapping"
"Mixed","Both","tile","31","m160tile.wav","None","722.613275982","104","3468516.91693","3460800.00297","3461566.66831","3462333.04951","3463100.01939","3463849.53916","3464616.57736","3465383.26712","3469266.55635","3455433.26491","3456199.71321","3456966.71586","3457733.36202","3458499.88823","3459266.73753","3460033.33732","3468526.80401","Mapping"
"Mixed","Both","tile","31","m160knife.wav","space","536.508366408","104","3468516.91693","3460800.00297","3461566.66831","3462333.04951","3463100.01939","3463849.53916","3464616.57736","3465383.26712","3469266.55635","3470032.95178","3456199.71321","3456966.71586","3457733.36202","3458499.88823","3459266.73753","3460033.33732","3469275.89991","Mapping"
"Mixed","Both","tile","31","m150cling.wav","None","734.017783107","104","3468516.91693","3460800.00297","3461566.66831","3462333.04951","3463100.01939","3463849.53916","3464616.57736","3465383.26712","3469266.55635","3470032.95178","3470799.71389","3456966.71586","3457733.36202","3458499.88823","3459266.73753","3460033.33732","3470042.26967","Mapping"
"Mixed","Both","tile","31","m160park.wav","None","730.804226914","104","3468516.91693","3460800.00297","3461566.66831","3462333.04951","3463100.01939","3463849.53916","3464616.57736","3465383.26712","3469266.55635","3470032.95178","3470799.71389","3471566.23732","3457733.36202","3458499.88823","3459266.73753","3460033.33732","3470808.9483","Mapping"
"Mixed","Both","tile","31","m160cad.wav","None","728.546637227","104","3468516.91693","3460800.00297","3461566.66831","3462333.04951","3463100.01939","3463849.53916","3464616.57736","3465383.26712","3469266.55635","3470032.95178","3470799.71389","3471566.23732","3472333.20781","3458499.88823","3459266.73753","3460033.33732","3471574.84905","Mapping"
"Mixed","Both","tile","31","m160cad.wav","None","724.941357388","104","3468516.91693","3460800.00297","3461566.66831","3462333.04951","3463100.01939","3463849.53916","3464616.57736","3465383.26712","3469266.55635","3470032.95178","3470799.71389","3471566.23732","3472333.20781","3473100.06916","3459266.73753","3460033.33732","3472342.26012","Mapping"
"Mixed","Both","tile","31","m150tile.wav","None","720.847582415","104","3468516.91693","3460800.00297","3461566.66831","3462333.04951","3463100.01939","3463849.53916","3464616.57736","3465383.26712","3469266.55635","3470032.95178","3470799.71389","3471566.23732","3472333.20781","3473100.06916","3473866.71811","3460033.33732","3473109.88699","Mapping"
"Mixed","Both","tile","31","m160bluff.wav","space","472.214673209","104","3468516.91693","3460800.00297","3461566.66831","3462333.04951","3463100.01939","3463849.53916","3464616.57736","3465383.26712","3469266.55635","3470032.95178","3470799.71389","3471566.23732","3472333.20781","3473100.06916","3473866.71811","3474616.32167","3473876.10093","Mapping"
"Mixed","Both","tile","31","m150tile.wav","None","735.145650396","104","3468516.91693","3475383.03957","3461566.66831","3462333.04951","3463100.01939","3463849.53916","3464616.57736","3465383.26712","3469266.55635","3470032.95178","3470799.71389","3471566.23732","3472333.20781","3473100.06916","3473866.71811","3474616.32167","3474625.70758","Mapping"
"Mixed","Both","tile","31","m160greet.wav","space","651.981203439","104","3468516.91693","3475383.03957","3476149.45726","3462333.04951","3463100.01939","3463849.53916","3464616.57736","3465383.26712","3469266.55635","3470032.95178","3470799.71389","3471566.23732","3472333.20781","3473100.06916","3473866.71811","3474616.32167","3475392.32716","Mapping"
"Mixed","Both","tile","31","m150knife.wav","None","729.163748852","104","3468516.91693","3475383.03957","3476149.45726","3476916.36592","3463100.01939","3463849.53916","3464616.57736","3465383.26712","3469266.55635","3470032.95178","3470799.71389","3471566.23732","3472333.20781","3473100.06916","3473866.71811","3474616.32167","3476158.62489","Mapping"
"Mixed","Both","tile","31","m150cad.wav","None","726.235560404","104","3468516.91693","3475383.03957","3476149.45726","3476916.36592","3477683.37289","3463849.53916","3464616.57736","3465383.26712","3469266.55635","3470032.95178","3470799.71389","3471566.23732","3472333.20781","3473100.06916","3473866.71811","3474616.32167","3476925.50789","Mapping"
"Mixed","Both","tile","31","m160tile.wav","None","722.159717523","104","3468516.91693","3475383.03957","3476149.45726","3476916.36592","3477683.37289","3478432.79775","3464616.57736","3465383.26712","3469266.55635","3470032.95178","3470799.71389","3471566.23732","3472333.20781","3473100.06916","3473866.71811","3474616.32167","3477693.22256","Mapping"
"Mixed","Both","tile","31","m150reek.wav","space","489.673428616","104","3468516.91693","3475383.03957","3476149.45726","3476916.36592","3477683.37289","3478432.79775","3479199.22626","3465383.26712","3469266.55635","3470032.95178","3470799.71389","3471566.23732","3472333.20781","3473100.06916","3473866.71811","3474616.32167","3478442.57229","Mapping"
"Mixed","Both","tile","31","m150done.wav","None","737.146007188","104","3468516.91693","3475383.03957","3476149.45726","3476916.36592","3477683.37289","3478432.79775","3479199.22626","3479966.11235","3469266.55635","3470032.95178","3470799.71389","3471566.23732","3472333.20781","3473100.06916","3473866.71811","3474616.32167","3479208.57012","Mapping"
"Mixed","Both","ball","10","m160priest.wav","None","734.265740757","104","3483099.8345","3475383.03957","3476149.45726","3476916.36592","3477683.37289","3478432.79775","3479199.22626","3479966.11235","3469266.55635","3470032.95178","3470799.71389","3471566.23732","3472333.20781","3473100.06916","3473866.71811","3474616.32167","3479975.12323","Mapping"
"Mixed","Both","ball","10","m160reek.wav","None","722.013168968","104","3483099.8345","3475383.03957","3476149.45726","3476916.36592","3477683.37289","3478432.79775","3479199.22626","3479966.11235","3483849.25781","3470032.95178","3470799.71389","3471566.23732","3472333.20781","3473100.06916","3473866.71811","3474616.32167","3483108.68925","Mapping"
"Mixed","Both","ball","10","m160priest.wav","None","736.304744321","104","3483099.8345","3475383.03957","3476149.45726","3476916.36592","3477683.37289","3478432.79775","3479199.22626","3479966.11235","3483849.25781","3484616.33559","3470799.71389","3471566.23732","3472333.20781","3473100.06916","3473866.71811","3474616.32167","3483858.14502","Mapping"
"Mixed","Both","ball","10","m150dime.wav","None","732.309286686","104","3483099.8345","3475383.03957","3476149.45726","3476916.36592","3477683.37289","3478432.79775","3479199.22626","3479966.11235","3483849.25781","3484616.33559","3485382.81944","3471566.23732","3472333.20781","3473100.06916","3473866.71811","3474616.32167","3484625.78179","Mapping"
"Mixed","Both","ball","10","m160ball.wav","None","729.561346787","104","3483099.8345","3475383.03957","3476149.45726","3476916.36592","3477683.37289","3478432.79775","3479199.22626","3479966.11235","3483849.25781","3484616.33559","3485382.81944","3486149.74108","3472333.20781","3473100.06916","3473866.71811","3474616.32167","3485392.06993","Mapping"
"Mixed","Both","ball","10","m160jaw.wav","space","516.943516675","104","3483099.8345","3475383.03957","3476149.45726","3476916.36592","3477683.37289","3478432.79775","3479199.22626","3479966.11235","3483849.25781","3484616.33559","3485382.81944","3486149.74108","3486916.59316","3473100.06916","3473866.71811","3474616.32167","3486159.19686","Mapping"
"Mixed","Both","ball","10","m160depth.wav","None","722.126326698","104","3483099.8345","3475383.03957","3476149.45726","3476916.36592","3477683.37289","3478432.79775","3479199.22626","3479966.11235","3483849.25781","3484616.33559","3485382.81944","3486149.74108","3486916.59316","3487665.93732","3473866.71811","3474616.32167","3486926.22888","Mapping"
"Mixed","Both","ball","10","m150jolt.wav","None","737.318835542","104","3483099.8345","3475383.03957","3476149.45726","3476916.36592","3477683.37289","3478432.79775","3479199.22626","3479966.11235","3483849.25781","3484616.33559","3485382.81944","3486149.74108","3486916.59316","3487665.93732","3488449.78625","3474616.32167","3487674.61059","Mapping"
"Mixed","Both","ball","10","m150ball.wav","None","719.73424626","104","3483099.8345","3475383.03957","3476149.45726","3476916.36592","3477683.37289","3478432.79775","3479199.22626","3479966.11235","3483849.25781","3484616.33559","3485382.81944","3486149.74108","3486916.59316","3487665.93732","3488449.78625","3489199.42506","3488459.91263","Mapping"
"Mixed","Both","ball","10","m150jolt.wav","space","571.237590135","104","3483099.8345","3489966.20912","3476149.45726","3476916.36592","3477683.37289","3478432.79775","3479199.22626","3479966.11235","3483849.25781","3484616.33559","3485382.81944","3486149.74108","3486916.59316","3487665.93732","3488449.78625","3489199.42506","3489208.85858","Mapping"
"Mixed","Both","ball","10","m150ball.wav","None","730.738372804","104","3483099.8345","3489966.20912","3490732.87879","3476916.36592","3477683.37289","3478432.79775","3479199.22626","3479966.11235","3483849.25781","3484616.33559","3485382.81944","3486149.74108","3486916.59316","3487665.93732","3488449.78625","3489199.42506","3489975.63027","Mapping"
"Mixed","Both","ball","10","m150lash.wav","space","565.778811258","104","3483099.8345","3489966.20912","3490732.87879","3491499.60503","3477683.37289","3478432.79775","3479199.22626","3479966.11235","3483849.25781","3484616.33559","3485382.81944","3486149.74108","3486916.59316","3487665.93732","3488449.78625","3489199.42506","3490742.30798","Mapping"
"Mixed","Both","ball","10","m150cad.wav","None","724.426891596","104","3483099.8345","3489966.20912","3490732.87879","3491499.60503","3492266.41259","3478432.79775","3479199.22626","3479966.11235","3483849.25781","3484616.33559","3485382.81944","3486149.74108","3486916.59316","3487665.93732","3488449.78625","3489199.42506","3491508.68857","Mapping"
"Mixed","Both","ball","10","m160ball.wav","None","720.319203741","104","3483099.8345","3489966.20912","3490732.87879","3491499.60503","3492266.41259","3493016.11694","3479199.22626","3479966.11235","3483849.25781","3484616.33559","3485382.81944","3486149.74108","3486916.59316","3487665.93732","3488449.78625","3489199.42506","3492276.51145","Mapping"
"Mixed","Both","ball","10","m150romp.wav","space","578.651277203","104","3483099.8345","3489966.20912","3490732.87879","3491499.60503","3492266.41259","3493016.11694","3493782.89698","3479966.11235","3483849.25781","3484616.33559","3485382.81944","3486149.74108","3486916.59316","3487665.93732","3488449.78625","3489199.42506","3493025.39835","Mapping"
"Mixed","Both","ball","10","m160reek.wav","None","731.900558458","104","3483099.8345","3489966.20912","3490732.87879","3491499.60503","3492266.41259","3493016.11694","3493782.89698","3494549.39505","3483849.25781","3484616.33559","3485382.81944","3486149.74108","3486916.59316","3487665.93732","3488449.78625","3489199.42506","3493791.87045","Mapping"
"Mixed","Both","tile","30","m150jaw.wav","None","728.409054718","104","3497665.96175","3489966.20912","3490732.87879","3491499.60503","3492266.41259","3493016.11694","3493782.89698","3494549.39505","3483849.25781","3484616.33559","3485382.81944","3486149.74108","3486916.59316","3487665.93732","3488449.78625","3489199.42506","3494559.01624","Mapping"
"Mixed","Both","tile","30","m160knife.wav","None","736.857547716","104","3497665.96175","3489966.20912","3490732.87879","3491499.60503","3492266.41259","3493016.11694","3493782.89698","3494549.39505","3498432.60266","3484616.33559","3485382.81944","3486149.74108","3486916.59316","3487665.93732","3488449.78625","3489199.42506","3497675.00169","Mapping"
"Mixed","Both","tile","30","m150depth.wav","None","733.881746448","104","3497665.96175","3489966.20912","3490732.87879","3491499.60503","3492266.41259","3493016.11694","3493782.89698","3494549.39505","3498432.60266","3499199.2513","3485382.81944","3486149.74108","3486916.59316","3487665.93732","3488449.78625","3489199.42506","3498441.95054","Mapping"
"Mixed","Both","tile","30","m150tile.wav","None","731.261804642","104","3497665.96175","3489966.20912","3490732.87879","3491499.60503","3492266.41259","3493016.11694","3493782.89698","3494549.39505","3498432.60266","3499199.2513","3499966.07617","3486149.74108","3486916.59316","3487665.93732","3488449.78625","3489199.42506","3499208.25075","Mapping"
"Mixed","Both","tile","30","m160knife.wav","space","524.436661508","104","3497665.96175","3489966.20912","3490732.87879","3491499.60503","3492266.41259","3493016.11694","3493782.89698","3494549.39505","3498432.60266","3499199.2513","3499966.07617","3500733.14591","3486916.59316","3487665.93732","3488449.78625","3489199.42506","3499975.48775","Mapping"
"Mixed","Both","tile","30","m160dime.wav","None","723.189576616","104","3497665.96175","3489966.20912","3490732.87879","3491499.60503","3492266.41259","3493016.11694","3493782.89698","3494549.39505","3498432.60266","3499199.2513","3499966.07617","3500733.14591","3501499.49836","3487665.93732","3488449.78625","3489199.42506","3500743.30878","Mapping"
"Mixed","Both","tile","30","m150tile.wav","None","720.461114717","104","3497665.96175","3489966.20912","3490732.87879","3491499.60503","3492266.41259","3493016.11694","3493782.89698","3494549.39505","3498432.60266","3499199.2513","3499966.07617","3500733.14591","3501499.49836","3502249.2763","3488449.78625","3489199.42506","3501509.83406","Mapping"
"Mixed","Both","tile","30","m150bluff.wav","space","593.02447454","104","3497665.96175","3489966.20912","3490732.87879","3491499.60503","3492266.41259","3493016.11694","3493782.89698","3494549.39505","3498432.60266","3499199.2513","3499966.07617","3500733.14591","3501499.49836","3502249.2763","3503015.99512","3489199.42506","3502258.86534","Mapping"
"Mixed","Both","tile","30","m160tile.wav","None","731.830066768","104","3497665.96175","3489966.20912","3490732.87879","3491499.60503","3492266.41259","3493016.11694","3493782.89698","3494549.39505","3498432.60266","3499199.2513","3499966.07617","3500733.14591","3501499.49836","3502249.2763","3503015.99512","3503782.63696","3503025.42123","Mapping"
"Mixed","Both","tile","30","m160dime.wav","space","643.775412172","104","3497665.96175","3504549.13287","3490732.87879","3491499.60503","3492266.41259","3493016.11694","3493782.89698","3494549.39505","3498432.60266","3499199.2513","3499966.07617","3500733.14591","3501499.49836","3502249.2763","3503015.99512","3503782.63696","3503792.10202","Mapping"
"Mixed","Both","tile","30","m150reek.wav","None","725.217759085","104","3497665.96175","3504549.13287","3505316.172","3491499.60503","3492266.41259","3493016.11694","3493782.89698","3494549.39505","3498432.60266","3499199.2513","3499966.07617","3500733.14591","3501499.49836","3502249.2763","3503015.99512","3503782.63696","3504558.77571","Mapping"
"Mixed","Both","tile","30","m160tile.wav","None","721.474896767","104","3497665.96175","3504549.13287","3505316.172","3506065.74063","3492266.41259","3493016.11694","3493782.89698","3494549.39505","3498432.60266","3499199.2513","3499966.07617","3500733.14591","3501499.49836","3502249.2763","3503015.99512","3503782.63696","3505326.36857","Mapping"
"Mixed","Both","tile","30","m160bluff.wav","space","505.089779559","104","3497665.96175","3504549.13287","3505316.172","3506065.74063","3506832.69504","3493016.11694","3493782.89698","3494549.39505","3498432.60266","3499199.2513","3499966.07617","3500733.14591","3501499.49836","3502249.2763","3503015.99512","3503782.63696","3506074.758","Mapping"
"Mixed","Both","tile","30","m150jolt.wav","None","732.270639914","104","3497665.96175","3504549.13287","3505316.172","3506065.74063","3506832.69504","3507599.152","3493782.89698","3494549.39505","3498432.60266","3499199.2513","3499966.07617","3500733.14591","3501499.49836","3502249.2763","3503015.99512","3503782.63696","3506842.44485","Mapping"
"Mixed","Both","tile","30","m150depth.wav","None","729.631529335","104","3497665.96175","3504549.13287","3505316.172","3506065.74063","3506832.69504","3507599.152","3508365.93235","3494549.39505","3498432.60266","3499199.2513","3499966.07617","3500733.14591","3501499.49836","3502249.2763","3503015.99512","3503782.63696","3507608.73269","Mapping"
"Mixed","Both","tile","30","m160dime.wav","None","726.984380191","104","3497665.96175","3504549.13287","3505316.172","3506065.74063","3506832.69504","3507599.152","3508365.93235","3509133.08247","3498432.60266","3499199.2513","3499966.07617","3500733.14591","3501499.49836","3502249.2763","3503015.99512","3503782.63696","3508375.24313","Mapping"
"Mixed","Both","done","45","m160cave.wav","None","723.098679446","104","3512232.29615","3504549.13287","3505316.172","3506065.74063","3506832.69504","3507599.152","3508365.93235","3509133.08247","3498432.60266","3499199.2513","3499966.07617","3500733.14591","3501499.49836","3502249.2763","3503015.99512","3503782.63696","3509142.94791","Mapping"
"Mixed","Both","done","45","m160romp.wav","None","737.399530015","104","3512232.29615","3504549.13287","3505316.172","3506065.74063","3506832.69504","3507599.152","3508365.93235","3509133.08247","3512998.87924","3499199.2513","3499966.07617","3500733.14591","3501499.49836","3502249.2763","3503015.99512","3503782.63696","3512241.66722","Mapping"
"Mixed","Both","done","45","m160lash.wav","None","734.875123017","104","3512232.29615","3504549.13287","3505316.172","3506065.74063","3506832.69504","3507599.152","3508365.93235","3509133.08247","3512998.87924","3513765.60332","3499966.07617","3500733.14591","3501499.49836","3502249.2763","3503015.99512","3503782.63696","3513008.03234","Mapping"
"Mixed","Both","done","45","m150tile.wav","None","732.000112562","104","3512232.29615","3504549.13287","3505316.172","3506065.74063","3506832.69504","3507599.152","3508365.93235","3509133.08247","3512998.87924","3513765.60332","3514532.55032","3500733.14591","3501499.49836","3502249.2763","3503015.99512","3503782.63696","3513774.68624","Mapping"
"Mixed","Both","done","45","m160lash.wav","None","728.623621603","104","3512232.29615","3504549.13287","3505316.172","3506065.74063","3506832.69504","3507599.152","3508365.93235","3509133.08247","3512998.87924","3513765.60332","3514532.55032","3515299.062","3501499.49836","3502249.2763","3503015.99512","3503782.63696","3514541.82307","Mapping"
"Mixed","Both","done","45","m160done.wav","None","726.239270472","104","3512232.29615","3504549.13287","3505316.172","3506065.74063","3506832.69504","3507599.152","3508365.93235","3509133.08247","3512998.87924","3513765.60332","3514532.55032","3515299.062","3516065.74032","3502249.2763","3503015.99512","3503782.63696","3515308.06855","Mapping"
"Mixed","Both","done","45","m160tile.wav","space","520.710803743","104","3512232.29615","3504549.13287","3505316.172","3506065.74063","3506832.69504","3507599.152","3508365.93235","3509133.08247","3512998.87924","3513765.60332","3514532.55032","3515299.062","3516065.74032","3516815.58071","3503015.99512","3503782.63696","3516075.00565","Mapping"
"Mixed","Both","done","45","m150done.wav","None","735.902508721","104","3512232.29615","3504549.13287","3505316.172","3506065.74063","3506832.69504","3507599.152","3508365.93235","3509133.08247","3512998.87924","3513765.60332","3514532.55032","3515299.062","3516065.74032","3516815.58071","3517582.50822","3503782.63696","3516825.09492","Mapping"
"Mixed","Both","done","45","m160tile.wav","space","475.448634883","104","3512232.29615","3504549.13287","3505316.172","3506065.74063","3506832.69504","3507599.152","3508365.93235","3509133.08247","3512998.87924","3513765.60332","3514532.55032","3515299.062","3516065.74032","3516815.58071","3517582.50822","3518348.99146","3517592.24412","Mapping"
"Mixed","Both","done","45","m160done.wav","None","729.348634981","104","3512232.29615","3519115.53313","3505316.172","3506065.74063","3506832.69504","3507599.152","3508365.93235","3509133.08247","3512998.87924","3513765.60332","3514532.55032","3515299.062","3516065.74032","3516815.58071","3517582.50822","3518348.99146","3518358.56906","Mapping"
"Mixed","Both","done","45","m150ball.wav","space","447.152088629","104","3512232.29615","3519115.53313","3519882.47177","3506065.74063","3506832.69504","3507599.152","3508365.93235","3509133.08247","3512998.87924","3513765.60332","3514532.55032","3515299.062","3516065.74032","3516815.58071","3517582.50822","3518348.99146","3519124.51464","Mapping"
"Mixed","Both","done","45","m150depth.wav","None","723.150929873","104","3512232.29615","3519115.53313","3519882.47177","3520632.0707","3506832.69504","3507599.152","3508365.93235","3509133.08247","3512998.87924","3513765.60332","3514532.55032","3515299.062","3516065.74032","3516815.58071","3517582.50822","3518348.99146","3519891.6966","Mapping"
"Mixed","Both","done","45","m150romp.wav","None","737.283280498","104","3512232.29615","3519115.53313","3519882.47177","3520632.0707","3521398.90732","3507599.152","3508365.93235","3509133.08247","3512998.87924","3513765.60332","3514532.55032","3515299.062","3516065.74032","3516815.58071","3517582.50822","3518348.99146","3520641.3688","Mapping"
"Mixed","Both","done","45","m150dime.wav","None","734.539050696","104","3512232.29615","3519115.53313","3519882.47177","3520632.0707","3521398.90732","3522165.56802","3508365.93235","3509133.08247","3512998.87924","3513765.60332","3514532.55032","3515299.062","3516065.74032","3516815.58071","3517582.50822","3518348.99146","3521408.07155","Mapping"
"Mixed","Both","done","45","m150done.wav","None","731.528003584","104","3512232.29615","3519115.53313","3519882.47177","3520632.0707","3521398.90732","3522165.56802","3522932.52831","3509133.08247","3512998.87924","3513765.60332","3514532.55032","3515299.062","3516065.74032","3516815.58071","3517582.50822","3518348.99146","3522174.70473","Mapping"
"Mixed","Both","done","45","m150cad.wav","space","605.49810584","104","3512232.29615","3519115.53313","3519882.47177","3520632.0707","3521398.90732","3522165.56802","3522932.52831","3523698.899","3512998.87924","3513765.60332","3514532.55032","3515299.062","3516065.74032","3516815.58071","3517582.50822","3518348.99146","3522942.11209","Mapping"
"Mixed","Both","done","46","m150jaw.wav","None","724.814595975","104","3526798.65219","3519115.53313","3519882.47177","3520632.0707","3521398.90732","3522165.56802","3522932.52831","3523698.899","3512998.87924","3513765.60332","3514532.55032","3515299.062","3516065.74032","3516815.58071","3517582.50822","3518348.99146","3523708.25152","Mapping"
"Mixed","Both","done","46","m150done.wav","None","737.154354894","104","3526798.65219","3519115.53313","3519882.47177","3520632.0707","3521398.90732","3522165.56802","3522932.52831","3523698.899","3527565.37039","3513765.60332","3514532.55032","3515299.062","3516065.74032","3516815.58071","3517582.50822","3518348.99146","3526808.08323","Mapping"
"Mixed","Both","done","46","m160reek.wav","space","421.113441262","104","3526798.65219","3519115.53313","3519882.47177","3520632.0707","3521398.90732","3522165.56802","3522932.52831","3523698.899","3527565.37039","3528332.1427","3514532.55032","3515299.062","3516065.74032","3516815.58071","3517582.50822","3518348.99146","3527574.42177","Mapping"
"Mixed","Both","done","46","m160reek.wav","None","731.103198312","104","3526798.65219","3519115.53313","3519882.47177","3520632.0707","3521398.90732","3522165.56802","3522932.52831","3523698.899","3527565.37039","3528332.1427","3529099.28139","3515299.062","3516065.74032","3516815.58071","3517582.50822","3518348.99146","3528341.10041","Mapping"
"Mixed","Both","done","46","m150dime.wav","None","727.154426015","104","3526798.65219","3519115.53313","3519882.47177","3520632.0707","3521398.90732","3522165.56802","3522932.52831","3523698.899","3527565.37039","3528332.1427","3529099.28139","3529865.59828","3516065.74032","3516815.58071","3517582.50822","3518348.99146","3529108.89299","Mapping"
"Mixed","Both","done","46","m150depth.wav","None","725.087905943","104","3526798.65219","3519115.53313","3519882.47177","3520632.0707","3521398.90732","3522165.56802","3522932.52831","3523698.899","3527565.37039","3528332.1427","3529099.28139","3529865.59828","3530632.51034","3516815.58071","3517582.50822","3518348.99146","3529874.80889","Mapping"
"Mixed","Both","done","46","m150done.wav","None","721.441505972","104","3526798.65219","3519115.53313","3519882.47177","3520632.0707","3521398.90732","3522165.56802","3522932.52831","3523698.899","3527565.37039","3528332.1427","3529099.28139","3529865.59828","3530632.51034","3531381.93767","3517582.50822","3518348.99146","3530642.32508","Mapping"
"Mixed","Both","done","46","m150ball.wav","space","460.136475652","104","3526798.65219","3519115.53313","3519882.47177","3520632.0707","3521398.90732","3522165.56802","3522932.52831","3523698.899","3527565.37039","3528332.1427","3529099.28139","3529865.59828","3530632.51034","3531381.93767","3532148.76255","3518348.99146","3531391.34894","Mapping"
"Mixed","Both","done","46","m160depth.wav","None","732.79778185","104","3526798.65219","3519115.53313","3519882.47177","3520632.0707","3521398.90732","3522165.56802","3522932.52831","3523698.899","3527565.37039","3528332.1427","3529099.28139","3529865.59828","3530632.51034","3531381.93767","3532148.76255","3532915.33575","3532158.25265","Mapping"
"Mixed","Both","done","46","m150tile.wav","None","730.760633334","104","3526798.65219","3533682.07034","3519882.47177","3520632.0707","3521398.90732","3522165.56802","3522932.52831","3523698.899","3527565.37039","3528332.1427","3529099.28139","3529865.59828","3530632.51034","3531381.93767","3532148.76255","3532915.33575","3532924.25511","Mapping"
"Mixed","Both","done","46","m160done.wav","None","727.790397243","104","3526798.65219","3533682.07034","3534448.78576","3520632.0707","3521398.90732","3522165.56802","3522932.52831","3523698.899","3527565.37039","3528332.1427","3529099.28139","3529865.59828","3530632.51034","3531381.93767","3532148.76255","3532915.33575","3533690.96899","Mapping"
"Mixed","Both","done","46","m160dime.wav","space","504.934883298","104","3526798.65219","3533682.07034","3534448.78576","3535215.83231","3521398.90732","3522165.56802","3522932.52831","3523698.899","3527565.37039","3528332.1427","3529099.28139","3529865.59828","3530632.51034","3531381.93767","3532148.76255","3532915.33575","3534458.47868","Mapping"
"Mixed","Both","done","46","m150dime.wav","None","720.533461456","104","3526798.65219","3533682.07034","3534448.78576","3535215.83231","3535965.29767","3522165.56802","3522932.52831","3523698.899","3527565.37039","3528332.1427","3529099.28139","3529865.59828","3530632.51034","3531381.93767","3532148.76255","3532915.33575","3535225.37807","Mapping"
"Mixed","Both","done","46","m160done.wav","None","736.170871911","104","3526798.65219","3533682.07034","3534448.78576","3535215.83231","3535965.29767","3536732.14821","3522932.52831","3523698.899","3527565.37039","3528332.1427","3529099.28139","3529865.59828","3530632.51034","3531381.93767","3532148.76255","3532915.33575","3535974.48293","Mapping"
"Mixed","Both","done","46","m160cave.wav","space","629.766422004","104","3526798.65219","3533682.07034","3534448.78576","3535215.83231","3535965.29767","3536732.14821","3537498.73965","3523698.899","3527565.37039","3528332.1427","3529099.28139","3529865.59828","3530632.51034","3531381.93767","3532148.76255","3532915.33575","3536741.63212","Mapping"
"Mixed","Both","done","46","m160romp.wav","None","729.339668935","104","3526798.65219","3533682.07034","3534448.78576","3535215.83231","3535965.29767","3536732.14821","3537498.73965","3538265.64614","3527565.37039","3528332.1427","3529099.28139","3529865.59828","3530632.51034","3531381.93767","3532148.76255","3532915.33575","3537508.23872","Mapping"
"Mixed","Both","tile","32","m160priest.wav","None","726.476097887","104","3541382.69824","3533682.07034","3534448.78576","3535215.83231","3535965.29767","3536732.14821","3537498.73965","3538265.64614","3527565.37039","3528332.1427","3529099.28139","3529865.59828","3530632.51034","3531381.93767","3532148.76255","3532915.33575","3538274.84964","Mapping"
"Mixed","Both","tile","32","m160tile.wav","None","719.819269143","104","3541382.69824","3533682.07034","3534448.78576","3535215.83231","3535965.29767","3536732.14821","3537498.73965","3538265.64614","3542132.07611","3528332.1427","3529099.28139","3529865.59828","3530632.51034","3531381.93767","3532148.76255","3532915.33575","3541392.44867","Mapping"
"Mixed","Both","tile","32","m160jolt.wav","space","589.877699996","104","3541382.69824","3533682.07034","3534448.78576","3535215.83231","3535965.29767","3536732.14821","3537498.73965","3538265.64614","3542132.07611","3542898.57449","3529099.28139","3529865.59828","3530632.51034","3531381.93767","3532148.76255","3532915.33575","3542141.43574","Mapping"
"Mixed","Both","tile","32","m150cave.wav","None","731.251292746","104","3541382.69824","3533682.07034","3534448.78576","3535215.83231","3535965.29767","3536732.14821","3537498.73965","3538265.64614","3542132.07611","3542898.57449","3543665.42533","3529865.59828","3530632.51034","3531381.93767","3532148.76255","3532915.33575","3542908.34594","Mapping"
"Mixed","Both","tile","32","m150tile.wav","None","728.782846272","104","3541382.69824","3533682.07034","3534448.78576","3535215.83231","3535965.29767","3536732.14821","3537498.73965","3538265.64614","3542132.07611","3542898.57449","3543665.42533","3544432.15374","3530632.51034","3531381.93767","3532148.76255","3532915.33575","3543674.8032","Mapping"
"Mixed","Both","tile","32","m160jolt.wav","space","593.783187913","104","3541382.69824","3533682.07034","3534448.78576","3535215.83231","3535965.29767","3536732.14821","3537498.73965","3538265.64614","3542132.07611","3542898.57449","3543665.42533","3544432.15374","3545198.98541","3531381.93767","3532148.76255","3532915.33575","3544441.49884","Mapping"
"Mixed","Both","tile","32","m150jolt.wav","None","727.717432135","104","3541382.69824","3533682.07034","3534448.78576","3535215.83231","3535965.29767","3536732.14821","3537498.73965","3538265.64614","3542132.07611","3542898.57449","3543665.42533","3544432.15374","3545198.98541","3545948.52188","3532148.76255","3532915.33575","3545203.45855","Mapping"
"Mixed","Both","tile","32","m150gnash.wav","None","737.492900575","104","3541382.69824","3533682.07034","3534448.78576","3535215.83231","3535965.29767","3536732.14821","3537498.73965","3538265.64614","3542132.07611","3542898.57449","3543665.42533","3544432.15374","3545198.98541","3545948.52188","3546732.20973","3532915.33575","3545957.78351","Mapping"
"Mixed","Both","tile","32","m150jolt.wav","None","721.554972872","104","3541382.69824","3533682.07034","3534448.78576","3535215.83231","3535965.29767","3536732.14821","3537498.73965","3538265.64614","3542132.07611","3542898.57449","3543665.42533","3544432.15374","3545198.98541","3545948.52188","3546732.20973","3547481.91532","3546741.18784","Mapping"
"Mixed","Both","tile","32","m160tile.wav","None","735.371038347","104","3541382.69824","3548248.57633","3534448.78576","3535215.83231","3535965.29767","3536732.14821","3537498.73965","3538265.64614","3542132.07611","3542898.57449","3543665.42533","3544432.15374","3545198.98541","3545948.52188","3546732.20973","3547481.91532","3547491.33369","Mapping"
"Mixed","Both","tile","32","m160greet.wav","space","489.183387574","104","3541382.69824","3548248.57633","3549015.30443","3535215.83231","3535965.29767","3536732.14821","3537498.73965","3538265.64614","3542132.07611","3542898.57449","3543665.42533","3544432.15374","3545198.98541","3545948.52188","3546732.20973","3547481.91532","3548258.02562","Mapping"
"Mixed","Both","tile","32","m160depth.wav","None","729.085836938","104","3541382.69824","3548248.57633","3549015.30443","3549782.03377","3535965.29767","3536732.14821","3537498.73965","3538265.64614","3542132.07611","3542898.57449","3543665.42533","3544432.15374","3545198.98541","3545948.52188","3546732.20973","3547481.91532","3549024.77845","Mapping"
"Mixed","Both","tile","32","m160priest.wav","None","726.540715288","104","3541382.69824","3548248.57633","3549015.30443","3549782.03377","3550548.5575","3536732.14821","3537498.73965","3538265.64614","3542132.07611","3542898.57449","3543665.42533","3544432.15374","3545198.98541","3545948.52188","3546732.20973","3547481.91532","3549791.27591","Mapping"
"Mixed","Both","tile","32","m150ball.wav","None","724.776567571","104","3541382.69824","3548248.57633","3549015.30443","3549782.03377","3550548.5575","3551315.62167","3537498.73965","3538265.64614","3542132.07611","3542898.57449","3543665.42533","3544432.15374","3545198.98541","3545948.52188","3546732.20973","3547481.91532","3550557.8621","Mapping"
"Mixed","Both","tile","32","m150tile.wav","None","721.525910485","104","3541382.69824","3548248.57633","3549015.30443","3549782.03377","3550548.5575","3551315.62167","3552064.80599","3538265.64614","3542132.07611","3542898.57449","3543665.42533","3544432.15374","3545198.98541","3545948.52188","3546732.20973","3547481.91532","3551325.22246","Mapping"
"Mixed","Both","tile","32","m150cling.wav","space","633.380977059","104","3541382.69824","3548248.57633","3549015.30443","3549782.03377","3550548.5575","3551315.62167","3552064.80599","3552832.01146","3542132.07611","3542898.57449","3543665.42533","3544432.15374","3545198.98541","3545948.52188","3546732.20973","3547481.91532","3552073.78472","Mapping"
"Mixed","Both","done","48","m150gnash.wav","None","733.023478999","104","3555948.16788","3548248.57633","3549015.30443","3549782.03377","3550548.5575","3551315.62167","3552064.80599","3552832.01146","3542132.07611","3542898.57449","3543665.42533","3544432.15374","3545198.98541","3545948.52188","3546732.20973","3547481.91532","3552841.03533","Mapping"
"Mixed","Both","done","48","m160gnash.wav","None","737.27833372","104","3555948.16788","3548248.57633","3549015.30443","3549782.03377","3550548.5575","3551315.62167","3552064.80599","3552832.01146","3556715.18135","3542898.57449","3543665.42533","3544432.15374","3545198.98541","3545948.52188","3546732.20973","3547481.91532","3555957.54513","Mapping"
"Mixed","Both","done","48","m150done.wav","None","734.361893934","104","3555948.16788","3548248.57633","3549015.30443","3549782.03377","3550548.5575","3551315.62167","3552064.80599","3552832.01146","3556715.18135","3557481.83123","3543665.42533","3544432.15374","3545198.98541","3545948.52188","3546732.20973","3547481.91532","3556724.53943","Mapping"
"Mixed","Both","done","48","m160lash.wav","space","399.974585889","104","3555948.16788","3548248.57633","3549015.30443","3549782.03377","3550548.5575","3551315.62167","3552064.80599","3552832.01146","3556715.18135","3557481.83123","3558248.43442","3544432.15374","3545198.98541","3545948.52188","3546732.20973","3547481.91532","3557491.12005","Mapping"
"Mixed","Both","done","48","m160cling.wav","None","727.835536672","104","3555948.16788","3548248.57633","3549015.30443","3549782.03377","3550548.5575","3551315.62167","3552064.80599","3552832.01146","3556715.18135","3557481.83123","3558248.43442","3559014.99062","3545198.98541","3545948.52188","3546732.20973","3547481.91532","3558258.58615","Mapping"
"Mixed","Both","done","48","m150jolt.wav","None","725.968433923","104","3555948.16788","3548248.57633","3549015.30443","3549782.03377","3550548.5575","3551315.62167","3552064.80599","3552832.01146","3556715.18135","3557481.83123","3558248.43442","3559014.99062","3559782.12435","3545948.52188","3546732.20973","3547481.91532","3559024.5172","Mapping"
"Mixed","Both","done","48","m160done.wav","None","723.299024277","104","3555948.16788","3548248.57633","3549015.30443","3549782.03377","3550548.5575","3551315.62167","3552064.80599","3552832.01146","3556715.18135","3557481.83123","3558248.43442","3559014.99062","3559782.12435","3560531.60981","3546732.20973","3547481.91532","3559791.19707","Mapping"
"Mixed","Both","done","48","m150tile.wav","space","445.583029795","104","3555948.16788","3548248.57633","3549015.30443","3549782.03377","3550548.5575","3551315.62167","3552064.80599","3552832.01146","3556715.18135","3557481.83123","3558248.43442","3559014.99062","3559782.12435","3560531.60981","3561298.32647","3547481.91532","3560541.47247","Mapping"
"Mixed","Both","done","48","m160done.wav","None","733.748801576","104","3555948.16788","3548248.57633","3549015.30443","3549782.03377","3550548.5575","3551315.62167","3552064.80599","3552832.01146","3556715.18135","3557481.83123","3558248.43442","3559014.99062","3559782.12435","3560531.60981","3561298.32647","3562065.11486","3561307.92726","Mapping"
"Mixed","Both","done","48","m160park.wav","space","488.706022676","104","3555948.16788","3562831.64323","3549015.30443","3549782.03377","3550548.5575","3551315.62167","3552064.80599","3552832.01146","3556715.18135","3557481.83123","3558248.43442","3559014.99062","3559782.12435","3560531.60981","3561298.32647","3562065.11486","3562074.31681","Mapping"
"Mixed","Both","done","48","m150done.wav","None","728.334234591","104","3555948.16788","3562831.64323","3563598.16666","3549782.03377","3550548.5575","3551315.62167","3552064.80599","3552832.01146","3556715.18135","3557481.83123","3558248.43442","3559014.99062","3559782.12435","3560531.60981","3561298.32647","3562065.11486","3562840.45562","Mapping"
"Mixed","Both","done","48","m160lash.wav","space","548.174743977","104","3555948.16788","3562831.64323","3563598.16666","3564365.11087","3550548.5575","3551315.62167","3552064.80599","3552832.01146","3556715.18135","3557481.83123","3558248.43442","3559014.99062","3559782.12435","3560531.60981","3561298.32647","3562065.11486","3563606.8121","Mapping"
"Mixed","Both","done","48","m160greet.wav","None","721.91948918","104","3555948.16788","3562831.64323","3563598.16666","3564365.11087","3565114.98249","3551315.62167","3552064.80599","3552832.01146","3556715.18135","3557481.83123","3558248.43442","3559014.99062","3559782.12435","3560531.60981","3561298.32647","3562065.11486","3564374.11619","Mapping"
"Mixed","Both","done","48","m150cling.wav","None","735.824287665","104","3555948.16788","3562831.64323","3563598.16666","3564365.11087","3565114.98249","3565881.67318","3552064.80599","3552832.01146","3556715.18135","3557481.83123","3558248.43442","3559014.99062","3559782.12435","3560531.60981","3561298.32647","3562065.11486","3565124.28585","Mapping"
"Mixed","Both","done","48","m150bluff.wav","None","733.239900903","104","3555948.16788","3562831.64323","3563598.16666","3564365.11087","3565114.98249","3565881.67318","3566648.24885","3552832.01146","3556715.18135","3557481.83123","3558248.43442","3559014.99062","3559782.12435","3560531.60981","3561298.32647","3562065.11486","3565890.95613","Mapping"
"Mixed","Both","done","48","m150lash.wav","None","730.517622462","104","3555948.16788","3562831.64323","3563598.16666","3564365.11087","3565114.98249","3565881.67318","3566648.24885","3567414.81371","3556715.18135","3557481.83123","3558248.43442","3559014.99062","3559782.12435","3560531.60981","3561298.32647","3562065.11486","3566657.85087","Mapping"
"Mixed","Both","tile","26","m160romp.wav","None","728.996485617","104","3570531.34732","3562831.64323","3563598.16666","3564365.11087","3565114.98249","3565881.67318","3566648.24885","3567414.81371","3556715.18135","3557481.83123","3558248.43442","3559014.99062","3559782.12435","3560531.60981","3561298.32647","3562065.11486","3567423.48573","Mapping"
"Mixed","Both","tile","26","m160jolt.wav","None","737.131166825","104","3570531.34732","3562831.64323","3563598.16666","3564365.11087","3565114.98249","3565881.67318","3566648.24885","3567414.81371","3571298.16601","3557481.83123","3558248.43442","3559014.99062","3559782.12435","3560531.60981","3561298.32647","3562065.11486","3570540.78981","Mapping"
"Mixed","Both","tile","26","m150tile.wav","None","734.715898318","104","3570531.34732","3562831.64323","3563598.16666","3564365.11087","3565114.98249","3565881.67318","3566648.24885","3567414.81371","3571298.16601","3572065.14021","3558248.43442","3559014.99062","3559782.12435","3560531.60981","3561298.32647","3562065.11486","3571307.43845","Mapping"
"Mixed","Both","tile","26","m150jolt.wav","space","504.99857316","104","3570531.34732","3562831.64323","3563598.16666","3564365.11087","3565114.98249","3565881.67318","3566648.24885","3567414.81371","3571298.16601","3572065.14021","3572831.62066","3559014.99062","3559782.12435","3560531.60981","3561298.32647","3562065.11486","3572073.90623","Mapping"
"Mixed","Both","tile","26","m150depth.wav","None","728.724412358","104","3570531.34732","3562831.64323","3563598.16666","3564365.11087","3565114.98249","3565881.67318","3566648.24885","3567414.81371","3571298.16601","3572065.14021","3572831.62066","3573597.97404","3559782.12435","3560531.60981","3561298.32647","3562065.11486","3572840.66308","Mapping"
"Mixed","Both","tile","26","m150cave.wav","None","726.717562909","104","3570531.34732","3562831.64323","3563598.16666","3564365.11087","3565114.98249","3565881.67318","3566648.24885","3567414.81371","3571298.16601","3572065.14021","3572831.62066","3573597.97404","3574365.29545","3560531.60981","3561298.32647","3562065.11486","3573607.03223","Mapping"
"Mixed","Both","tile","26","m160tile.wav","None","723.330869223","104","3570531.34732","3562831.64323","3563598.16666","3564365.11087","3565114.98249","3565881.67318","3566648.24885","3567414.81371","3571298.16601","3572065.14021","3572831.62066","3573597.97404","3574365.29545","3575131.90266","3561298.32647","3562065.11486","3574374.70393","Mapping"
"Mixed","Both","tile","26","m160dime.wav","space","436.649133394","104","3570531.34732","3562831.64323","3563598.16666","3564365.11087","3565114.98249","3565881.67318","3566648.24885","3567414.81371","3571298.16601","3572065.14021","3572831.62066","3573597.97404","3574365.29545","3575131.90266","3575881.61969","3562065.11486","3575142.20434","Mapping"
"Mixed","Both","tile","26","m150tile.wav","None","734.709714859","104","3570531.34732","3562831.64323","3563598.16666","3564365.11087","3565114.98249","3565881.67318","3566648.24885","3567414.81371","3571298.16601","3572065.14021","3572831.62066","3573597.97404","3574365.29545","3575131.90266","3575881.61969","3576648.14095","3575890.7564","Mapping"
"Mixed","Both","tile","26","m160done.wav","space","576.695750671","104","3570531.34732","3577414.77197","3563598.16666","3564365.11087","3565114.98249","3565881.67318","3566648.24885","3567414.81371","3571298.16601","3572065.14021","3572831.62066","3573597.97404","3574365.29545","3575131.90266","3575881.61969","3576648.14095","3576658.05029","Mapping"
"Mixed","Both","tile","26","m150done.wav","None","729.297002894","104","3570531.34732","3577414.77197","3578181.29725","3564365.11087","3565114.98249","3565881.67318","3566648.24885","3567414.81371","3571298.16601","3572065.14021","3572831.62066","3573597.97404","3574365.29545","3575131.90266","3575881.61969","3576648.14095","3577423.70556","Mapping"
"Mixed","Both","tile","26","m160tile.wav","None","727.017152676","104","3570531.34732","3577414.77197","3578181.29725","3578948.08007","3565114.98249","3565881.67318","3566648.24885","3567414.81371","3571298.16601","3572065.14021","3572831.62066","3573597.97404","3574365.29545","3575131.90266","3575881.61969","3576648.14095","3578190.34771","Mapping"
"Mixed","Both","tile","26","m160park.wav","space","573.393152357","104","3570531.34732","3577414.77197","3578181.29725","3578948.08007","3579714.94947","3565881.67318","3566648.24885","3567414.81371","3571298.16601","3572065.14021","3572831.62066","3573597.97404","3574365.29545","3575131.90266","3575881.61969","3576648.14095","3578957.37632","Mapping"
"Mixed","Both","tile","26","m150ball.wav","None","720.804607175","104","3570531.34732","3577414.77197","3578181.29725","3578948.08007","3579714.94947","3580464.80315","3566648.24885","3567414.81371","3571298.16601","3572065.14021","3572831.62066","3573597.97404","3574365.29545","3575131.90266","3575881.61969","3576648.14095","3579724.44977","Mapping"
"Mixed","Both","tile","26","m150greet.wav","None","735.424525483","104","3570531.34732","3577414.77197","3578181.29725","3578948.08007","3579714.94947","3580464.80315","3581231.30834","3567414.81371","3571298.16601","3572065.14021","3572831.62066","3573597.97404","3574365.29545","3575131.90266","3575881.61969","3576648.14095","3580474.03385","Mapping"
"Mixed","Both","tile","26","m160bluff.wav","None","736.948444916","104","3570531.34732","3577414.77197","3578181.29725","3578948.08007","3579714.94947","3580464.80315","3581231.30834","3581997.98759","3571298.16601","3572065.14021","3572831.62066","3573597.97404","3574365.29545","3575131.90266","3575881.61969","3576648.14095","3581240.6389","Mapping"
"Mixed","Both","ball","8","m150reek.wav","None","734.234514152","104","3585114.40371","3577414.77197","3578181.29725","3578948.08007","3579714.94947","3580464.80315","3581231.30834","3581997.98759","3571298.16601","3572065.14021","3572831.62066","3573597.97404","3574365.29545","3575131.90266","3575881.61969","3576648.14095","3582007.61032","Mapping"
"Mixed","Both","ball","8","m160ball.wav","None","737.20784203","104","3585114.40371","3577414.77197","3578181.29725","3578948.08007","3579714.94947","3580464.80315","3581231.30834","3581997.98759","3585881.50035","3572065.14021","3572831.62066","3573597.97404","3574365.29545","3575131.90266","3575881.61969","3576648.14095","3585123.70336","Mapping"
"Mixed","Both","ball","8","m160knife.wav","space","447.918840568","104","3585114.40371","3577414.77197","3578181.29725","3578948.08007","3579714.94947","3580464.80315","3581231.30834","3581997.98759","3585881.50035","3586648.04294","3572831.62066","3573597.97404","3574365.29545","3575131.90266","3575881.61969","3576648.14095","3585890.76104","Mapping"
"Mixed","Both","ball","8","m150done.wav","None","730.43074453","104","3585114.40371","3577414.77197","3578181.29725","3578948.08007","3579714.94947","3580464.80315","3581231.30834","3581997.98759","3585881.50035","3586648.04294","3587414.64397","3573597.97404","3574365.29545","3575131.90266","3575881.61969","3576648.14095","3586657.69814","Mapping"
"Mixed","Both","ball","8","m150bluff.wav","None","728.745745349","104","3585114.40371","3577414.77197","3578181.29725","3578948.08007","3579714.94947","3580464.80315","3581231.30834","3581997.98759","3585881.50035","3586648.04294","3587414.64397","3588181.45246","3574365.29545","3575131.90266","3575881.61969","3576648.14095","3587424.01813","Mapping"
"Mixed","Both","ball","8","m150gnash.wav","None","726.682007866","104","3585114.40371","3577414.77197","3578181.29725","3578948.08007","3579714.94947","3580464.80315","3581231.30834","3581997.98759","3585881.50035","3586648.04294","3587414.64397","3588181.45246","3588948.26032","3575131.90266","3575881.61969","3576648.14095","3588190.58948","Mapping"
"Mixed","Both","ball","8","m150ball.wav","None","723.488857213","104","3585114.40371","3577414.77197","3578181.29725","3578948.08007","3579714.94947","3580464.80315","3581231.30834","3581997.98759","3585881.50035","3586648.04294","3587414.64397","3588181.45246","3588948.26032","3589715.12013","3575881.61969","3576648.14095","3588958.16224","Mapping"
"Mixed","Both","ball","8","m160bluff.wav","space","468.99184183","104","3585114.40371","3577414.77197","3578181.29725","3578948.08007","3579714.94947","3580464.80315","3581231.30834","3581997.98759","3585881.50035","3586648.04294","3587414.64397","3588181.45246","3588948.26032","3589715.12013","3590464.68041","3576648.14095","3589725.6336","Mapping"
"Mixed","Both","ball","8","m150dime.wav","None","734.797520301","104","3585114.40371","3577414.77197","3578181.29725","3578948.08007","3579714.94947","3580464.80315","3581231.30834","3581997.98759","3585881.50035","3586648.04294","3587414.64397","3588181.45246","3588948.26032","3589715.12013","3590464.68041","3591248.06774","3590474.08054","Mapping"
"Mixed","Both","ball","8","m150ball.wav","None","725.376674614","104","3585114.40371","3591997.85402","3578181.29725","3578948.08007","3579714.94947","3580464.80315","3581231.30834","3581997.98759","3585881.50035","3586648.04294","3587414.64397","3588181.45246","3588948.26032","3589715.12013","3590464.68041","3591248.06774","3591252.83242","Mapping"
"Mixed","Both","ball","8","m160bluff.wav","None","735.082578875","104","3585114.40371","3591997.85402","3592764.6251","3578948.08007","3579714.94947","3580464.80315","3581231.30834","3581997.98759","3585881.50035","3586648.04294","3587414.64397","3588181.45246","3588948.26032","3589715.12013","3590464.68041","3591248.06774","3592007.46841","Mapping"
"Mixed","Both","ball","8","m150tile.wav","space","0.0785302249715","104","3585114.40371","3591997.85402","3592764.6251","3593531.35907","3579714.94947","3580464.80315","3581231.30834","3581997.98759","3585881.50035","3586648.04294","3587414.64397","3588181.45246","3588948.26032","3589715.12013","3590464.68041","3591248.06774","3592773.94206","Mapping"
"Mixed","Both","ball","8","m160ball.wav","None","728.869105864","104","3585114.40371","3591997.85402","3592764.6251","3593531.35907","3594297.82066","3580464.80315","3581231.30834","3581997.98759","3585881.50035","3586648.04294","3587414.64397","3588181.45246","3588948.26032","3589715.12013","3590464.68041","3591248.06774","3593540.98335","Mapping"
"Mixed","Both","ball","8","m160cling.wav","space","583.199229033","104","3585114.40371","3591997.85402","3592764.6251","3593531.35907","3594297.82066","3595064.93152","3581231.30834","3581997.98759","3585881.50035","3586648.04294","3587414.64397","3588181.45246","3588948.26032","3589715.12013","3590464.68041","3591248.06774","3594307.3559","Mapping"
"Mixed","Both","ball","8","m160gnash.wav","None","722.583286115","104","3585114.40371","3591997.85402","3592764.6251","3593531.35907","3594297.82066","3595064.93152","3595831.64478","3581997.98759","3585881.50035","3586648.04294","3587414.64397","3588181.45246","3588948.26032","3589715.12013","3590464.68041","3591248.06774","3595074.74656","Mapping"
"Mixed","Both","ball","8","m160greet.wav","None","720.490486245","104","3585114.40371","3591997.85402","3592764.6251","3593531.35907","3594297.82066","3595064.93152","3595831.64478","3596581.13642","3585881.50035","3586648.04294","3587414.64397","3588181.45246","3588948.26032","3589715.12013","3590464.68041","3591248.06774","3595841.27401","Mapping"
"Mixed","Both","cave","22","m150knife.wav","None","735.570764868","104","3599697.69353","3591997.85402","3592764.6251","3593531.35907","3594297.82066","3595064.93152","3595831.64478","3596581.13642","3585881.50035","3586648.04294","3587414.64397","3588181.45246","3588948.26032","3589715.12013","3590464.68041","3591248.06774","3596590.50749","Mapping"
"Mixed","Both","cave","22","m160jolt.wav","None","737.362738262","104","3599697.69353","3591997.85402","3592764.6251","3593531.35907","3594297.82066","3595064.93152","3595831.64478","3596581.13642","3600464.57869","3586648.04294","3587414.64397","3588181.45246","3588948.26032","3589715.12013","3590464.68041","3591248.06774","3599706.94217","Mapping"
"Mixed","Both","cave","22","m150dime.wav","None","734.114245424","104","3599697.69353","3591997.85402","3592764.6251","3593531.35907","3594297.82066","3595064.93152","3595831.64478","3596581.13642","3600464.57869","3601230.98339","3587414.64397","3588181.45246","3588948.26032","3589715.12013","3590464.68041","3591248.06774","3600474.41785","Mapping"
"Mixed","Both","cave","22","m150cave.wav","None","733.275455947","104","3599697.69353","3591997.85402","3592764.6251","3593531.35907","3594297.82066","3595064.93152","3595831.64478","3596581.13642","3600464.57869","3601230.98339","3601997.74086","3588181.45246","3588948.26032","3589715.12013","3590464.68041","3591248.06774","3601240.01406","Mapping"
"Mixed","Both","cave","22","m150bluff.wav","space","579.087831109","104","3599697.69353","3591997.85402","3592764.6251","3593531.35907","3594297.82066","3595064.93152","3595831.64478","3596581.13642","3600464.57869","3601230.98339","3601997.74086","3602764.59727","3588948.26032","3589715.12013","3590464.68041","3591248.06774","3602007.3401","Mapping"
"Mixed","Both","cave","22","m160lash.wav","None","726.51443549","104","3599697.69353","3591997.85402","3592764.6251","3593531.35907","3594297.82066","3595064.93152","3595831.64478","3596581.13642","3600464.57869","3601230.98339","3601997.74086","3602764.59727","3603531.54829","3589715.12013","3590464.68041","3591248.06774","3602774.0008","Mapping"
"Mixed","Both","cave","22","m150lash.wav","None","723.530595714","104","3599697.69353","3591997.85402","3592764.6251","3593531.35907","3594297.82066","3595064.93152","3595831.64478","3596581.13642","3600464.57869","3601230.98339","3601997.74086","3602764.59727","3603531.54829","3604297.94835","3590464.68041","3591248.06774","3603541.25635","Mapping"
"Mixed","Both","cave","22","m160jaw.wav","None","722.352332989","104","3599697.69353","3591997.85402","3592764.6251","3593531.35907","3594297.82066","3595064.93152","3595831.64478","3596581.13642","3600464.57869","3601230.98339","3601997.74086","3602764.59727","3603531.54829","3604297.94835","3605047.52069","3591248.06774","3604307.30149","Mapping"
"Mixed","Both","cave","22","m160bluff.wav","None","735.438129137","104","3599697.69353","3591997.85402","3592764.6251","3593531.35907","3594297.82066","3595064.93152","3595831.64478","3596581.13642","3600464.57869","3601230.98339","3601997.74086","3602764.59727","3603531.54829","3604297.94835","3605047.52069","3605814.22653","3605058.50657","Mapping"
"Mixed","Both","cave","22","m160cave.wav","None","735.221398063","104","3599697.69353","3606581.06407","3592764.6251","3593531.35907","3594297.82066","3595064.93152","3595831.64478","3596581.13642","3600464.57869","3601230.98339","3601997.74086","3602764.59727","3603531.54829","3604297.94835","3605047.52069","3605814.22653","3605823.0182","Mapping"
"Mixed","Both","cave","22","m150cling.wav","space","595.178181713","104","3599697.69353","3606581.06407","3607347.70097","3593531.35907","3594297.82066","3595064.93152","3595831.64478","3596581.13642","3600464.57869","3601230.98339","3601997.74086","3602764.59727","3603531.54829","3604297.94835","3605047.52069","3605814.22653","3606591.18365","Mapping"
"Mixed","Both","cave","22","m160cad.wav","None","728.417711594","104","3599697.69353","3606581.06407","3607347.70097","3608114.41824","3594297.82066","3595064.93152","3595831.64478","3596581.13642","3600464.57869","3601230.98339","3601997.74086","3602764.59727","3603531.54829","3604297.94835","3605047.52069","3605814.22653","3607357.145","Mapping"
"Mixed","Both","cave","22","m160cave.wav","None","726.19629529","104","3599697.69353","3606581.06407","3607347.70097","3608114.41824","3608881.63731","3595064.93152","3595831.64478","3596581.13642","3600464.57869","3601230.98339","3601997.74086","3602764.59727","3603531.54829","3604297.94835","3605047.52069","3605814.22653","3608123.75932","Mapping"
"Mixed","Both","cave","22","m160done.wav","space","557.470683329","104","3599697.69353","3606581.06407","3607347.70097","3608114.41824","3608881.63731","3609647.55599","3595831.64478","3596581.13642","3600464.57869","3601230.98339","3601997.74086","3602764.59727","3603531.54829","3604297.94835","3605047.52069","3605814.22653","3608892.86683","Mapping"
"Mixed","Both","cave","22","m150cave.wav","None","722.498572373","104","3599697.69353","3606581.06407","3607347.70097","3608114.41824","3608881.63731","3609647.55599","3610397.45327","3596581.13642","3600464.57869","3601230.98339","3601997.74086","3602764.59727","3603531.54829","3604297.94835","3605047.52069","3605814.22653","3609656.37148","Mapping"
"Mixed","Both","cave","22","m150depth.wav","None","736.878262367","104","3599697.69353","3606581.06407","3607347.70097","3608114.41824","3608881.63731","3609647.55599","3610397.45327","3611164.39501","3600464.57869","3601230.98339","3601997.74086","3602764.59727","3603531.54829","3604297.94835","3605047.52069","3605814.22653","3610406.4657","Mapping"
"Mixed","Both","done","39","m150reek.wav","space","12.1783699724","104","3614280.69674","3606581.06407","3607347.70097","3608114.41824","3608881.63731","3609647.55599","3610397.45327","3611164.39501","3600464.57869","3601230.98339","3601997.74086","3602764.59727","3603531.54829","3604297.94835","3605047.52069","3605814.22653","3611174.10431","Mapping"
"Mixed","Both","done","39","m160dime.wav","None","736.921237578","104","3614280.69674","3606581.06407","3607347.70097","3608114.41824","3608881.63731","3609647.55599","3610397.45327","3611164.39501","3615047.47153","3601230.98339","3601997.74086","3602764.59727","3603531.54829","3604297.94835","3605047.52069","3605814.22653","3614290.14727","Mapping"
"Mixed","Both","done","39","m160done.wav","None","734.190920601","104","3614280.69674","3606581.06407","3607347.70097","3608114.41824","3608881.63731","3609647.55599","3610397.45327","3611164.39501","3615047.47153","3615814.60341","3601997.74086","3602764.59727","3603531.54829","3604297.94835","3605047.52069","3605814.22653","3615057.25844","Mapping"
"Mixed","Both","done","39","m160gnash.wav","space","490.584564832","104","3614280.69674","3606581.06407","3607347.70097","3608114.41824","3608881.63731","3609647.55599","3610397.45327","3611164.39501","3615047.47153","3615814.60341","3616581.04212","3602764.59727","3603531.54829","3604297.94835","3605047.52069","3605814.22653","3615823.68045","Mapping"
"Mixed","Both","done","39","m150cave.wav","None","728.573226195","104","3614280.69674","3606581.06407","3607347.70097","3608114.41824","3608881.63731","3609647.55599","3610397.45327","3611164.39501","3615047.47153","3615814.60341","3616581.04212","3617347.60667","3603531.54829","3604297.94835","3605047.52069","3605814.22653","3616590.51058","Mapping"
"Mixed","Both","done","39","m160done.wav","None","725.972144021","104","3614280.69674","3606581.06407","3607347.70097","3608114.41824","3608881.63731","3609647.55599","3610397.45327","3611164.39501","3615047.47153","3615814.60341","3616581.04212","3617347.60667","3618114.26428","3604297.94835","3605047.52069","3605814.22653","3617357.59021","Mapping"
"Mixed","Both","done","39","m160depth.wav","space","502.667709196","104","3614280.69674","3606581.06407","3607347.70097","3608114.41824","3608881.63731","3609647.55599","3610397.45327","3611164.39501","3615047.47153","3615814.60341","3616581.04212","3617347.60667","3618114.26428","3618881.09657","3605047.52069","3605814.22653","3618123.52806","Mapping"
"Mixed","Both","done","39","m160ball.wav","None","720.157814853","104","3614280.69674","3606581.06407","3607347.70097","3608114.41824","3608881.63731","3609647.55599","3610397.45327","3611164.39501","3615047.47153","3615814.60341","3616581.04212","3617347.60667","3618114.26428","3618881.09657","3619630.88811","3605814.22653","3618890.87946","Mapping"
"Mixed","Both","done","39","m150done.wav","None","735.122771526","104","3614280.69674","3606581.06407","3607347.70097","3608114.41824","3608881.63731","3609647.55599","3610397.45327","3611164.39501","3615047.47153","3615814.60341","3616581.04212","3617347.60667","3618114.26428","3618881.09657","3619630.88811","3620397.31631","3619640.3105","Mapping"
"Mixed","Both","done","39","m150greet.wav","space","379.645457637","104","3614280.69674","3621164.2868","3607347.70097","3608114.41824","3608881.63731","3609647.55599","3610397.45327","3611164.39501","3615047.47153","3615814.60341","3616581.04212","3617347.60667","3618114.26428","3618881.09657","3619630.88811","3620397.31631","3620406.48641","Mapping"
"Mixed","Both","done","39","m160priest.wav","None","729.545269744","104","3614280.69674","3621164.2868","3621930.779","3608114.41824","3608881.63731","3609647.55599","3610397.45327","3611164.39501","3615047.47153","3615814.60341","3616581.04212","3617347.60667","3618114.26428","3618881.09657","3619630.88811","3620397.31631","3621173.39414","Mapping"
"Mixed","Both","done","39","m150ball.wav","None","727.708466089","104","3614280.69674","3621164.2868","3621930.779","3622697.39178","3608881.63731","3609647.55599","3610397.45327","3611164.39501","3615047.47153","3615814.60341","3616581.04212","3617347.60667","3618114.26428","3618881.09657","3619630.88811","3620397.31631","3621939.69805","Mapping"
"Mixed","Both","done","39","m150knife.wav","None","724.927753733","104","3614280.69674","3621164.2868","3621930.779","3622697.39178","3623464.70298","3609647.55599","3610397.45327","3611164.39501","3615047.47153","3615814.60341","3616581.04212","3617347.60667","3618114.26428","3618881.09657","3619630.88811","3620397.31631","3622707.00276","Mapping"
"Mixed","Both","done","39","m150jolt.wav","None","722.1454955","104","3614280.69674","3621164.2868","3621930.779","3622697.39178","3623464.70298","3624214.05796","3610397.45327","3611164.39501","3615047.47153","3615814.60341","3616581.04212","3617347.60667","3618114.26428","3618881.09657","3619630.88811","3620397.31631","3623474.19803","Mapping"
"Mixed","Both","done","39","m150done.wav","None","737.57081246","104","3614280.69674","3621164.2868","3621930.779","3622697.39178","3623464.70298","3624214.05796","3624980.49977","3611164.39501","3615047.47153","3615814.60341","3616581.04212","3617347.60667","3618114.26428","3618881.09657","3619630.88811","3620397.31631","3624223.26795","Mapping"
"Mixed","Both","done","39","m160bluff.wav","space","452.371566731","104","3614280.69674","3621164.2868","3621930.779","3622697.39178","3623464.70298","3624214.05796","3624980.49977","3625747.29527","3615047.47153","3615814.60341","3616581.04212","3617347.60667","3618114.26428","3618881.09657","3619630.88811","3620397.31631","3624989.69955","Mapping"
"Mixed","Both","ball","11","m150greet.wav","None","731.78369063","104","3628864.18845","3621164.2868","3621930.779","3622697.39178","3623464.70298","3624214.05796","3624980.49977","3625747.29527","3615047.47153","3615814.60341","3616581.04212","3617347.60667","3618114.26428","3618881.09657","3619630.88811","3620397.31631","3625756.50186","Mapping"
"Mixed","Both","ball","11","m150tile.wav","None","737.431684101","104","3628864.18845","3621164.2868","3621930.779","3622697.39178","3623464.70298","3624214.05796","3624980.49977","3625747.29527","3629630.75423","3615814.60341","3616581.04212","3617347.60667","3618114.26428","3618881.09657","3619630.88811","3620397.31631","3628873.52675","Mapping"
"Mixed","Both","ball","11","m160ball.wav","None","735.00435779","104","3628864.18845","3621164.2868","3621930.779","3622697.39178","3623464.70298","3624214.05796","3624980.49977","3625747.29527","3629630.75423","3630397.36732","3616581.04212","3617347.60667","3618114.26428","3618881.09657","3619630.88811","3620397.31631","3629640.39181","Mapping"
"Mixed","Both","ball","11","m150dime.wav","space","507.125382166","104","3628864.18845","3621164.2868","3621930.779","3622697.39178","3623464.70298","3624214.05796","3624980.49977","3625747.29527","3629630.75423","3630397.36732","3631164.13252","3617347.60667","3618114.26428","3618881.09657","3619630.88811","3620397.31631","3630406.91771","Mapping"
"Mixed","Both","ball","11","m160cling.wav","None","730.255133589","104","3628864.18845","3621164.2868","3621930.779","3622697.39178","3623464.70298","3624214.05796","3624980.49977","3625747.29527","3629630.75423","3630397.36732","3631164.13252","3631931.07271","3618114.26428","3618881.09657","3619630.88811","3620397.31631","3631173.47545","Mapping"
"Mixed","Both","ball","11","m160bluff.wav","None","727.321070881","104","3628864.18845","3621164.2868","3621930.779","3622697.39178","3623464.70298","3624214.05796","3624980.49977","3625747.29527","3629630.75423","3630397.36732","3631164.13252","3631931.07271","3632697.23533","3618881.09657","3619630.88811","3620397.31631","3631940.84973","Mapping"
"Mixed","Both","ball","11","m150greet.wav","None","725.977399997","104","3628864.18845","3621164.2868","3621930.779","3622697.39178","3623464.70298","3624214.05796","3624980.49977","3625747.29527","3629630.75423","3630397.36732","3631164.13252","3631931.07271","3632697.23533","3633464.26921","3619630.88811","3620397.31631","3632706.80922","Mapping"
"Mixed","Both","ball","11","m160ball.wav","None","723.382501281","104","3628864.18845","3621164.2868","3621930.779","3622697.39178","3623464.70298","3624214.05796","3624980.49977","3625747.29527","3629630.75423","3630397.36732","3631164.13252","3631931.07271","3632697.23533","3633464.26921","3634231.02142","3620397.31631","3633473.88483","Mapping"
"Mixed","Both","ball","11","m150priest.wav","space","512.821606797","104","3628864.18845","3621164.2868","3621930.779","3622697.39178","3623464.70298","3624214.05796","3624980.49977","3625747.29527","3629630.75423","3630397.36732","3631164.13252","3631931.07271","3632697.23533","3633464.26921","3634231.02142","3634980.62065","3634241.13605","Mapping"
"Mixed","Both","ball","11","m160bluff.wav","None","734.91346059","104","3628864.18845","3635747.06091","3621930.779","3622697.39178","3623464.70298","3624214.05796","3624980.49977","3625747.29527","3629630.75423","3630397.36732","3631164.13252","3631931.07271","3632697.23533","3633464.26921","3634231.02142","3634980.62065","3634990.12467","Mapping"
"Mixed","Both","ball","11","m150ball.wav","None","733.31317518","104","3628864.18845","3635747.06091","3636514.01749","3622697.39178","3623464.70298","3624214.05796","3624980.49977","3625747.29527","3629630.75423","3630397.36732","3631164.13252","3631931.07271","3632697.23533","3633464.26921","3634231.02142","3634980.62065","3635756.25019","Mapping"
"Mixed","Both","ball","11","m150cling.wav","space","398.481893062","104","3628864.18845","3635747.06091","3636514.01749","3637280.65469","3623464.70298","3624214.05796","3624980.49977","3625747.29527","3629630.75423","3630397.36732","3631164.13252","3631931.07271","3632697.23533","3633464.26921","3634231.02142","3634980.62065","3636523.46184","Mapping"
"Mixed","Both","ball","11","m150ball.wav","None","727.560680855","104","3628864.18845","3635747.06091","3636514.01749","3637280.65469","3638047.16823","3624214.05796","3624980.49977","3625747.29527","3629630.75423","3630397.36732","3631164.13252","3631931.07271","3632697.23533","3633464.26921","3634231.02142","3634980.62065","3637289.68536","Mapping"
"Mixed","Both","ball","11","m160park.wav","space","537.554611743","104","3628864.18845","3635747.06091","3636514.01749","3637280.65469","3638047.16823","3638814.47108","3624980.49977","3625747.29527","3629630.75423","3630397.36732","3631164.13252","3631931.07271","3632697.23533","3633464.26921","3634231.02142","3634980.62065","3638056.37451","Mapping"
"Mixed","Both","ball","11","m160park.wav","None","720.859021822","104","3628864.18845","3635747.06091","3636514.01749","3637280.65469","3638047.16823","3638814.47108","3639563.68045","3625747.29527","3629630.75423","3630397.36732","3631164.13252","3631931.07271","3632697.23533","3633464.26921","3634231.02142","3634980.62065","3638824.04311","Mapping"
"Mixed","Both","ball","11","m160cad.wav","None","736.723675305","104","3628864.18845","3635747.06091","3636514.01749","3637280.65469","3638047.16823","3638814.47108","3639563.68045","3640330.66825","3629630.75423","3630397.36732","3631164.13252","3631931.07271","3632697.23533","3633464.26921","3634231.02142","3634980.62065","3639572.704","Mapping"
"Mixed","Both","tile","29","m160gnash.wav","None","733.823621704","104","3643446.8998","3635747.06091","3636514.01749","3637280.65469","3638047.16823","3638814.47108","3639563.68045","3640330.66825","3629630.75423","3630397.36732","3631164.13252","3631931.07271","3632697.23533","3633464.26921","3634231.02142","3634980.62065","3640340.39333","Mapping"
"Mixed","Both","tile","29","m150romp.wav","None","736.821683473","104","3643446.8998","3635747.06091","3636514.01749","3637280.65469","3638047.16823","3638814.47108","3639563.68045","3640330.66825","3644213.85978","3630397.36732","3631164.13252","3631931.07271","3632697.23533","3633464.26921","3634231.02142","3634980.62065","3643456.62147","Mapping"
"Mixed","Both","tile","29","m160tile.wav","None","734.966947726","104","3643446.8998","3635747.06091","3636514.01749","3637280.65469","3638047.16823","3638814.47108","3639563.68045","3640330.66825","3644213.85978","3644980.44814","3631164.13252","3631931.07271","3632697.23533","3633464.26921","3634231.02142","3634980.62065","3644223.17118","Mapping"
"Mixed","Both","tile","29","m160reek.wav","space","540.007290343","104","3643446.8998","3635747.06091","3636514.01749","3637280.65469","3638047.16823","3638814.47108","3639563.68045","3640330.66825","3644213.85978","3644980.44814","3645747.08194","3631931.07271","3632697.23533","3633464.26921","3634231.02142","3634980.62065","3644989.77994","Mapping"
"Mixed","Both","tile","29","m150tile.wav","None","729.814251273","104","3643446.8998","3635747.06091","3636514.01749","3637280.65469","3638047.16823","3638814.47108","3639563.68045","3640330.66825","3644213.85978","3644980.44814","3645747.08194","3646513.61464","3632697.23533","3633464.26921","3634231.02142","3634980.62065","3645756.60017","Mapping"
"Mixed","Both","tile","29","m150cling.wav","space","567.144742672","104","3643446.8998","3635747.06091","3636514.01749","3637280.65469","3638047.16823","3638814.47108","3639563.68045","3640330.66825","3644213.85978","3644980.44814","3645747.08194","3646513.61464","3647280.85628","3633464.26921","3634231.02142","3634980.62065","3646522.62645","Mapping"
"Mixed","Both","tile","29","m150park.wav","None","722.478166921","104","3643446.8998","3635747.06091","3636514.01749","3637280.65469","3638047.16823","3638814.47108","3639563.68045","3640330.66825","3644213.85978","3644980.44814","3645747.08194","3646513.61464","3647280.85628","3648047.35651","3634231.02142","3634980.62065","3647291.63501","Mapping"
"Mixed","Both","tile","29","m160jaw.wav","None","721.237451013","104","3643446.8998","3635747.06091","3636514.01749","3637280.65469","3638047.16823","3638814.47108","3639563.68045","3640330.66825","3644213.85978","3644980.44814","3645747.08194","3646513.61464","3647280.85628","3648047.35651","3648796.85588","3634980.62065","3648057.60255","Mapping"
"Mixed","Both","tile","29","m150tile.wav","None","737.213097978","104","3643446.8998","3635747.06091","3636514.01749","3637280.65469","3638047.16823","3638814.47108","3639563.68045","3640330.66825","3644213.85978","3644980.44814","3645747.08194","3646513.61464","3647280.85628","3648047.35651","3648796.85588","3649563.53081","3648806.37196","Mapping"
"Mixed","Both","tile","29","m150done.wav","space","469.647909369","104","3643446.8998","3650330.51088","3636514.01749","3637280.65469","3638047.16823","3638814.47108","3639563.68045","3640330.66825","3644213.85978","3644980.44814","3645747.08194","3646513.61464","3647280.85628","3648047.35651","3648796.85588","3649563.53081","3649572.06432","Mapping"
"Mixed","Both","tile","29","m150cad.wav","None","731.334151409","104","3643446.8998","3650330.51088","3651096.99597","3637280.65469","3638047.16823","3638814.47108","3639563.68045","3640330.66825","3644213.85978","3644980.44814","3645747.08194","3646513.61464","3647280.85628","3648047.35651","3648796.85588","3649563.53081","3650340.06931","Mapping"
"Mixed","Both","tile","29","m150cad.wav","None","729.591336683","104","3643446.8998","3650330.51088","3651096.99597","3651863.83352","3638047.16823","3638814.47108","3639563.68045","3640330.66825","3644213.85978","3644980.44814","3645747.08194","3646513.61464","3647280.85628","3648047.35651","3648796.85588","3649563.53081","3651106.49844","Mapping"
"Mixed","Both","tile","29","m160cling.wav","None","727.551096439","104","3643446.8998","3650330.51088","3651096.99597","3651863.83352","3652630.18752","3638814.47108","3639563.68045","3640330.66825","3644213.85978","3644980.44814","3645747.08194","3646513.61464","3647280.85628","3648047.35651","3648796.85588","3649563.53081","3651873.21788","Mapping"
"Mixed","Both","tile","29","m160romp.wav","None","726.018829329","104","3643446.8998","3650330.51088","3651096.99597","3651863.83352","3652630.18752","3653396.92582","3639563.68045","3640330.66825","3644213.85978","3644980.44814","3645747.08194","3646513.61464","3647280.85628","3648047.35651","3648796.85588","3649563.53081","3652639.3233","Mapping"
"Mixed","Both","tile","29","m160tile.wav","None","723.939014774","104","3643446.8998","3650330.51088","3651096.99597","3651863.83352","3652630.18752","3653396.92582","3654163.94145","3640330.66825","3644213.85978","3644980.44814","3645747.08194","3646513.61464","3647280.85628","3648047.35651","3648796.85588","3649563.53081","3653406.16889","Mapping"
"Mixed","Both","tile","29","m160gnash.wav","space","596.225663728","104","3643446.8998","3650330.51088","3651096.99597","3651863.83352","3652630.18752","3653396.92582","3654163.94145","3654913.70671","3644213.85978","3644980.44814","3645747.08194","3646513.61464","3647280.85628","3648047.35651","3648796.85588","3649563.53081","3654173.42784","Mapping"
"Mixed","Both","cave","23","m150knife.wav","None","734.4636122","104","3658029.93764","3650330.51088","3651096.99597","3651863.83352","3652630.18752","3653396.92582","3654163.94145","3654913.70671","3644213.85978","3644980.44814","3645747.08194","3646513.61464","3647280.85628","3648047.35651","3648796.85588","3649563.53081","3654923.43271","Mapping"
"Mixed","Both","cave","23","m150cad.wav","None","737.561846414","104","3658029.93764","3650330.51088","3651096.99597","3651863.83352","3652630.18752","3653396.92582","3654163.94145","3654913.70671","3658796.83672","3644980.44814","3645747.08194","3646513.61464","3647280.85628","3648047.35651","3648796.85588","3649563.53081","3658038.99057","Mapping"
"Mixed","Both","cave","23","m160romp.wav","None","734.985189018","104","3658029.93764","3650330.51088","3651096.99597","3651863.83352","3652630.18752","3653396.92582","3654163.94145","3654913.70671","3658796.83672","3659563.69838","3645747.08194","3646513.61464","3647280.85628","3648047.35651","3648796.85588","3649563.53081","3658806.10514","Mapping"
"Mixed","Both","cave","23","m150gnash.wav","None","732.785105734","104","3658029.93764","3650330.51088","3651096.99597","3651863.83352","3652630.18752","3653396.92582","3654163.94145","3654913.70671","3658796.83672","3659563.69838","3660330.1779","3646513.61464","3647280.85628","3648047.35651","3648796.85588","3649563.53081","3659572.92043","Mapping"
"Mixed","Both","cave","23","m150bluff.wav","None","731.284683541","104","3658029.93764","3650330.51088","3651096.99597","3651863.83352","3652630.18752","3653396.92582","3654163.94145","3654913.70671","3658796.83672","3659563.69838","3660330.1779","3661096.68401","3647280.85628","3648047.35651","3648796.85588","3649563.53081","3660339.04904","Mapping"
"Mixed","Both","cave","23","m150cave.wav","None","729.038842488","104","3658029.93764","3650330.51088","3651096.99597","3651863.83352","3652630.18752","3653396.92582","3654163.94145","3654913.70671","3658796.83672","3659563.69838","3660330.1779","3661096.68401","3661863.44396","3648047.35651","3648796.85588","3649563.53081","3661105.93914","Mapping"
"Mixed","Both","cave","23","m160dime.wav","space","609.251789254","104","3658029.93764","3650330.51088","3651096.99597","3651863.83352","3652630.18752","3653396.92582","3654163.94145","3654913.70671","3658796.83672","3659563.69838","3660330.1779","3661096.68401","3661863.44396","3662631.36176","3648796.85588","3649563.53081","3661872.29067","Mapping"
"Mixed","Both","cave","23","m160cave.wav","None","721.883934166","104","3658029.93764","3650330.51088","3651096.99597","3651863.83352","3652630.18752","3653396.92582","3654163.94145","3654913.70671","3658796.83672","3659563.69838","3660330.1779","3661096.68401","3661863.44396","3662631.36176","3663397.26096","3649563.53081","3662641.33015","Mapping"
"Mixed","Both","cave","23","m150gnash.wav","space","666.526301619","104","3658029.93764","3650330.51088","3651096.99597","3651863.83352","3652630.18752","3653396.92582","3654163.94145","3654913.70671","3658796.83672","3659563.69838","3660330.1779","3661096.68401","3661863.44396","3662631.36176","3663397.26096","3664146.62182","3663406.98171","Mapping"
"Mixed","Both","cave","23","m160ball.wav","None","735.102366016","104","3658029.93764","3664913.58768","3651096.99597","3651863.83352","3652630.18752","3653396.92582","3654163.94145","3654913.70671","3658796.83672","3659563.69838","3660330.1779","3661096.68401","3661863.44396","3662631.36176","3663397.26096","3664146.62182","3664155.64816","Mapping"
"Mixed","Both","cave","23","m160dime.wav","None","732.827771775","104","3658029.93764","3664913.58768","3665680.32598","3651863.83352","3652630.18752","3653396.92582","3654163.94145","3654913.70671","3658796.83672","3659563.69838","3660330.1779","3661096.68401","3661863.44396","3662631.36176","3663397.26096","3664146.62182","3664922.67276","Mapping"
"Mixed","Both","cave","23","m160cave.wav","None","730.459188547","104","3658029.93764","3664913.58768","3665680.32598","3666446.76067","3652630.18752","3653396.92582","3654163.94145","3654913.70671","3658796.83672","3659563.69838","3660330.1779","3661096.68401","3661863.44396","3662631.36176","3663397.26096","3664146.62182","3665689.82165","Mapping"
"Mixed","Both","cave","23","m160ball.wav","space","569.409443357","104","3658029.93764","3664913.58768","3665680.32598","3666446.76067","3667213.51165","3653396.92582","3654163.94145","3654913.70671","3658796.83672","3659563.69838","3660330.1779","3661096.68401","3661863.44396","3662631.36176","3663397.26096","3664146.62182","3666456.04332","Mapping"
"Mixed","Both","cave","23","m160depth.wav","None","725.624323095","104","3658029.93764","3664913.58768","3665680.32598","3666446.76067","3667213.51165","3667980.85686","3654163.94145","3654913.70671","3658796.83672","3659563.69838","3660330.1779","3661096.68401","3661863.44396","3662631.36176","3663397.26096","3664146.62182","3667222.83016","Mapping"
