"Condition","Talker","Target","Trial","current_stimulus","response_response","response_time_response","subject_nr","time_Audio1","time_Audio10","time_Audio11","time_Audio12","time_Audio13","time_Audio14","time_Audio15","time_Audio16","time_Audio2","time_Audio3","time_Audio4","time_Audio5","time_Audio6","time_Audio7","time_Audio8","time_Audio9","time_response","title"
"Blocked","m150","tile","16","m150gnash.wav","NA","NA","121","345903.694106","NA","NA","NA","NA","NA","NA","NA","NA","NA","NA","NA","NA","NA","NA","NA","NA","Mapping"
"Blocked","m150","tile","16","m150gnash.wav","None","722.565972363","121","345903.694106","NA","NA","NA","NA","NA","NA","NA","346670.51403","NA","NA","NA","NA","NA","NA","NA","345917.771114","Mapping"
"Blocked","m150","tile","16","m150tile.wav","None","726.242980571","121","345903.694106","NA","NA","NA","NA","NA","NA","NA","346670.51403","347436.748378","NA","NA","NA","NA","NA","NA","346680.321034","Mapping"
"Blocked","m150","tile","16","m150jaw.wav","space","449.150899542","121","345903.694106","NA","NA","NA","NA","NA","NA","NA","346670.51403","347436.748378","348203.347552","NA","NA","NA","NA","NA","347446.304024","Mapping"
"Blocked","m150","tile","16","m150park.wav","None","733.387376997","121","345903.694106","NA","NA","NA","NA","NA","NA","NA","346670.51403","347436.748378","348203.347552","348970.209524","NA","NA","NA","NA","348212.918347","Mapping"
"Blocked","m150","tile","16","m150dime.wav","None","736.453457037","121","345903.694106","NA","NA","NA","NA","NA","NA","NA","346670.51403","347436.748378","348203.347552","348970.209524","349753.603347","NA","NA","NA","348979.62666","Mapping"
"Blocked","m150","tile","16","m150reek.wav","None","723.396104993","121","345903.694106","NA","NA","NA","NA","NA","NA","NA","346670.51403","347436.748378","348203.347552","348970.209524","349753.603347","350520.015471","NA","NA","349762.592277","Mapping"
"Blocked","m150","tile","16","m150dime.wav","None","726.250400767","121","345903.694106","NA","NA","NA","NA","NA","NA","NA","346670.51403","347436.748378","348203.347552","348970.209524","349753.603347","350520.015471","351286.747281","NA","350529.818765","Mapping"
"Blocked","m150","tile","16","m150tile.wav","None","726.186401735","121","345903.694106","NA","NA","NA","NA","NA","NA","NA","346670.51403","347436.748378","348203.347552","348970.209524","349753.603347","350520.015471","351286.747281","352053.607707","351296.298598","Mapping"
"Blocked","m150","tile","16","m150dime.wav","space","543.969357153","121","345903.694106","352820.15463","NA","NA","NA","NA","NA","NA","346670.51403","347436.748378","348203.347552","348970.209524","349753.603347","350520.015471","351286.747281","352053.607707","352063.417494","Mapping"
"Blocked","m150","tile","16","m150tile.wav","None","725.52105895","121","345903.694106","352820.15463","353587.162842","NA","NA","NA","NA","NA","346670.51403","347436.748378","348203.347552","348970.209524","349753.603347","350520.015471","351286.747281","352053.607707","352829.818796","Mapping"
"Blocked","m150","tile","16","m150jolt.wav","space","539.023807331","121","345903.694106","352820.15463","353587.162842","354353.214159","NA","NA","NA","NA","346670.51403","347436.748378","348203.347552","348970.209524","349753.603347","350520.015471","351286.747281","352053.607707","353596.358299","Mapping"
"Blocked","m150","tile","16","m150bluff.wav","None","730.644074734","121","345903.694106","352820.15463","353587.162842","354353.214159","355120.363045","NA","NA","NA","346670.51403","347436.748378","348203.347552","348970.209524","349753.603347","350520.015471","351286.747281","352053.607707","354361.884948","Mapping"
"Blocked","m150","tile","16","m150tile.wav","None","733.510428283","121","345903.694106","352820.15463","353587.162842","354353.214159","355120.363045","355886.764656","NA","NA","346670.51403","347436.748378","348203.347552","348970.209524","349753.603347","350520.015471","351286.747281","352053.607707","355129.046201","Mapping"
"Blocked","m150","tile","16","m150gnash.wav","space","479.310529248","121","345903.694106","352820.15463","353587.162842","354353.214159","355120.363045","355886.764656","356653.690937","NA","346670.51403","347436.748378","348203.347552","348970.209524","349753.603347","350520.015471","351286.747281","352053.607707","355896.027514","Mapping"
"Blocked","m150","tile","16","m150romp.wav","None","732.506230648","121","345903.694106","352820.15463","353587.162842","354353.214159","355120.363045","355886.764656","356653.690937","357420.755108","346670.51403","347436.748378","348203.347552","348970.209524","349753.603347","350520.015471","351286.747281","352053.607707","356663.113019","Mapping"
"Blocked","m150","cave","8","m150greet.wav","None","735.432564048","121","360603.614308","352820.15463","353587.162842","354353.214159","355120.363045","355886.764656","356653.690937","357420.755108","346670.51403","347436.748378","348203.347552","348970.209524","349753.603347","350520.015471","351286.747281","352053.607707","357430.113192","Mapping"
"Blocked","m150","cave","8","m150bluff.wav","None","727.174522297","121","360603.614308","352820.15463","353587.162842","354353.214159","355120.363045","355886.764656","356653.690937","357420.755108","361370.073426","347436.748378","348203.347552","348970.209524","349753.603347","350520.015471","351286.747281","352053.607707","360613.098534","Mapping"
"Blocked","m150","cave","8","m150cave.wav","None","727.734127548","121","360603.614308","352820.15463","353587.162842","354353.214159","355120.363045","355886.764656","356653.690937","357420.755108","361370.073426","362137.059686","348203.347552","348970.209524","349753.603347","350520.015471","351286.747281","352053.607707","361379.331646","Mapping"
"Blocked","m150","cave","8","m150greet.wav","space","461.142837536","121","360603.614308","352820.15463","353587.162842","354353.214159","355120.363045","355886.764656","356653.690937","357420.755108","361370.073426","362137.059686","362904.352956","348970.209524","349753.603347","350520.015471","351286.747281","352053.607707","362146.120034","Mapping"
"Blocked","m150","cave","8","m150ball.wav","None","729.908858542","121","360603.614308","352820.15463","353587.162842","354353.214159","355120.363045","355886.764656","356653.690937","357420.755108","361370.073426","362137.059686","362904.352956","363670.120451","349753.603347","350520.015471","351286.747281","352053.607707","362913.667755","Mapping"
"Blocked","m150","cave","8","m150cave.wav","None","734.318300383","121","360603.614308","352820.15463","353587.162842","354353.214159","355120.363045","355886.764656","356653.690937","357420.755108","361370.073426","362137.059686","362904.352956","363670.120451","364436.481561","350520.015471","351286.747281","352053.607707","363679.637759","Mapping"
"Blocked","m150","cave","8","m150depth.wav","space","497.728652088","121","360603.614308","352820.15463","353587.162842","354353.214159","355120.363045","355886.764656","356653.690937","357420.755108","361370.073426","362137.059686","362904.352956","363670.120451","364436.481561","365220.069855","351286.747281","352053.607707","364445.515321","Mapping"
"Blocked","m150","cave","8","m150cave.wav","None","721.540750877","121","360603.614308","352820.15463","353587.162842","354353.214159","355120.363045","355886.764656","356653.690937","357420.755108","361370.073426","362137.059686","362904.352956","363670.120451","364436.481561","365220.069855","365986.637493","352053.607707","365229.122783","Mapping"
"Blocked","m150","cave","8","m150cling.wav","space","515.351269743","121","360603.614308","352820.15463","353587.162842","354353.214159","355120.363045","355886.764656","356653.690937","357420.755108","361370.073426","362137.059686","362904.352956","363670.120451","364436.481561","365220.069855","365986.637493","366753.409804","365995.822439","Mapping"
"Blocked","m150","cave","8","m150romp.wav","None","723.736814922","121","360603.614308","367520.499947","353587.162842","354353.214159","355120.363045","355886.764656","356653.690937","357420.755108","361370.073426","362137.059686","362904.352956","363670.120451","364436.481561","365220.069855","365986.637493","366753.409804","366762.666479","Mapping"
"Blocked","m150","cave","8","m150romp.wav","None","721.939585521","121","360603.614308","367520.499947","368286.626084","354353.214159","355120.363045","355886.764656","356653.690937","357420.755108","361370.073426","362137.059686","362904.352956","363670.120451","364436.481561","365220.069855","365986.637493","366753.409804","367530.827291","Mapping"
"Blocked","m150","cave","8","m150greet.wav","None","723.594903946","121","360603.614308","367520.499947","368286.626084","369053.52052","355120.363045","355886.764656","356653.690937","357420.755108","361370.073426","362137.059686","362904.352956","363670.120451","364436.481561","365220.069855","365986.637493","366753.409804","368295.708075","Mapping"
"Blocked","m150","cave","8","m150priest.wav","None","723.121867515","121","360603.614308","367520.499947","368286.626084","369053.52052","369820.114438","355886.764656","356653.690937","357420.755108","361370.073426","362137.059686","362904.352956","363670.120451","364436.481561","365220.069855","365986.637493","366753.409804","369062.462145","Mapping"
"Blocked","m150","cave","8","m150cave.wav","None","725.806735805","121","360603.614308","367520.499947","368286.626084","369053.52052","369820.114438","370586.437519","356653.690937","357420.755108","361370.073426","362137.059686","362904.352956","363670.120451","364436.481561","365220.069855","365986.637493","366753.409804","369829.590626","Mapping"
"Blocked","m150","cave","8","m150greet.wav","space","467.66393882","121","360603.614308","367520.499947","368286.626084","369053.52052","369820.114438","370586.437519","371353.465827","357420.755108","361370.073426","362137.059686","362904.352956","363670.120451","364436.481561","365220.069855","365986.637493","366753.409804","370595.453038","Mapping"
"Blocked","m150","cave","8","m150jolt.wav","None","725.210029748","121","360603.614308","367520.499947","368286.626084","369053.52052","369820.114438","370586.437519","371353.465827","372119.888153","361370.073426","362137.059686","362904.352956","363670.120451","364436.481561","365220.069855","365986.637493","366753.409804","371362.784954","Mapping"
"Blocked","m150","ball","2","m150romp.wav","None","725.573618547","121","375253.861044","367520.499947","368286.626084","369053.52052","369820.114438","370586.437519","371353.465827","372119.888153","361370.073426","362137.059686","362904.352956","363670.120451","364436.481561","365220.069855","365986.637493","366753.409804","372128.858223","Mapping"
"Blocked","m150","ball","2","m150depth.wav","None","722.369337571","121","375253.861044","367520.499947","368286.626084","369053.52052","369820.114438","370586.437519","371353.465827","372119.888153","376020.259564","362137.059686","362904.352956","363670.120451","364436.481561","365220.069855","365986.637493","366753.409804","375263.588591","Mapping"
"Blocked","m150","ball","2","m150jaw.wav","None","721.943913959","121","375253.861044","367520.499947","368286.626084","369053.52052","369820.114438","370586.437519","371353.465827","372119.888153","376020.259564","376787.011161","362904.352956","363670.120451","364436.481561","365220.069855","365986.637493","366753.409804","376030.639468","Mapping"
"Blocked","m150","ball","2","m150reek.wav","None","723.015820724","121","375253.861044","367520.499947","368286.626084","369053.52052","369820.114438","370586.437519","371353.465827","372119.888153","376020.259564","376787.011161","377553.748845","363670.120451","364436.481561","365220.069855","365986.637493","366753.409804","376796.055123","Mapping"
"Blocked","m150","ball","2","m150ball.wav","None","721.591764595","121","375253.861044","367520.499947","368286.626084","369053.52052","369820.114438","370586.437519","371353.465827","372119.888153","376020.259564","376787.011161","377553.748845","378320.292986","364436.481561","365220.069855","365986.637493","366753.409804","377563.940462","Mapping"
"Blocked","m150","ball","2","m150romp.wav","space","396.808642487","121","375253.861044","367520.499947","368286.626084","369053.52052","369820.114438","370586.437519","371353.465827","372119.888153","376020.259564","376787.011161","377553.748845","378320.292986","379086.486832","365220.069855","365986.637493","366753.409804","378330.188723","Mapping"
"Blocked","m150","ball","2","m150greet.wav","None","722.499190713","121","375253.861044","367520.499947","368286.626084","369053.52052","369820.114438","370586.437519","371353.465827","372119.888153","376020.259564","376787.011161","377553.748845","378320.292986","379086.486832","379853.077659","365986.637493","366753.409804","379095.74598","Mapping"
"Blocked","m150","ball","2","m150knife.wav","None","722.583595256","121","375253.861044","367520.499947","368286.626084","369053.52052","369820.114438","370586.437519","371353.465827","372119.888153","376020.259564","376787.011161","377553.748845","378320.292986","379086.486832","379853.077659","380619.544197","366753.409804","379862.194277","Mapping"
"Blocked","m150","ball","2","m150ball.wav","None","725.97399907","121","375253.861044","367520.499947","368286.626084","369053.52052","369820.114438","370586.437519","371353.465827","372119.888153","376020.259564","376787.011161","377553.748845","378320.292986","379086.486832","379853.077659","380619.544197","381386.756154","380628.724505","Mapping"
"Blocked","m150","ball","2","m150park.wav","space","434.737509582","121","375253.861044","382153.3173","368286.626084","369053.52052","369820.114438","370586.437519","371353.465827","372119.888153","376020.259564","376787.011161","377553.748845","378320.292986","379086.486832","379853.077659","380619.544197","381386.756154","381396.198642","Mapping"
"Blocked","m150","ball","2","m150depth.wav","None","725.661733188","121","375253.861044","382153.3173","382920.045708","369053.52052","369820.114438","370586.437519","371353.465827","372119.888153","376020.259564","376787.011161","377553.748845","378320.292986","379086.486832","379853.077659","380619.544197","381386.756154","382162.734126","Mapping"
"Blocked","m150","ball","2","m150ball.wav","None","725.633289199","121","375253.861044","382153.3173","382920.045708","383686.303245","369820.114438","370586.437519","371353.465827","372119.888153","376020.259564","376787.011161","377553.748845","378320.292986","379086.486832","379853.077659","380619.544197","381386.756154","382929.393589","Mapping"
"Blocked","m150","ball","2","m150cling.wav","space","415.146380023","121","375253.861044","382153.3173","382920.045708","383686.303245","384453.264462","370586.437519","371353.465827","372119.888153","376020.259564","376787.011161","377553.748845","378320.292986","379086.486832","379853.077659","380619.544197","381386.756154","383695.775413","Mapping"
"Blocked","m150","ball","2","m150park.wav","None","724.941357388","121","375253.861044","382153.3173","382920.045708","383686.303245","384453.264462","385219.786651","371353.465827","372119.888153","376020.259564","376787.011161","377553.748845","378320.292986","379086.486832","379853.077659","380619.544197","381386.756154","384462.826909","Mapping"
"Blocked","m150","ball","2","m150ball.wav","None","725.146030716","121","375253.861044","382153.3173","382920.045708","383686.303245","384453.264462","385219.786651","385986.711386","372119.888153","376020.259564","376787.011161","377553.748845","378320.292986","379086.486832","379853.077659","380619.544197","381386.756154","385229.093103","Mapping"
"Blocked","m150","ball","2","m150jolt.wav","space","570.961806807","121","375253.861044","382153.3173","382920.045708","383686.303245","384453.264462","385219.786651","385986.711386","386752.872151","376020.259564","376787.011161","377553.748845","378320.292986","379086.486832","379853.077659","380619.544197","381386.756154","385995.969606","Mapping"
"Blocked","m150","cave","9","m150romp.wav","None","725.668844185","121","389887.003648","382153.3173","382920.045708","383686.303245","384453.264462","385219.786651","385986.711386","386752.872151","376020.259564","376787.011161","377553.748845","378320.292986","379086.486832","379853.077659","380619.544197","381386.756154","386761.682687","Mapping"
"Blocked","m150","cave","9","m150depth.wav","None","721.871258051","121","389887.003648","382153.3173","382920.045708","383686.303245","384453.264462","385219.786651","385986.711386","386752.872151","390653.418863","376787.011161","377553.748845","378320.292986","379086.486832","379853.077659","380619.544197","381386.756154","389896.83384","Mapping"
"Blocked","m150","cave","9","m150gnash.wav","None","721.67122236","121","389887.003648","382153.3173","382920.045708","383686.303245","384453.264462","385219.786651","385986.711386","386752.872151","390653.418863","391420.467576","377553.748845","378320.292986","379086.486832","379853.077659","380619.544197","381386.756154","390663.635214","Mapping"
"Blocked","m150","cave","9","m150cave.wav","None","721.622991201","121","389887.003648","382153.3173","382920.045708","383686.303245","384453.264462","385219.786651","385986.711386","386752.872151","390653.418863","391420.467576","392186.338954","378320.292986","379086.486832","379853.077659","380619.544197","381386.756154","391430.276436","Mapping"
"Blocked","m150","cave","9","m150done.wav","space","603.494966519","121","389887.003648","382153.3173","382920.045708","383686.303245","384453.264462","385219.786651","385986.711386","386752.872151","390653.418863","391420.467576","392186.338954","392953.110338","379086.486832","379853.077659","380619.544197","381386.756154","392195.283672","Mapping"
"Blocked","m150","cave","9","m150ball.wav","None","725.92607711","121","389887.003648","382153.3173","382920.045708","383686.303245","384453.264462","385219.786651","385986.711386","386752.872151","390653.418863","391420.467576","392186.338954","392953.110338","393719.428164","379853.077659","380619.544197","381386.756154","392962.384945","Mapping"
"Blocked","m150","cave","9","m150cave.wav","None","726.111272408","121","389887.003648","382153.3173","382920.045708","383686.303245","384453.264462","385219.786651","385986.711386","386752.872151","390653.418863","391420.467576","392186.338954","392953.110338","393719.428164","394486.555716","380619.544197","381386.756154","393728.672471","Mapping"
"Blocked","m150","cave","9","m150bluff.wav","space","414.763931592","121","389887.003648","382153.3173","382920.045708","383686.303245","384453.264462","385219.786651","385986.711386","386752.872151","390653.418863","391420.467576","392186.338954","392953.110338","393719.428164","394486.555716","395252.84417","381386.756154","394495.974089","Mapping"
"Blocked","m150","cave","9","m150bluff.wav","None","725.603608415","121","389887.003648","382153.3173","382920.045708","383686.303245","384453.264462","385219.786651","385986.711386","386752.872151","390653.418863","391420.467576","392186.338954","392953.110338","393719.428164","394486.555716","395252.84417","396019.613699","395261.663054","Mapping"
"Blocked","m150","cave","9","m150greet.wav","None","725.161798531","121","389887.003648","396786.453411","382920.045708","383686.303245","384453.264462","385219.786651","385986.711386","386752.872151","390653.418863","391420.467576","392186.338954","392953.110338","393719.428164","394486.555716","395252.84417","396019.613699","396028.60603","Mapping"
"Blocked","m150","cave","9","m150gnash.wav","None","725.0458583","121","389887.003648","396786.453411","397552.785458","383686.303245","384453.264462","385219.786651","385986.711386","386752.872151","390653.418863","391420.467576","392186.338954","392953.110338","393719.428164","394486.555716","395252.84417","396019.613699","396795.600019","Mapping"
"Blocked","m150","cave","9","m150cave.wav","None","725.065954612","121","389887.003648","396786.453411","397552.785458","398319.266837","384453.264462","385219.786651","385986.711386","386752.872151","390653.418863","391420.467576","392186.338954","392953.110338","393719.428164","394486.555716","395252.84417","396019.613699","397561.941032","Mapping"
"Blocked","m150","cave","9","m150jolt.wav","space","430.564895214","121","389887.003648","396786.453411","397552.785458","398319.266837","399086.285869","385219.786651","385986.711386","386752.872151","390653.418863","391420.467576","392186.338954","392953.110338","393719.428164","394486.555716","395252.84417","396019.613699","398328.149719","Mapping"
"Blocked","m150","cave","9","m150cave.wav","None","724.643004301","121","389887.003648","396786.453411","397552.785458","398319.266837","399086.285869","399853.441247","385986.711386","386752.872151","390653.418863","391420.467576","392186.338954","392953.110338","393719.428164","394486.555716","395252.84417","396019.613699","399095.191631","Mapping"
"Blocked","m150","cave","9","m150jaw.wav","space","551.287509443","121","389887.003648","396786.453411","397552.785458","398319.266837","399086.285869","399853.441247","400620.017852","386752.872151","390653.418863","391420.467576","392186.338954","392953.110338","393719.428164","394486.555716","395252.84417","396019.613699","399863.377177","Mapping"
"Blocked","m150","cave","9","m150cad.wav","None","722.934507939","121","389887.003648","396786.453411","397552.785458","398319.266837","399086.285869","399853.441247","400620.017852","401386.445434","390653.418863","391420.467576","392186.338954","392953.110338","393719.428164","394486.555716","395252.84417","396019.613699","400629.824547","Mapping"
"Blocked","m150","ball","4","m150gnash.wav","None","726.920071989","121","404519.850372","396786.453411","397552.785458","398319.266837","399086.285869","399853.441247","400620.017852","401386.445434","390653.418863","391420.467576","392186.338954","392953.110338","393719.428164","394486.555716","395252.84417","396019.613699","401395.88112","Mapping"
"Blocked","m150","ball","4","m150ball.wav","None","723.064979422","121","404519.850372","396786.453411","397552.785458","398319.266837","399086.285869","399853.441247","400620.017852","401386.445434","405286.220139","391420.467576","392186.338954","392953.110338","393719.428164","394486.555716","395252.84417","396019.613699","404529.633261","Mapping"
"Blocked","m150","ball","4","m150bluff.wav","space","663.283683069","121","404519.850372","396786.453411","397552.785458","398319.266837","399086.285869","399853.441247","400620.017852","401386.445434","405286.220139","406053.100661","392186.338954","392953.110338","393719.428164","394486.555716","395252.84417","396019.613699","405295.325318","Mapping"
"Blocked","m150","ball","4","m150cling.wav","None","723.546672787","121","404519.850372","396786.453411","397552.785458","398319.266837","399086.285869","399853.441247","400620.017852","401386.445434","405286.220139","406053.100661","406819.4695","392953.110338","393719.428164","394486.555716","395252.84417","396019.613699","406062.007041","Mapping"
"Blocked","m150","ball","4","m150ball.wav","None","723.775770806","121","404519.850372","396786.453411","397552.785458","398319.266837","399086.285869","399853.441247","400620.017852","401386.445434","405286.220139","406053.100661","406819.4695","407586.698153","393719.428164","394486.555716","395252.84417","396019.613699","406828.337852","Mapping"
"Blocked","m150","ball","4","m150cad.wav","None","722.248450445","121","404519.850372","396786.453411","397552.785458","398319.266837","399086.285869","399853.441247","400620.017852","401386.445434","405286.220139","406053.100661","406819.4695","407586.698153","408353.408011","394486.555716","395252.84417","396019.613699","407596.63501","Mapping"
"Blocked","m150","ball","4","m150romp.wav","space","0.034318305552","121","404519.850372","396786.453411","397552.785458","398319.266837","399086.285869","399853.441247","400620.017852","401386.445434","405286.220139","406053.100661","406819.4695","407586.698153","408353.408011","409119.852907","395252.84417","396019.613699","408362.800413","Mapping"
"Blocked","m150","ball","4","m150ball.wav","None","722.923996043","121","404519.850372","396786.453411","397552.785458","398319.266837","399086.285869","399853.441247","400620.017852","401386.445434","405286.220139","406053.100661","406819.4695","407586.698153","408353.408011","409119.852907","409886.604195","396019.613699","409129.728239","Mapping"
"Blocked","m150","ball","4","m150reek.wav","space","563.464951876","121","404519.850372","396786.453411","397552.785458","398319.266837","399086.285869","399853.441247","400620.017852","401386.445434","405286.220139","406053.100661","406819.4695","407586.698153","408353.408011","409119.852907","409886.604195","410653.072897","409891.060631","Mapping"
"Blocked","m150","ball","4","m150park.wav","None","721.929073625","121","404519.850372","411419.936106","397552.785458","398319.266837","399086.285869","399853.441247","400620.017852","401386.445434","405286.220139","406053.100661","406819.4695","407586.698153","408353.408011","409119.852907","409886.604195","410653.072897","410663.669223","Mapping"
"Blocked","m150","ball","4","m150romp.wav","None","723.027878499","121","404519.850372","411419.936106","412186.130262","398319.266837","399086.285869","399853.441247","400620.017852","401386.445434","405286.220139","406053.100661","406819.4695","407586.698153","408353.408011","409119.852907","409886.604195","410653.072897","411429.435173","Mapping"
"Blocked","m150","ball","4","m150ball.wav","None","723.02262258","121","404519.850372","411419.936106","412186.130262","412953.042629","399086.285869","399853.441247","400620.017852","401386.445434","405286.220139","406053.100661","406819.4695","407586.698153","408353.408011","409119.852907","409886.604195","410653.072897","412196.436273","Mapping"
"Blocked","m150","ball","4","m150cad.wav","space","483.62690967","121","404519.850372","411419.936106","412186.130262","412953.042629","413719.716314","399853.441247","400620.017852","401386.445434","405286.220139","406053.100661","406819.4695","407586.698153","408353.408011","409119.852907","409886.604195","410653.072897","412962.84345","Mapping"
"Blocked","m150","ball","4","m150dime.wav","None","728.627331671","121","404519.850372","411419.936106","412186.130262","412953.042629","413719.716314","414486.175432","400620.017852","401386.445434","405286.220139","406053.100661","406819.4695","407586.698153","408353.408011","409119.852907","409886.604195","410653.072897","413724.411742","Mapping"
"Blocked","m150","ball","4","m150lash.wav","None","724.364129244","121","404519.850372","411419.936106","412186.130262","412953.042629","413719.716314","414486.175432","415252.828093","401386.445434","405286.220139","406053.100661","406819.4695","407586.698153","408353.408011","409119.852907","409886.604195","410653.072897","414495.762304","Mapping"
"Blocked","m150","ball","4","m150tile.wav","None","728.733687603","121","404519.850372","411419.936106","412186.130262","412953.042629","413719.716314","414486.175432","415252.828093","416019.166015","405286.220139","406053.100661","406819.4695","407586.698153","408353.408011","409119.852907","409886.604195","410653.072897","415262.033754","Mapping"
"Blocked","m150","done","24","m150priest.wav","None","729.299476312","121","419153.073052","411419.936106","412186.130262","412953.042629","413719.716314","414486.175432","415252.828093","416019.166015","405286.220139","406053.100661","406819.4695","407586.698153","408353.408011","409119.852907","409886.604195","410653.072897","416028.284488","Mapping"
"Blocked","m150","done","24","m150cad.wav","None","722.608947544","121","419153.073052","411419.936106","412186.130262","412953.042629","413719.716314","414486.175432","415252.828093","416019.166015","419919.764978","406053.100661","406819.4695","407586.698153","408353.408011","409119.852907","409886.604195","410653.072897","419162.771845","Mapping"
"Blocked","m150","done","24","m150cling.wav","None","723.086312413","121","419153.073052","411419.936106","412186.130262","412953.042629","413719.716314","414486.175432","415252.828093","416019.166015","419919.764978","420685.954187","406819.4695","407586.698153","408353.408011","409119.852907","409886.604195","410653.072897","419929.195717","Mapping"
"Blocked","m150","done","24","m150done.wav","None","723.873779003","121","419153.073052","411419.936106","412186.130262","412953.042629","413719.716314","414486.175432","415252.828093","416019.166015","419919.764978","420685.954187","421453.033199","407586.698153","408353.408011","409119.852907","409886.604195","410653.072897","420695.100486","Mapping"
"Blocked","m150","done","24","m150gnash.wav","space","415.258610272","121","419153.073052","411419.936106","412186.130262","412953.042629","413719.716314","414486.175432","415252.828093","416019.166015","419919.764978","420685.954187","421453.033199","422219.528491","408353.408011","409119.852907","409886.604195","410653.072897","421463.11104","Mapping"
"Blocked","m150","done","24","m150done.wav","None","722.738182347","121","419153.073052","411419.936106","412186.130262","412953.042629","413719.716314","414486.175432","415252.828093","416019.166015","419919.764978","420685.954187","421453.033199","422219.528491","422986.404066","409119.852907","409886.604195","410653.072897","422229.435358","Mapping"
"Blocked","m150","done","24","m150depth.wav","space","610.019777901","121","419153.073052","411419.936106","412186.130262","412953.042629","413719.716314","414486.175432","415252.828093","416019.166015","419919.764978","420685.954187","421453.033199","422219.528491","422986.404066","423753.169576","409886.604195","410653.072897","422996.293929","Mapping"
"Blocked","m150","done","24","m150cad.wav","None","722.317396314","121","419153.073052","411419.936106","412186.130262","412953.042629","413719.716314","414486.175432","415252.828093","416019.166015","419919.764978","420685.954187","421453.033199","422219.528491","422986.404066","423753.169576","424519.421238","410653.072897","423763.526292","Mapping"
"Blocked","m150","done","24","m150greet.wav","None","723.107954662","121","419153.073052","411419.936106","412186.130262","412953.042629","413719.716314","414486.175432","415252.828093","416019.166015","419919.764978","420685.954187","421453.033199","422219.528491","422986.404066","423753.169576","424519.421238","425286.835705","424529.545455","Mapping"
"Blocked","m150","done","24","m150done.wav","None","722.991705115","121","419153.073052","426052.678948","412186.130262","412953.042629","413719.716314","414486.175432","415252.828093","416019.166015","419919.764978","420685.954187","421453.033199","422219.528491","422986.404066","423753.169576","424519.421238","425286.835705","425296.737934","Mapping"
"Blocked","m150","done","24","m150cad.wav","space","440.408381924","121","419153.073052","426052.678948","426818.85177","412953.042629","413719.716314","414486.175432","415252.828093","416019.166015","419919.764978","420685.954187","421453.033199","422219.528491","422986.404066","423753.169576","424519.421238","425286.835705","426061.897284","Mapping"
"Blocked","m150","done","24","m150lash.wav","None","725.125625206","121","419153.073052","426052.678948","426818.85177","427586.436282","413719.716314","414486.175432","415252.828093","416019.166015","419919.764978","420685.954187","421453.033199","422219.528491","422986.404066","423753.169576","424519.421238","425286.835705","426827.725378","Mapping"
"Blocked","m150","done","24","m150ball.wav","None","723.318193108","121","419153.073052","426052.678948","426818.85177","427586.436282","428352.692273","414486.175432","415252.828093","416019.166015","419919.764978","420685.954187","421453.033199","422219.528491","422986.404066","423753.169576","424519.421238","425286.835705","427596.315633","Mapping"
"Blocked","m150","done","24","m150knife.wav","None","724.743795116","121","419153.073052","426052.678948","426818.85177","427586.436282","428352.692273","429119.071624","415252.828093","416019.166015","419919.764978","420685.954187","421453.033199","422219.528491","422986.404066","423753.169576","424519.421238","425286.835705","428361.958532","Mapping"
"Blocked","m150","done","24","m150done.wav","None","725.540536921","121","419153.073052","426052.678948","426818.85177","427586.436282","428352.692273","429119.071624","429886.062831","416019.166015","419919.764978","420685.954187","421453.033199","422219.528491","422986.404066","423753.169576","424519.421238","425286.835705","429128.130118","Mapping"
"Blocked","m150","done","24","m150cave.wav","space","502.921541221","121","419153.073052","426052.678948","426818.85177","427586.436282","428352.692273","429119.071624","429886.062831","430652.655821","419919.764978","420685.954187","421453.033199","422219.528491","422986.404066","423753.169576","424519.421238","425286.835705","429895.314868","Mapping"
"Blocked","m150","done","21","m150depth.wav","None","724.538812647","121","433786.391576","426052.678948","426818.85177","427586.436282","428352.692273","429119.071624","429886.062831","430652.655821","419919.764978","420685.954187","421453.033199","422219.528491","422986.404066","423753.169576","424519.421238","425286.835705","430662.127681","Mapping"
"Blocked","m150","done","21","m150lash.wav","None","722.91193821","121","433786.391576","426052.678948","426818.85177","427586.436282","428352.692273","429119.071624","429886.062831","430652.655821","434552.208539","420685.954187","421453.033199","422219.528491","422986.404066","423753.169576","424519.421238","425286.835705","433796.354713","Mapping"
"Blocked","m150","done","21","m150done.wav","None","724.837784015","121","433786.391576","426052.678948","426818.85177","427586.436282","428352.692273","429119.071624","429886.062831","430652.655821","434552.208539","435319.102974","421453.033199","422219.528491","422986.404066","423753.169576","424519.421238","425286.835705","434561.310008","Mapping"
"Blocked","m150","done","21","m150cad.wav","space","421.654805192","121","433786.391576","426052.678948","426818.85177","427586.436282","428352.692273","429119.071624","429886.062831","430652.655821","434552.208539","435319.102974","436086.197136","422219.528491","422986.404066","423753.169576","424519.421238","425286.835705","435328.483318","Mapping"
"Blocked","m150","done","21","m150dime.wav","None","723.259140796","121","433786.391576","426052.678948","426818.85177","427586.436282","428352.692273","429119.071624","429886.062831","430652.655821","434552.208539","435319.102974","436086.197136","436852.53073","422986.404066","423753.169576","424519.421238","425286.835705","436096.022691","Mapping"
"Blocked","m150","done","21","m150done.wav","None","724.809649226","121","433786.391576","426052.678948","426818.85177","427586.436282","428352.692273","429119.071624","429886.062831","430652.655821","434552.208539","435319.102974","436086.197136","436852.53073","437618.906371","423753.169576","424519.421238","425286.835705","436861.91973","Mapping"
"Blocked","m150","done","21","m150lash.wav","space","402.187963657","121","433786.391576","426052.678948","426818.85177","427586.436282","428352.692273","429119.071624","429886.062831","430652.655821","434552.208539","435319.102974","436086.197136","436852.53073","437618.906371","438385.90407","424519.421238","425286.835705","437627.920961","Mapping"
"Blocked","m150","done","21","m150done.wav","None","724.515006179","121","433786.391576","426052.678948","426818.85177","427586.436282","428352.692273","429119.071624","429886.062831","430652.655821","434552.208539","435319.102974","436086.197136","436852.53073","437618.906371","438385.90407","439152.394415","425286.835705","438395.437455","Mapping"
"Blocked","m150","done","21","m150jaw.wav","space","612.388979411","121","433786.391576","426052.678948","426818.85177","427586.436282","428352.692273","429119.071624","429886.062831","430652.655821","434552.208539","435319.102974","436086.197136","436852.53073","437618.906371","438385.90407","439152.394415","439919.016777","439161.718798","Mapping"
"Blocked","m150","done","21","m150ball.wav","None","724.318989785","121","433786.391576","440685.40293","426818.85177","427586.436282","428352.692273","429119.071624","429886.062831","430652.655821","434552.208539","435319.102974","436086.197136","436852.53073","437618.906371","438385.90407","439152.394415","439919.016777","439928.705676","Mapping"
"Blocked","m150","done","21","m150ball.wav","None","725.32256908","121","433786.391576","440685.40293","441452.545632","427586.436282","428352.692273","429119.071624","429886.062831","430652.655821","434552.208539","435319.102974","436086.197136","436852.53073","437618.906371","438385.90407","439152.394415","439919.016777","440694.991657","Mapping"
"Blocked","m150","done","21","m150done.wav","None","725.31885904","121","433786.391576","440685.40293","441452.545632","442218.89221","428352.692273","429119.071624","429886.062831","430652.655821","434552.208539","435319.102974","436086.197136","436852.53073","437618.906371","438385.90407","439152.394415","439919.016777","441461.959057","Mapping"
"Blocked","m150","done","21","m150cad.wav","space","449.956607423","121","433786.391576","440685.40293","441452.545632","442218.89221","442985.803341","429119.071624","429886.062831","430652.655821","434552.208539","435319.102974","436086.197136","436852.53073","437618.906371","438385.90407","439152.394415","439919.016777","442228.082103","Mapping"
"Blocked","m150","done","21","m150jaw.wav","None","725.835489051","121","433786.391576","440685.40293","441452.545632","442218.89221","442985.803341","443752.067989","429886.062831","430652.655821","434552.208539","435319.102974","436086.197136","436852.53073","437618.906371","438385.90407","439152.394415","439919.016777","442995.013021","Mapping"
"Blocked","m150","done","21","m150bluff.wav","None","727.007259091","121","433786.391576","440685.40293","441452.545632","442218.89221","442985.803341","443752.067989","444518.866889","430652.655821","434552.208539","435319.102974","436086.197136","436852.53073","437618.906371","438385.90407","439152.394415","439919.016777","443760.789792","Mapping"
"Blocked","m150","done","21","m150greet.wav","None","726.349027304","121","433786.391576","440685.40293","441452.545632","442218.89221","442985.803341","443752.067989","444518.866889","445285.296945","434552.208539","435319.102974","436086.197136","436852.53073","437618.906371","438385.90407","439152.394415","439919.016777","444528.445414","Mapping"
"Blocked","m150","tile","13","m150jolt.wav","None","727.428663464","121","448419.297352","440685.40293","441452.545632","442218.89221","442985.803341","443752.067989","444518.866889","445285.296945","434552.208539","435319.102974","436086.197136","436852.53073","437618.906371","438385.90407","439152.394415","439919.016777","445294.337815","Mapping"
"Blocked","m150","tile","13","m150greet.wav","None","728.237772186","121","448419.297352","440685.40293","441452.545632","442218.89221","442985.803341","443752.067989","444518.866889","445285.296945","449185.809957","435319.102974","436086.197136","436852.53073","437618.906371","438385.90407","439152.394415","439919.016777","448423.823353","Mapping"
"Blocked","m150","tile","13","m150cave.wav","None","724.337231077","121","448419.297352","440685.40293","441452.545632","442218.89221","442985.803341","443752.067989","444518.866889","445285.296945","449185.809957","449951.772542","436086.197136","436852.53073","437618.906371","438385.90407","439152.394415","439919.016777","449194.75282","Mapping"
"Blocked","m150","tile","13","m150tile.wav","None","727.620351478","121","448419.297352","440685.40293","441452.545632","442218.89221","442985.803341","443752.067989","444518.866889","445285.296945","449185.809957","449951.772542","450718.84568","436852.53073","437618.906371","438385.90407","439152.394415","439919.016777","449960.521861","Mapping"
"Blocked","m150","tile","13","m150ball.wav","space","469.476936094","121","448419.297352","440685.40293","441452.545632","442218.89221","442985.803341","443752.067989","444518.866889","445285.296945","449185.809957","449951.772542","450718.84568","451485.38271","437618.906371","438385.90407","439152.394415","439919.016777","450728.460996","Mapping"
"Blocked","m150","tile","13","m150park.wav","None","727.045905835","121","448419.297352","440685.40293","441452.545632","442218.89221","442985.803341","443752.067989","444518.866889","445285.296945","449185.809957","449951.772542","450718.84568","451485.38271","452252.274362","438385.90407","439152.394415","439919.016777","451494.55467","Mapping"
"Blocked","m150","tile","13","m150dime.wav","None","726.867821591","121","448419.297352","440685.40293","441452.545632","442218.89221","442985.803341","443752.067989","444518.866889","445285.296945","449185.809957","449951.772542","450718.84568","451485.38271","452252.274362","453018.517368","439152.394415","439919.016777","452261.744367","Mapping"
"Blocked","m150","tile","13","m150tile.wav","None","728.264979611","121","448419.297352","440685.40293","441452.545632","442218.89221","442985.803341","443752.067989","444518.866889","445285.296945","449185.809957","449951.772542","450718.84568","451485.38271","452252.274362","453018.517368","453785.126435","439919.016777","453027.663667","Mapping"
"Blocked","m150","tile","13","m150romp.wav","space","539.680802438","121","448419.297352","440685.40293","441452.545632","442218.89221","442985.803341","443752.067989","444518.866889","445285.296945","449185.809957","449951.772542","450718.84568","451485.38271","452252.274362","453018.517368","453785.126435","454552.628398","453794.152156","Mapping"
"Blocked","m150","tile","13","m150jaw.wav","None","727.156899404","121","448419.297352","455318.744332","441452.545632","442218.89221","442985.803341","443752.067989","444518.866889","445285.296945","449185.809957","449951.772542","450718.84568","451485.38271","452252.274362","453018.517368","453785.126435","454552.628398","454562.207541","Mapping"
"Blocked","m150","tile","13","m150tile.wav","None","728.234680544","121","448419.297352","455318.744332","456085.134195","442218.89221","442985.803341","443752.067989","444518.866889","445285.296945","449185.809957","449951.772542","450718.84568","451485.38271","452252.274362","453018.517368","453785.126435","454552.628398","455328.176308","Mapping"
"Blocked","m150","tile","13","m150ball.wav","space","535.961437272","121","448419.297352","455318.744332","456085.134195","456851.866314","442985.803341","443752.067989","444518.866889","445285.296945","449185.809957","449951.772542","450718.84568","451485.38271","452252.274362","453018.517368","453785.126435","454552.628398","456093.887843","Mapping"
"Blocked","m150","tile","13","m150reek.wav","None","729.645442159","121","448419.297352","455318.744332","456085.134195","456851.866314","457618.662741","443752.067989","444518.866889","445285.296945","449185.809957","449951.772542","450718.84568","451485.38271","452252.274362","453018.517368","453785.126435","454552.628398","456860.738067","Mapping"
"Blocked","m150","tile","13","m150bluff.wav","None","729.330393719","121","448419.297352","455318.744332","456085.134195","456851.866314","457618.662741","458385.618084","444518.866889","445285.296945","449185.809957","449951.772542","450718.84568","451485.38271","452252.274362","453018.517368","453785.126435","454552.628398","457628.147895","Mapping"
"Blocked","m150","tile","13","m150tile.wav","None","730.074575928","121","448419.297352","455318.744332","456085.134195","456851.866314","457618.662741","458385.618084","459152.135327","445285.296945","449185.809957","449951.772542","450718.84568","451485.38271","452252.274362","453018.517368","453785.126435","454552.628398","458394.669776","Mapping"
"Blocked","m150","tile","13","m150knife.wav","space","548.211226589","121","448419.297352","455318.744332","456085.134195","456851.866314","457618.662741","458385.618084","459152.135327","459918.503238","449185.809957","449951.772542","450718.84568","451485.38271","452252.274362","453018.517368","453785.126435","454552.628398","459161.591418","Mapping"
"Blocked","m150","done","20","m150depth.wav","None","730.965306633","121","463052.367609","455318.744332","456085.134195","456851.866314","457618.662741","458385.618084","459152.135327","459918.503238","449185.809957","449951.772542","450718.84568","451485.38271","452252.274362","453018.517368","453785.126435","454552.628398","459927.252249","Mapping"
"Blocked","m150","done","20","m150cave.wav","None","722.03388362","121","463052.367609","455318.744332","456085.134195","456851.866314","457618.662741","458385.618084","459152.135327","459918.503238","463818.83693","449951.772542","450718.84568","451485.38271","452252.274362","453018.517368","453785.126435","454552.628398","463062.521507","Mapping"
"Blocked","m150","done","20","m150romp.wav","None","722.926469462","121","463052.367609","455318.744332","456085.134195","456851.866314","457618.662741","458385.618084","459152.135327","459918.503238","463818.83693","464585.738786","450718.84568","451485.38271","452252.274362","453018.517368","453785.126435","454552.628398","463828.689383","Mapping"
"Blocked","m150","done","20","m150cling.wav","None","723.207817937","121","463052.367609","455318.744332","456085.134195","456851.866314","457618.662741","458385.618084","459152.135327","459918.503238","463818.83693","464585.738786","465352.511715","451485.38271","452252.274362","453018.517368","453785.126435","454552.628398","464595.776434","Mapping"
"Blocked","m150","done","20","m150done.wav","None","723.323139828","121","463052.367609","455318.744332","456085.134195","456851.866314","457618.662741","458385.618084","459152.135327","459918.503238","463818.83693","464585.738786","465352.511715","466118.287559","452252.274362","453018.517368","453785.126435","454552.628398","465362.612744","Mapping"
"Blocked","m150","done","20","m150ball.wav","space","582.420110179","121","463052.367609","455318.744332","456085.134195","456851.866314","457618.662741","458385.618084","459152.135327","459918.503238","463818.83693","464585.738786","465352.511715","466118.287559","466885.845482","453018.517368","453785.126435","454552.628398","466127.304004","Mapping"
"Blocked","m150","done","20","m150done.wav","None","723.729703866","121","463052.367609","455318.744332","456085.134195","456851.866314","457618.662741","458385.618084","459152.135327","459918.503238","463818.83693","464585.738786","465352.511715","466118.287559","466885.845482","467652.063753","453785.126435","454552.628398","466895.5687","Mapping"
"Blocked","m150","done","20","m150park.wav","space","616.099687642","121","463052.367609","455318.744332","456085.134195","456851.866314","457618.662741","458385.618084","459152.135327","459918.503238","463818.83693","464585.738786","465352.511715","466118.287559","466885.845482","467652.063753","468418.18618","454552.628398","467661.574259","Mapping"
"Blocked","m150","done","20","m150depth.wav","None","725.539918581","121","463052.367609","455318.744332","456085.134195","456851.866314","457618.662741","458385.618084","459152.135327","459918.503238","463818.83693","464585.738786","465352.511715","466118.287559","466885.845482","467652.063753","468418.18618","469185.421325","468427.17109","Mapping"
"Blocked","m150","done","20","m150knife.wav","None","725.172310486","121","463052.367609","469951.99051","456085.134195","456851.866314","457618.662741","458385.618084","459152.135327","459918.503238","463818.83693","464585.738786","465352.511715","466118.287559","466885.845482","467652.063753","468418.18618","469185.421325","469194.886383","Mapping"
"Blocked","m150","done","20","m150done.wav","None","725.411920459","121","463052.367609","469951.99051","470718.431386","456851.866314","457618.662741","458385.618084","459152.135327","459918.503238","463818.83693","464585.738786","465352.511715","466118.287559","466885.845482","467652.063753","468418.18618","469185.421325","469961.439799","Mapping"
"Blocked","m150","done","20","m150reek.wav","space","469.503215922","121","463052.367609","469951.99051","470718.431386","471485.073226","457618.662741","458385.618084","459152.135327","459918.503238","463818.83693","464585.738786","465352.511715","466118.287559","466885.845482","467652.063753","468418.18618","469185.421325","470728.128943","Mapping"
"Blocked","m150","done","20","m150gnash.wav","None","725.723258802","121","463052.367609","469951.99051","470718.431386","471485.073226","472251.748766","458385.618084","459152.135327","459918.503238","463818.83693","464585.738786","465352.511715","466118.287559","466885.845482","467652.063753","468418.18618","469185.421325","471494.211796","Mapping"
"Blocked","m150","done","20","m150knife.wav","None","726.112199889","121","463052.367609","469951.99051","470718.431386","471485.073226","472251.748766","473018.410393","459152.135327","459918.503238","463818.83693","464585.738786","465352.511715","466118.287559","466885.845482","467652.063753","468418.18618","469185.421325","472260.838486","Mapping"
"Blocked","m150","done","20","m150done.wav","None","726.472387847","121","463052.367609","469951.99051","470718.431386","471485.073226","472251.748766","473018.410393","473785.238356","459918.503238","463818.83693","464585.738786","465352.511715","466118.287559","466885.845482","467652.063753","468418.18618","469185.421325","473027.849171","Mapping"
"Blocked","m150","done","20","m150cad.wav","space","498.898257909","121","463052.367609","469951.99051","470718.431386","471485.073226","472251.748766","473018.410393","473785.238356","474551.965528","463818.83693","464585.738786","465352.511715","466118.287559","466885.845482","467652.063753","468418.18618","469185.421325","473794.681462","Mapping"
"Blocked","m150","tile","15","m150park.wav","None","725.869498216","121","477685.270603","469951.99051","470718.431386","471485.073226","472251.748766","473018.410393","473785.238356","474551.965528","463818.83693","464585.738786","465352.511715","466118.287559","466885.845482","467652.063753","468418.18618","469185.421325","474561.461194","Mapping"
"Blocked","m150","tile","15","m150romp.wav","None","723.926956998","121","477685.270603","469951.99051","470718.431386","471485.073226","472251.748766","473018.410393","473785.238356","474551.965528","478451.527521","464585.738786","465352.511715","466118.287559","466885.845482","467652.063753","468418.18618","469185.421325","477694.739989","Mapping"
"Blocked","m150","tile","15","m150knife.wav","None","725.2307444","121","477685.270603","469951.99051","470718.431386","471485.073226","472251.748766","473018.410393","473785.238356","474551.965528","478451.527521","479218.378981","465352.511715","466118.287559","466885.845482","467652.063753","468418.18618","469185.421325","478460.666091","Mapping"
"Blocked","m150","tile","15","m150tile.wav","None","718.292567122","121","477685.270603","469951.99051","470718.431386","471485.073226","472251.748766","473018.410393","473785.238356","474551.965528","478451.527521","479218.378981","479984.780902","466118.287559","466885.845482","467652.063753","468418.18618","469185.421325","479234.720691","Mapping"
"Blocked","m150","tile","15","m150bluff.wav","space","499.635638262","121","477685.270603","469951.99051","470718.431386","471485.073226","472251.748766","473018.410393","473785.238356","474551.965528","478451.527521","479218.378981","479984.780902","480751.57702","466885.845482","467652.063753","468418.18618","469185.421325","479993.888864","Mapping"
"Blocked","m150","tile","15","m150cling.wav","None","725.844764267","121","477685.270603","469951.99051","470718.431386","471485.073226","472251.748766","473018.410393","473785.238356","474551.965528","478451.527521","479218.378981","479984.780902","480751.57702","481517.908449","467652.063753","468418.18618","469185.421325","480760.763821","Mapping"
"Blocked","m150","tile","15","m150tile.wav","None","730.791241629","121","477685.270603","469951.99051","470718.431386","471485.073226","472251.748766","473018.410393","473785.238356","474551.965528","478451.527521","479218.378981","479984.780902","480751.57702","481517.908449","482284.951288","468418.18618","469185.421325","481526.585731","Mapping"
"Blocked","m150","tile","15","m150depth.wav","space","607.609456172","121","477685.270603","469951.99051","470718.431386","471485.073226","472251.748766","473018.410393","473785.238356","474551.965528","478451.527521","479218.378981","479984.780902","480751.57702","481517.908449","482284.951288","483051.789454","469185.421325","482293.856122","Mapping"
"Blocked","m150","tile","15","m150ball.wav","None","729.886598012","121","477685.270603","469951.99051","470718.431386","471485.073226","472251.748766","473018.410393","473785.238356","474551.965528","478451.527521","479218.378981","479984.780902","480751.57702","481517.908449","482284.951288","483051.789454","483818.022875","483061.027268","Mapping"
"Blocked","m150","tile","15","m150bluff.wav","None","731.060223072","121","477685.270603","484584.795804","470718.431386","471485.073226","472251.748766","473018.410393","473785.238356","474551.965528","478451.527521","479218.378981","479984.780902","480751.57702","481517.908449","482284.951288","483051.789454","483818.022875","483827.254506","Mapping"
"Blocked","m150","tile","15","m150jolt.wav","None","731.620137463","121","477685.270603","484584.795804","485351.707553","471485.073226","472251.748766","473018.410393","473785.238356","474551.965528","478451.527521","479218.378981","479984.780902","480751.57702","481517.908449","482284.951288","483051.789454","483818.022875","484593.957871","Mapping"
"Blocked","m150","tile","15","m150priest.wav","None","731.770086975","121","477685.270603","484584.795804","485351.707553","486118.252931","472251.748766","473018.410393","473785.238356","474551.965528","478451.527521","479218.378981","479984.780902","480751.57702","481517.908449","482284.951288","483051.789454","483818.022875","485360.969174","Mapping"
"Blocked","m150","tile","15","m150tile.wav","None","732.204785803","121","477685.270603","484584.795804","485351.707553","486118.252931","486884.800164","473018.410393","473785.238356","474551.965528","478451.527521","479218.378981","479984.780902","480751.57702","481517.908449","482284.951288","483051.789454","483818.022875","486127.79621","Mapping"
"Blocked","m150","tile","15","m150cad.wav","space","495.15817815","121","477685.270603","484584.795804","485351.707553","486118.252931","486884.800164","487651.78395","473785.238356","474551.965528","478451.527521","479218.378981","479984.780902","480751.57702","481517.908449","482284.951288","483051.789454","483818.022875","486894.219154","Mapping"
"Blocked","m150","tile","15","m150tile.wav","None","732.910939609","121","477685.270603","484584.795804","485351.707553","486118.252931","486884.800164","487651.78395","488418.116307","474551.965528","478451.527521","479218.378981","479984.780902","480751.57702","481517.908449","482284.951288","483051.789454","483818.022875","487661.326611","Mapping"
"Blocked","m150","tile","15","m150done.wav","space","657.89848764","121","477685.270603","484584.795804","485351.707553","486118.252931","486884.800164","487651.78395","488418.116307","489185.220981","478451.527521","479218.378981","479984.780902","480751.57702","481517.908449","482284.951288","483051.789454","483818.022875","488427.465424","Mapping"
"Blocked","m150","ball","6","m150knife.wav","None","733.285658644","121","492318.364357","484584.795804","485351.707553","486118.252931","486884.800164","487651.78395","488418.116307","489185.220981","478451.527521","479218.378981","479984.780902","480751.57702","481517.908449","482284.951288","483051.789454","483818.022875","489194.723139","Mapping"
"Blocked","m150","ball","6","m150ball.wav","None","723.096824368","121","492318.364357","484584.795804","485351.707553","486118.252931","486884.800164","487651.78395","488418.116307","489185.220981","493085.298058","479218.378981","479984.780902","480751.57702","481517.908449","482284.951288","483051.789454","483818.022875","492328.202897","Mapping"
"Blocked","m150","ball","6","m150lash.wav","space","605.941152433","121","492318.364357","484584.795804","485351.707553","486118.252931","486884.800164","487651.78395","488418.116307","489185.220981","493085.298058","493851.476137","479984.780902","480751.57702","481517.908449","482284.951288","483051.789454","483818.022875","493095.357348","Mapping"
"Blocked","m150","ball","6","m150tile.wav","None","724.568802514","121","492318.364357","484584.795804","485351.707553","486118.252931","486884.800164","487651.78395","488418.116307","489185.220981","493085.298058","493851.476137","494618.146421","480751.57702","481517.908449","482284.951288","483051.789454","483818.022875","493860.571113","Mapping"
"Blocked","m150","ball","6","m150ball.wav","None","724.632801604","121","492318.364357","484584.795804","485351.707553","486118.252931","486884.800164","487651.78395","488418.116307","489185.220981","493085.298058","493851.476137","494618.146421","495385.080121","481517.908449","482284.951288","483051.789454","483818.022875","494627.744732","Mapping"
"Blocked","m150","ball","6","m150priest.wav","space","538.761627686","121","492318.364357","484584.795804","485351.707553","486118.252931","486884.800164","487651.78395","488418.116307","489185.220981","493085.298058","493851.476137","494618.146421","495385.080121","496151.257581","482284.951288","483051.789454","483818.022875","495394.489527","Mapping"
"Blocked","m150","ball","6","m150priest.wav","None","725.441910385","121","492318.364357","484584.795804","485351.707553","486118.252931","486884.800164","487651.78395","488418.116307","489185.220981","493085.298058","493851.476137","494618.146421","495385.080121","496151.257581","496918.086781","483051.789454","483818.022875","496160.406663","Mapping"
"Blocked","m150","ball","6","m150ball.wav","None","725.569599308","121","492318.364357","484584.795804","485351.707553","486118.252931","486884.800164","487651.78395","488418.116307","489185.220981","493085.298058","493851.476137","494618.146421","495385.080121","496151.257581","496918.086781","497684.532914","483818.022875","496927.863795","Mapping"
"Blocked","m150","ball","6","m150depth.wav","space","663.127240958","121","492318.364357","484584.795804","485351.707553","486118.252931","486884.800164","487651.78395","488418.116307","489185.220981","493085.298058","493851.476137","494618.146421","495385.080121","496151.257581","496918.086781","497684.532914","498451.361186","497694.105873","Mapping"
"Blocked","m150","ball","6","m150dime.wav","None","726.545352896","121","492318.364357","499217.766816","485351.707553","486118.252931","486884.800164","487651.78395","488418.116307","489185.220981","493085.298058","493851.476137","494618.146421","495385.080121","496151.257581","496918.086781","497684.532914","498451.361186","498460.519233","Mapping"
"Blocked","m150","ball","6","m150ball.wav","None","727.504101931","121","492318.364357","499217.766816","499984.892514","486118.252931","486884.800164","487651.78395","488418.116307","489185.220981","493085.298058","493851.476137","494618.146421","495385.080121","496151.257581","496918.086781","497684.532914","498451.361186","499226.973405","Mapping"
"Blocked","m150","ball","6","m150depth.wav","space","498.996575247","121","492318.364357","499217.766816","499984.892514","500751.517659","486884.800164","487651.78395","488418.116307","489185.220981","493085.298058","493851.476137","494618.146421","495385.080121","496151.257581","496918.086781","497684.532914","498451.361186","499994.193709","Mapping"
"Blocked","m150","ball","6","m150romp.wav","None","727.136184694","121","492318.364357","499217.766816","499984.892514","500751.517659","501518.018515","487651.78395","488418.116307","489185.220981","493085.298058","493851.476137","494618.146421","495385.080121","496151.257581","496918.086781","497684.532914","498451.361186","500760.937268","Mapping"
"Blocked","m150","ball","6","m150reek.wav","None","727.518323984","121","492318.364357","499217.766816","499984.892514","500751.517659","501518.018515","502284.829473","488418.116307","489185.220981","493085.298058","493851.476137","494618.146421","495385.080121","496151.257581","496918.086781","497684.532914","498451.361186","501527.766158","Mapping"
"Blocked","m150","ball","6","m150priest.wav","None","727.945293533","121","492318.364357","499217.766816","499984.892514","500751.517659","501518.018515","502284.829473","503051.458328","489185.220981","493085.298058","493851.476137","494618.146421","495385.080121","496151.257581","496918.086781","497684.532914","498451.361186","502294.455611","Mapping"
"Blocked","m150","ball","6","m150cling.wav","None","729.339359794","121","492318.364357","499217.766816","499984.892514","500751.517659","501518.018515","502284.829473","503051.458328","503817.987629","493085.298058","493851.476137","494618.146421","495385.080121","496151.257581","496918.086781","497684.532914","498451.361186","503060.821049","Mapping"
"Blocked","m150","cave","11","m150lash.wav","None","729.941940226","121","506951.834995","499217.766816","499984.892514","500751.517659","501518.018515","502284.829473","503051.458328","503817.987629","493085.298058","493851.476137","494618.146421","495385.080121","496151.257581","496918.086781","497684.532914","498451.361186","503827.515449","Mapping"
"Blocked","m150","cave","11","m150cave.wav","None","721.724400297","121","506951.834995","499217.766816","499984.892514","500751.517659","501518.018515","502284.829473","503051.458328","503817.987629","507718.386865","493851.476137","494618.146421","495385.080121","496151.257581","496918.086781","497684.532914","498451.361186","506962.075771","Mapping"
"Blocked","m150","cave","11","m150cling.wav","space","532.543207868","121","506951.834995","499217.766816","499984.892514","500751.517659","501518.018515","502284.829473","503051.458328","503817.987629","507718.386865","508485.214828","494618.146421","495385.080121","496151.257581","496918.086781","497684.532914","498451.361186","507728.544782","Mapping"
"Blocked","m150","cave","11","m150ball.wav","None","722.599672328","121","506951.834995","499217.766816","499984.892514","500751.517659","501518.018515","502284.829473","503051.458328","503817.987629","507718.386865","508485.214828","509251.265836","495385.080121","496151.257581","496918.086781","497684.532914","498451.361186","508494.556525","Mapping"
"Blocked","m150","cave","11","m150cling.wav","None","724.130702729","121","506951.834995","499217.766816","499984.892514","500751.517659","501518.018515","502284.829473","503051.458328","503817.987629","507718.386865","508485.214828","509251.265836","510017.869029","496151.257581","496918.086781","497684.532914","498451.361186","509260.414918","Mapping"
"Blocked","m150","cave","11","m150priest.wav","None","724.647023599","121","506951.834995","499217.766816","499984.892514","500751.517659","501518.018515","502284.829473","503051.458328","503817.987629","507718.386865","508485.214828","509251.265836","510017.869029","510784.792527","496918.086781","497684.532914","498451.361186","510027.402105","Mapping"
"Blocked","m150","cave","11","m150romp.wav","None","725.047404121","121","506951.834995","499217.766816","499984.892514","500751.517659","501518.018515","502284.829473","503051.458328","503817.987629","507718.386865","508485.214828","509251.265836","510017.869029","510784.792527","511551.40716","497684.532914","498451.361186","510794.213682","Mapping"
"Blocked","m150","cave","11","m150jaw.wav","None","725.674718502","121","506951.834995","499217.766816","499984.892514","500751.517659","501518.018515","502284.829473","503051.458328","503817.987629","507718.386865","508485.214828","509251.265836","510017.869029","510784.792527","511551.40716","512317.869679","498451.361186","511560.662288","Mapping"
"Blocked","m150","cave","11","m150lash.wav","None","726.210208144","121","506951.834995","499217.766816","499984.892514","500751.517659","501518.018515","502284.829473","503051.458328","503817.987629","507718.386865","508485.214828","509251.265836","510017.869029","510784.792527","511551.40716","512317.869679","513084.641372","512327.459952","Mapping"
"Blocked","m150","cave","11","m150cave.wav","None","727.061673708","121","506951.834995","513851.019177","499984.892514","500751.517659","501518.018515","502284.829473","503051.458328","503817.987629","507718.386865","508485.214828","509251.265836","510017.869029","510784.792527","511551.40716","512317.869679","513084.641372","513094.003165","Mapping"
"Blocked","m150","cave","11","m150park.wav","space","497.197181685","121","506951.834995","513851.019177","514617.834773","500751.517659","501518.018515","502284.829473","503051.458328","503817.987629","507718.386865","508485.214828","509251.265836","510017.869029","510784.792527","511551.40716","512317.869679","513084.641372","513859.772207","Mapping"
"Blocked","m150","cave","11","m150cave.wav","None","727.474421263","121","506951.834995","513851.019177","514617.834773","515384.462082","501518.018515","502284.829473","503051.458328","503817.987629","507718.386865","508485.214828","509251.265836","510017.869029","510784.792527","511551.40716","512317.869679","513084.641372","514627.283754","Mapping"
"Blocked","m150","cave","11","m150greet.wav","space","674.521545297","121","506951.834995","513851.019177","514617.834773","515384.462082","516150.98087","502284.829473","503051.458328","503817.987629","507718.386865","508485.214828","509251.265836","510017.869029","510784.792527","511551.40716","512317.869679","513084.641372","515394.45119","Mapping"
"Blocked","m150","cave","11","m150knife.wav","None","728.770170128","121","506951.834995","513851.019177","514617.834773","515384.462082","516150.98087","516917.46936","503051.458328","503817.987629","507718.386865","508485.214828","509251.265836","510017.869029","510784.792527","511551.40716","512317.869679","513084.641372","516159.768527","Mapping"
"Blocked","m150","cave","11","m150cave.wav","None","729.582679807","121","506951.834995","513851.019177","514617.834773","515384.462082","516150.98087","516917.46936","517684.26857","503817.987629","507718.386865","508485.214828","509251.265836","510017.869029","510784.792527","511551.40716","512317.869679","513084.641372","516926.391817","Mapping"
"Blocked","m150","cave","11","m150cling.wav","space","519.270670484","121","506951.834995","513851.019177","514617.834773","515384.462082","516150.98087","516917.46936","517684.26857","518450.974718","507718.386865","508485.214828","509251.265836","510017.869029","510784.792527","511551.40716","512317.869679","513084.641372","517693.656025","Mapping"
"Blocked","m150","cave","12","m150cling.wav","None","729.264230467","121","521585.002333","513851.019177","514617.834773","515384.462082","516150.98087","516917.46936","517684.26857","518450.974718","507718.386865","508485.214828","509251.265836","510017.869029","510784.792527","511551.40716","512317.869679","513084.641372","518460.124109","Mapping"
"Blocked","m150","cave","12","m150cave.wav","None","722.055835009","121","521585.002333","513851.019177","514617.834773","515384.462082","516150.98087","516917.46936","517684.26857","518450.974718","522351.535653","508485.214828","509251.265836","510017.869029","510784.792527","511551.40716","512317.869679","513084.641372","521594.855713","Mapping"
"Blocked","m150","cave","12","m150bluff.wav","space","627.248816832","121","521585.002333","513851.019177","514617.834773","515384.462082","516150.98087","516917.46936","517684.26857","518450.974718","522351.535653","523117.774639","509251.265836","510017.869029","510784.792527","511551.40716","512317.869679","513084.641372","522361.624933","Mapping"
"Blocked","m150","cave","12","m150priest.wav","None","724.484397972","121","521585.002333","513851.019177","514617.834773","515384.462082","516150.98087","516917.46936","517684.26857","518450.974718","522351.535653","523117.774639","523884.16141","510017.869029","510784.792527","511551.40716","512317.869679","513084.641372","523126.621348","Mapping"
"Blocked","m150","cave","12","m150cave.wav","None","725.766852382","121","521585.002333","513851.019177","514617.834773","515384.462082","516150.98087","516917.46936","517684.26857","518450.974718","522351.535653","523117.774639","523884.16141","524651.262992","510784.792527","511551.40716","512317.869679","513084.641372","523892.902382","Mapping"
"Blocked","m150","cave","12","m150jolt.wav","space","576.093479467","121","521585.002333","513851.019177","514617.834773","515384.462082","516150.98087","516917.46936","517684.26857","518450.974718","522351.535653","523117.774639","523884.16141","524651.262992","525417.646671","511551.40716","512317.869679","513084.641372","524660.72774","Mapping"
"Blocked","m150","cave","12","m150done.wav","None","724.759562989","121","521585.002333","513851.019177","514617.834773","515384.462082","516150.98087","516917.46936","517684.26857","518450.974718","522351.535653","523117.774639","523884.16141","524651.262992","525417.646671","526184.570169","512317.869679","513084.641372","525427.411937","Mapping"
"Blocked","m150","cave","12","m150cad.wav","None","726.071698125","121","521585.002333","513851.019177","514617.834773","515384.462082","516150.98087","516917.46936","517684.26857","518450.974718","522351.535653","523117.774639","523884.16141","524651.262992","525417.646671","526184.570169","526951.216028","513084.641372","526193.760371","Mapping"
"Blocked","m150","cave","12","m150cave.wav","None","726.673351019","121","521585.002333","513851.019177","514617.834773","515384.462082","516150.98087","516917.46936","517684.26857","518450.974718","522351.535653","523117.774639","523884.16141","524651.262992","525417.646671","526184.570169","526951.216028","527717.478202","526960.464664","Mapping"
"Blocked","m150","cave","12","m150greet.wav","space","686.300771427","121","521585.002333","528484.46168","514617.834773","515384.462082","516150.98087","516917.46936","517684.26857","518450.974718","522351.535653","523117.774639","523884.16141","524651.262992","525417.646671","526184.570169","526951.216028","527717.478202","527726.501141","Mapping"
"Blocked","m150","cave","12","m150jolt.wav","None","726.430649345","121","521585.002333","528484.46168","529250.787544","515384.462082","516150.98087","516917.46936","517684.26857","518450.974718","522351.535653","523117.774639","523884.16141","524651.262992","525417.646671","526184.570169","526951.216028","527717.478202","528494.264046","Mapping"
"Blocked","m150","cave","12","m150park.wav","None","728.568897757","121","521585.002333","528484.46168","529250.787544","530017.613961","516150.98087","516917.46936","517684.26857","518450.974718","522351.535653","523117.774639","523884.16141","524651.262992","525417.646671","526184.570169","526951.216028","527717.478202","529259.59035","Mapping"
"Blocked","m150","cave","12","m150cave.wav","None","728.522521618","121","521585.002333","528484.46168","529250.787544","530017.613961","530784.519217","516917.46936","517684.26857","518450.974718","522351.535653","523117.774639","523884.16141","524651.262992","525417.646671","526184.570169","526951.216028","527717.478202","530026.98101","Mapping"
"Blocked","m150","cave","12","m150dime.wav","space","595.152829424","121","521585.002333","528484.46168","529250.787544","530017.613961","530784.519217","531551.044808","517684.26857","518450.974718","522351.535653","523117.774639","523884.16141","524651.262992","525417.646671","526184.570169","526951.216028","527717.478202","530793.567199","Mapping"
"Blocked","m150","cave","12","m150depth.wav","None","729.100058961","121","521585.002333","528484.46168","529250.787544","530017.613961","530784.519217","531551.044808","532317.997677","518450.974718","522351.535653","523117.774639","523884.16141","524651.262992","525417.646671","526184.570169","526951.216028","527717.478202","531560.499353","Mapping"
"Blocked","m150","cave","12","m150done.wav","None","729.312461626","121","521585.002333","528484.46168","529250.787544","530017.613961","530784.519217","531551.044808","532317.997677","533083.949749","522351.535653","523117.774639","523884.16141","524651.262992","525417.646671","526184.570169","526951.216028","527717.478202","532327.596298","Mapping"
"Blocked","m150","cave","10","m150greet.wav","None","731.041981839","121","536217.990659","528484.46168","529250.787544","530017.613961","530784.519217","531551.044808","532317.997677","533083.949749","522351.535653","523117.774639","523884.16141","524651.262992","525417.646671","526184.570169","526951.216028","527717.478202","533093.280316","Mapping"
"Blocked","m150","cave","10","m150cave.wav","None","722.987376736","121","536217.990659","528484.46168","529250.787544","530017.613961","530784.519217","531551.044808","532317.997677","533083.949749","536984.276948","523117.774639","523884.16141","524651.262992","525417.646671","526184.570169","526951.216028","527717.478202","536227.695944","Mapping"
"Blocked","m150","cave","10","m150romp.wav","space","563.079102489","121","536217.990659","528484.46168","529250.787544","530017.613961","530784.519217","531551.044808","532317.997677","533083.949749","536984.276948","537751.193644","523884.16141","524651.262992","525417.646671","526184.570169","526951.216028","527717.478202","536993.548772","Mapping"
"Blocked","m150","cave","10","m150greet.wav","None","723.010873946","121","536217.990659","528484.46168","529250.787544","530017.613961","530784.519217","531551.044808","532317.997677","533083.949749","536984.276948","537751.193644","538517.489518","524651.262992","525417.646671","526184.570169","526951.216028","527717.478202","537761.564891","Mapping"
"Blocked","m150","cave","10","m150cling.wav","None","724.87117484","121","536217.990659","528484.46168","529250.787544","530017.613961","530784.519217","531551.044808","532317.997677","533083.949749","536984.276948","537751.193644","538517.489518","539283.845063","525417.646671","526184.570169","526951.216028","527717.478202","538527.186456","Mapping"
"Blocked","m150","cave","10","m150park.wav","None","730.366745498","121","536217.990659","528484.46168","529250.787544","530017.613961","530784.519217","531551.044808","532317.997677","533083.949749","536984.276948","537751.193644","538517.489518","539283.845063","540051.016209","526184.570169","526951.216028","527717.478202","539293.154606","Mapping"
"Blocked","m150","cave","10","m150cave.wav","None","730.503091298","121","536217.990659","528484.46168","529250.787544","530017.613961","530784.519217","531551.044808","532317.997677","533083.949749","536984.276948","537751.193644","538517.489518","539283.845063","540051.016209","540817.150385","526951.216028","527717.478202","540060.590096","Mapping"
"Blocked","m150","cave","10","m150lash.wav","space","594.202118868","121","536217.990659","528484.46168","529250.787544","530017.613961","530784.519217","531551.044808","532317.997677","533083.949749","536984.276948","537751.193644","538517.489518","539283.845063","540051.016209","540817.150385","541584.346265","527717.478202","540826.375524","Mapping"
"Blocked","m150","cave","10","m150cad.wav","None","730.821231438","121","536217.990659","528484.46168","529250.787544","530017.613961","530784.519217","531551.044808","532317.997677","533083.949749","536984.276948","537751.193644","538517.489518","539283.845063","540051.016209","540817.150385","541584.346265","542350.687897","541594.107202","Mapping"
"Blocked","m150","cave","10","m150park.wav","None","732.169540017","121","536217.990659","543117.462682","529250.787544","530017.613961","530784.519217","531551.044808","532317.997677","533083.949749","536984.276948","537751.193644","538517.489518","539283.845063","540051.016209","540817.150385","541584.346265","542350.687897","542360.148008","Mapping"
"Blocked","m150","cave","10","m150cave.wav","None","732.548278291","121","536217.990659","543117.462682","543884.063711","530017.613961","530784.519217","531551.044808","532317.997677","533083.949749","536984.276948","537751.193644","538517.489518","539283.845063","540051.016209","540817.150385","541584.346265","542350.687897","543127.425819","Mapping"
"Blocked","m150","cave","10","m150lash.wav","space","519.05424858","121","536217.990659","543117.462682","543884.063711","544650.883944","530784.519217","531551.044808","532317.997677","533083.949749","536984.276948","537751.193644","538517.489518","539283.845063","540051.016209","540817.150385","541584.346265","542350.687897","543893.453639","Mapping"
"Blocked","m150","cave","10","m150cave.wav","None","732.581050834","121","536217.990659","543117.462682","543884.063711","544650.883944","545416.824887","531551.044808","532317.997677","533083.949749","536984.276948","537751.193644","538517.489518","539283.845063","540051.016209","540817.150385","541584.346265","542350.687897","544661.754508","Mapping"
"Blocked","m150","cave","10","m150gnash.wav","space","682.837093365","121","536217.990659","543117.462682","543884.063711","544650.883944","545416.824887","546183.668926","532317.997677","533083.949749","536984.276948","537751.193644","538517.489518","539283.845063","540051.016209","540817.150385","541584.346265","542350.687897","545425.658301","Mapping"
"Blocked","m150","cave","10","m150jolt.wav","None","740.670283383","121","536217.990659","543117.462682","543884.063711","544650.883944","545416.824887","546183.668926","546951.251892","533083.949749","536984.276948","537751.193644","538517.489518","539283.845063","540051.016209","540817.150385","541584.346265","542350.687897","546188.206366","Mapping"
"Blocked","m150","cave","10","m150gnash.wav","None","736.683791853","121","536217.990659","543117.462682","543884.063711","544650.883944","545416.824887","546183.668926","546951.251892","547734.219674","536984.276948","537751.193644","538517.489518","539283.845063","540051.016209","540817.150385","541584.346265","542350.687897","546960.042641","Mapping"
"Blocked","m150","tile","18","m150done.wav","None","720.965686953","121","550867.827121","543117.462682","543884.063711","544650.883944","545416.824887","546183.668926","546951.251892","547734.219674","536984.276948","537751.193644","538517.489518","539283.845063","540051.016209","540817.150385","541584.346265","542350.687897","547743.137184","Mapping"
"Blocked","m150","tile","18","m150tile.wav","None","723.402288451","121","550867.827121","543117.462682","543884.063711","544650.883944","545416.824887","546183.668926","546951.251892","547734.219674","551633.788778","537751.193644","538517.489518","539283.845063","540051.016209","540817.150385","541584.346265","542350.687897","550877.254459","Mapping"
"Blocked","m150","tile","18","m150gnash.wav","space","561.313718092","121","550867.827121","543117.462682","543884.063711","544650.883944","545416.824887","546183.668926","546951.251892","547734.219674","551633.788778","552401.332479","538517.489518","539283.845063","540051.016209","540817.150385","541584.346265","542350.687897","551643.07606","Mapping"
"Blocked","m150","tile","18","m150lash.wav","None","723.952309287","121","550867.827121","543117.462682","543884.063711","544650.883944","545416.824887","546183.668926","546951.251892","547734.219674","551633.788778","552401.332479","553167.33742","539283.845063","540051.016209","540817.150385","541584.346265","542350.687897","552410.732301","Mapping"
"Blocked","m150","tile","18","m150gnash.wav","None","725.716766145","121","550867.827121","543117.462682","543884.063711","544650.883944","545416.824887","546183.668926","546951.251892","547734.219674","551633.788778","552401.332479","553167.33742","553934.214851","540051.016209","540817.150385","541584.346265","542350.687897","553176.802168","Mapping"
"Blocked","m150","tile","18","m150tile.wav","None","726.957791194","121","550867.827121","543117.462682","543884.063711","544650.883944","545416.824887","546183.668926","546951.251892","547734.219674","551633.788778","552401.332479","553167.33742","553934.214851","554700.665621","540817.150385","541584.346265","542350.687897","553943.369497","Mapping"
"Blocked","m150","tile","18","m150dime.wav","space","518.519377336","121","550867.827121","543117.462682","543884.063711","544650.883944","545416.824887","546183.668926","546951.251892","547734.219674","551633.788778","552401.332479","553167.33742","553934.214851","554700.665621","555467.016837","541584.346265","542350.687897","554709.844692","Mapping"
"Blocked","m150","tile","18","m150knife.wav","None","728.816237068","121","550867.827121","543117.462682","543884.063711","544650.883944","545416.824887","546183.668926","546951.251892","547734.219674","551633.788778","552401.332479","553167.33742","553934.214851","554700.665621","555467.016837","556233.65002","542350.687897","555476.297318","Mapping"
"Blocked","m150","tile","18","m150tile.wav","None","730.523805949","121","550867.827121","543117.462682","543884.063711","544650.883944","545416.824887","546183.668926","546951.251892","547734.219674","551633.788778","552401.332479","553167.33742","553934.214851","554700.665621","555467.016837","556233.65002","557000.354314","556242.394702","Mapping"
"Blocked","m150","tile","18","m150dime.wav","space","547.223105968","121","550867.827121","557767.108693","543884.063711","544650.883944","545416.824887","546183.668926","546951.251892","547734.219674","551633.788778","552401.332479","553167.33742","553934.214851","554700.665621","555467.016837","556233.65002","557000.354314","557009.124348","Mapping"
"Blocked","m150","tile","18","m150cling.wav","None","731.146482693","121","550867.827121","557767.108693","558534.066509","544650.883944","545416.824887","546183.668926","546951.251892","547734.219674","551633.788778","552401.332479","553167.33742","553934.214851","554700.665621","555467.016837","556233.65002","557000.354314","557776.143998","Mapping"
"Blocked","m150","tile","18","m150jaw.wav","None","731.453492655","121","550867.827121","557767.108693","558534.066509","559300.626418","545416.824887","546183.668926","546951.251892","547734.219674","551633.788778","552401.332479","553167.33742","553934.214851","554700.665621","555467.016837","556233.65002","557000.354314","558543.750771","Mapping"
"Blocked","m150","tile","18","m150reek.wav","None","732.870437787","121","550867.827121","557767.108693","558534.066509","559300.626418","560067.002059","546183.668926","546951.251892","547734.219674","551633.788778","552401.332479","553167.33742","553934.214851","554700.665621","555467.016837","556233.65002","557000.354314","559309.849083","Mapping"
"Blocked","m150","tile","18","m150depth.wav","None","734.294184775","121","550867.827121","557767.108693","558534.066509","559300.626418","560067.002059","560833.84919","546951.251892","547734.219674","551633.788778","552401.332479","553167.33742","553934.214851","554700.665621","555467.016837","556233.65002","557000.354314","560076.122078","Mapping"
"Blocked","m150","tile","18","m150tile.wav","None","734.915315639","121","550867.827121","557767.108693","558534.066509","559300.626418","560067.002059","560833.84919","561600.646545","547734.219674","551633.788778","552401.332479","553167.33742","553934.214851","554700.665621","555467.016837","556233.65002","557000.354314","560843.211293","Mapping"
"Blocked","m150","tile","18","m150park.wav","space","482.194196607","121","550867.827121","557767.108693","558534.066509","559300.626418","560067.002059","560833.84919","561600.646545","562366.832971","551633.788778","552401.332479","553167.33742","553934.214851","554700.665621","555467.016837","556233.65002","557000.354314","561610.070792","Mapping"
"Blocked","m150","done","23","m150cling.wav","None","736.004845356","121","565500.933242","557767.108693","558534.066509","559300.626418","560067.002059","560833.84919","561600.646545","562366.832971","551633.788778","552401.332479","553167.33742","553934.214851","554700.665621","555467.016837","556233.65002","557000.354314","562376.14777","Mapping"
"Blocked","m150","done","23","m150cad.wav","None","722.341202782","121","565500.933242","557767.108693","558534.066509","559300.626418","560067.002059","560833.84919","561600.646545","562366.832971","566267.550657","552401.332479","553167.33742","553934.214851","554700.665621","555467.016837","556233.65002","557000.354314","565510.669136","Mapping"
"Blocked","m150","done","23","m150gnash.wav","None","723.404143471","121","565500.933242","557767.108693","558534.066509","559300.626418","560067.002059","560833.84919","561600.646545","562366.832971","566267.550657","567033.911149","553167.33742","553934.214851","554700.665621","555467.016837","556233.65002","557000.354314","566277.114032","Mapping"
"Blocked","m150","done","23","m150done.wav","None","725.178184803","121","565500.933242","557767.108693","558534.066509","559300.626418","560067.002059","560833.84919","561600.646545","562366.832971","566267.550657","567033.911149","567800.511869","553934.214851","554700.665621","555467.016837","556233.65002","557000.354314","567043.097641","Mapping"
"Blocked","m150","done","23","m150ball.wav","space","370.434231998","121","565500.933242","557767.108693","558534.066509","559300.626418","560067.002059","560833.84919","561600.646545","562366.832971","566267.550657","567033.911149","567800.511869","568567.042715","554700.665621","555467.016837","556233.65002","557000.354314","567809.739481","Mapping"
"Blocked","m150","done","23","m150done.wav","None","725.681211159","121","565500.933242","557767.108693","558534.066509","559300.626418","560067.002059","560833.84919","561600.646545","562366.832971","566267.550657","567033.911149","567800.511869","568567.042715","569333.724439","555467.016837","556233.65002","557000.354314","568576.302481","Mapping"
"Blocked","m150","done","23","m150romp.wav","space","548.901303264","121","565500.933242","557767.108693","558534.066509","559300.626418","560067.002059","560833.84919","561600.646545","562366.832971","566267.550657","567033.911149","567800.511869","568567.042715","569333.724439","570100.481291","556233.65002","557000.354314","569343.287195","Mapping"
"Blocked","m150","done","23","m150greet.wav","None","726.184237516","121","565500.933242","557767.108693","558534.066509","559300.626418","560067.002059","560833.84919","561600.646545","562366.832971","566267.550657","567033.911149","567800.511869","568567.042715","569333.724439","570100.481291","570866.804682","557000.354314","570109.871838","Mapping"
"Blocked","m150","done","23","m150cave.wav","None","727.737528447","121","565500.933242","557767.108693","558534.066509","559300.626418","560067.002059","560833.84919","561600.646545","562366.832971","566267.550657","567033.911149","567800.511869","568567.042715","569333.724439","570100.481291","570866.804682","571633.9041","570876.027347","Mapping"
"Blocked","m150","done","23","m150done.wav","None","728.061542963","121","565500.933242","572400.496163","558534.066509","559300.626418","560067.002059","560833.84919","561600.646545","562366.832971","566267.550657","567033.911149","567800.511869","568567.042715","569333.724439","570100.481291","570866.804682","571633.9041","571643.375959","Mapping"
"Blocked","m150","done","23","m150depth.wav","space","434.263854753","121","565500.933242","572400.496163","573166.870567","559300.626418","560067.002059","560833.84919","561600.646545","562366.832971","566267.550657","567033.911149","567800.511869","568567.042715","569333.724439","570100.481291","570866.804682","571633.9041","572409.892584","Mapping"
"Blocked","m150","done","23","m150reek.wav","None","729.320500104","121","565500.933242","572400.496163","573166.870567","573933.900111","560067.002059","560833.84919","561600.646545","562366.832971","566267.550657","567033.911149","567800.511869","568567.042715","569333.724439","570100.481291","570866.804682","571633.9041","573176.148265","Mapping"
"Blocked","m150","done","23","m150jaw.wav","None","729.19250204","121","565500.933242","572400.496163","573166.870567","573933.900111","574700.376234","560833.84919","561600.646545","562366.832971","566267.550657","567033.911149","567800.511869","568567.042715","569333.724439","570100.481291","570866.804682","571633.9041","573943.909625","Mapping"
"Blocked","m150","done","23","m150ball.wav","None","731.614881544","121","565500.933242","572400.496163","573166.870567","573933.900111","574700.376234","575466.844627","561600.646545","562366.832971","566267.550657","567033.911149","567800.511869","568567.042715","569333.724439","570100.481291","570866.804682","571633.9041","574709.579421","Mapping"
"Blocked","m150","done","23","m150done.wav","None","732.385034324","121","565500.933242","572400.496163","573166.870567","573933.900111","574700.376234","575466.844627","576233.654658","562366.832971","566267.550657","567033.911149","567800.511869","568567.042715","569333.724439","570100.481291","570866.804682","571633.9041","575476.533218","Mapping"
"Blocked","m150","done","23","m150dime.wav","space","465.093774081","121","565500.933242","572400.496163","573166.870567","573933.900111","574700.376234","575466.844627","576233.654658","577000.282585","566267.550657","567033.911149","567800.511869","568567.042715","569333.724439","570100.481291","570866.804682","571633.9041","576242.968839","Mapping"
"Blocked","m150","ball","3","m150knife.wav","None","739.705660031","121","580134.175709","572400.496163","573166.870567","573933.900111","574700.376234","575466.844627","576233.654658","577000.282585","566267.550657","567033.911149","567800.511869","568567.042715","569333.724439","570100.481291","570866.804682","571633.9041","577004.054201","Mapping"
"Blocked","m150","ball","3","m150ball.wav","None","722.055834951","121","580134.175709","572400.496163","573166.870567","573933.900111","574700.376234","575466.844627","576233.654658","577000.282585","580900.685841","567033.911149","567800.511869","568567.042715","569333.724439","570100.481291","570866.804682","571633.9041","580143.983332","Mapping"
"Blocked","m150","ball","3","m150cad.wav","space","445.214184991","121","580134.175709","572400.496163","573166.870567","573933.900111","574700.376234","575466.844627","576233.654658","577000.282585","580900.685841","581667.206485","567800.511869","568567.042715","569333.724439","570100.481291","570866.804682","571633.9041","580910.791817","Mapping"
"Blocked","m150","ball","3","m150ball.wav","None","723.408781108","121","580134.175709","572400.496163","573166.870567","573933.900111","574700.376234","575466.844627","576233.654658","577000.282585","580900.685841","581667.206485","582433.618299","568567.042715","569333.724439","570100.481291","570866.804682","571633.9041","581676.780372","Mapping"
"Blocked","m150","ball","3","m150jolt.wav","space","480.764575303","121","580134.175709","572400.496163","573166.870567","573933.900111","574700.376234","575466.844627","576233.654658","577000.282585","580900.685841","581667.206485","582433.618299","583200.307443","569333.724439","570100.481291","570866.804682","571633.9041","582443.195278","Mapping"
"Blocked","m150","ball","3","m150jolt.wav","None","724.648878619","121","580134.175709","572400.496163","573166.870567","573933.900111","574700.376234","575466.844627","576233.654658","577000.282585","580900.685841","581667.206485","582433.618299","583200.307443","583966.786348","570100.481291","570866.804682","571633.9041","583209.594725","Mapping"
"Blocked","m150","ball","3","m150priest.wav","None","725.656477211","121","580134.175709","572400.496163","573166.870567","573933.900111","574700.376234","575466.844627","576233.654658","577000.282585","580900.685841","581667.206485","582433.618299","583200.307443","583966.786348","584733.412111","570866.804682","571633.9041","583976.361162","Mapping"
"Blocked","m150","ball","3","m150gnash.wav","None","727.558825805","121","580134.175709","572400.496163","573166.870567","573933.900111","574700.376234","575466.844627","576233.654658","577000.282585","580900.685841","581667.206485","582433.618299","583200.307443","583966.786348","584733.412111","585500.266972","571633.9041","584742.46102","Mapping"
"Blocked","m150","ball","3","m150ball.wav","None","728.247356659","121","580134.175709","572400.496163","573166.870567","573933.900111","574700.376234","575466.844627","576233.654658","577000.282585","580900.685841","581667.206485","582433.618299","583200.307443","583966.786348","584733.412111","585500.266972","586266.754843","585509.503859","Mapping"
"Blocked","m150","ball","3","m150bluff.wav","space","448.091978091","121","580134.175709","587033.552507","573166.870567","573933.900111","574700.376234","575466.844627","576233.654658","577000.282585","580900.685841","581667.206485","582433.618299","583200.307443","583966.786348","584733.412111","585500.266972","586266.754843","586275.81581","Mapping"
"Blocked","m150","ball","3","m150romp.wav","None","728.840661817","121","580134.175709","587033.552507","587800.21568","573933.900111","574700.376234","575466.844627","576233.654658","577000.282585","580900.685841","581667.206485","582433.618299","583200.307443","583966.786348","584733.412111","585500.266972","586266.754843","587042.82464","Mapping"
"Blocked","m150","ball","3","m150greet.wav","None","729.997591523","121","580134.175709","587033.552507","587800.21568","588566.689947","574700.376234","575466.844627","576233.654658","577000.282585","580900.685841","581667.206485","582433.618299","583200.307443","583966.786348","584733.412111","585500.266972","586266.754843","587809.416084","Mapping"
"Blocked","m150","ball","3","m150depth.wav","None","730.79155077","121","580134.175709","587033.552507","587800.21568","588566.689947","589333.491012","575466.844627","576233.654658","577000.282585","580900.685841","581667.206485","582433.618299","583200.307443","583966.786348","584733.412111","585500.266972","586266.754843","588576.342983","Mapping"
"Blocked","m150","ball","3","m150ball.wav","None","732.531892136","121","580134.175709","587033.552507","587800.21568","588566.689947","589333.491012","590100.266725","576233.654658","577000.282585","580900.685841","581667.206485","582433.618299","583200.307443","583966.786348","584733.412111","585500.266972","586266.754843","589342.755725","Mapping"
"Blocked","m150","ball","3","m150bluff.wav","space","446.226112021","121","580134.175709","587033.552507","587800.21568","588566.689947","589333.491012","590100.266725","590866.65195","577000.282585","580900.685841","581667.206485","582433.618299","583200.307443","583966.786348","584733.412111","585500.266972","586266.754843","590109.638412","Mapping"
"Blocked","m150","ball","3","m150greet.wav","None","733.807853831","121","580134.175709","587033.552507","587800.21568","588566.689947","589333.491012","590100.266725","590866.65195","591633.369538","580900.685841","581667.206485","582433.618299","583200.307443","583966.786348","584733.412111","585500.266972","586266.754843","590875.688492","Mapping"
"Blocked","m150","tile","17","m150jolt.wav","None","734.46113884","121","594767.036346","587033.552507","587800.21568","588566.689947","589333.491012","590100.266725","590866.65195","591633.369538","580900.685841","581667.206485","582433.618299","583200.307443","583966.786348","584733.412111","585500.266972","586266.754843","591642.812644","Mapping"
"Blocked","m150","tile","17","m150tile.wav","None","722.784558486","121","594767.036346","587033.552507","587800.21568","588566.689947","589333.491012","590100.266725","590866.65195","591633.369538","595533.467639","581667.206485","582433.618299","583200.307443","583966.786348","584733.412111","585500.266972","586266.754843","594777.243731","Mapping"
"Blocked","m150","tile","17","m150cave.wav","space","636.988111946","121","594767.036346","587033.552507","587800.21568","588566.689947","589333.491012","590100.266725","590866.65195","591633.369538","595533.467639","596300.203467","582433.618299","583200.307443","583966.786348","584733.412111","585500.266972","586266.754843","595542.795114","Mapping"
"Blocked","m150","tile","17","m150ball.wav","None","724.864063901","121","594767.036346","587033.552507","587800.21568","588566.689947","589333.491012","590100.266725","590866.65195","591633.369538","595533.467639","596300.203467","597066.592403","583200.307443","583966.786348","584733.412111","585500.266972","586266.754843","596309.435408","Mapping"
"Blocked","m150","tile","17","m150greet.wav","None","725.903507322","121","594767.036346","587033.552507","587800.21568","588566.689947","589333.491012","590100.266725","590866.65195","591633.369538","595533.467639","596300.203467","597066.592403","597833.368425","583966.786348","584733.412111","585500.266972","586266.754843","597076.238637","Mapping"
"Blocked","m150","tile","17","m150gnash.wav","None","727.271603013","121","594767.036346","587033.552507","587800.21568","588566.689947","589333.491012","590100.266725","590866.65195","591633.369538","595533.467639","596300.203467","597066.592403","597833.368425","598600.06808","584733.412111","585500.266972","586266.754843","597842.987451","Mapping"
"Blocked","m150","tile","17","m150tile.wav","None","728.616819717","121","594767.036346","587033.552507","587800.21568","588566.689947","589333.491012","590100.266725","590866.65195","591633.369538","595533.467639","596300.203467","597066.592403","597833.368425","598600.06808","599366.851213","585500.266972","586266.754843","598609.590644","Mapping"
"Blocked","m150","tile","17","m150greet.wav","space","427.367416094","121","594767.036346","587033.552507","587800.21568","588566.689947","589333.491012","590100.266725","590866.65195","591633.369538","595533.467639","596300.203467","597066.592403","597833.368425","598600.06808","599366.851213","600133.333519","586266.754843","599376.359864","Mapping"
"Blocked","m150","tile","17","m150park.wav","None","729.753034771","121","594767.036346","587033.552507","587800.21568","588566.689947","589333.491012","590100.266725","590866.65195","591633.369538","595533.467639","596300.203467","597066.592403","597833.368425","598600.06808","599366.851213","600133.333519","600899.733894","600142.814344","Mapping"
"Blocked","m150","tile","17","m150greet.wav","None","732.315161033","121","594767.036346","601666.540214","587800.21568","588566.689947","589333.491012","590100.266725","590866.65195","591633.369538","595533.467639","596300.203467","597066.592403","597833.368425","598600.06808","599366.851213","600133.333519","600899.733894","600908.459098","Mapping"
"Blocked","m150","tile","17","m150cad.wav","None","732.45583527","121","594767.036346","601666.540214","602433.233686","588566.689947","589333.491012","590100.266725","590866.65195","591633.369538","595533.467639","596300.203467","597066.592403","597833.368425","598600.06808","599366.851213","600133.333519","600899.733894","601676.26065","Mapping"
"Blocked","m150","tile","17","m150tile.wav","None","734.355710447","121","594767.036346","601666.540214","602433.233686","603200.008781","589333.491012","590100.266725","590866.65195","591633.369538","595533.467639","596300.203467","597066.592403","597833.368425","598600.06808","599366.851213","600133.333519","600899.733894","602442.801081","Mapping"
"Blocked","m150","tile","17","m150park.wav","space","490.193768695","121","594767.036346","601666.540214","602433.233686","603200.008781","603966.177893","590100.266725","590866.65195","591633.369538","595533.467639","596300.203467","597066.592403","597833.368425","598600.06808","599366.851213","600133.333519","600899.733894","603209.469819","Mapping"
