"Condition","Talker","Target","Trial","current_stimulus","response_response","response_time_response","subject_nr","time_Audio1","time_Audio10","time_Audio11","time_Audio12","time_Audio13","time_Audio14","time_Audio15","time_Audio16","time_Audio2","time_Audio3","time_Audio4","time_Audio5","time_Audio6","time_Audio7","time_Audio8","time_Audio9","time_response","title"
"Blocked","m150","done","21","m150tile.wav","NA","NA","137","96796.5658894","NA","NA","NA","NA","NA","NA","NA","NA","NA","NA","NA","NA","NA","NA","NA","NA","Mapping"
"Blocked","m150","done","21","m150done.wav","None","718.290655874","137","96796.5658894","NA","NA","NA","NA","NA","NA","NA","97563.7726919","NA","NA","NA","NA","NA","NA","NA","96811.3156152","Mapping"
"Blocked","m150","done","21","m150cling.wav","space","503.701885697","137","96796.5658894","NA","NA","NA","NA","NA","NA","NA","97563.7726919","98329.7211598","NA","NA","NA","NA","NA","NA","97573.656959","Mapping"
"Blocked","m150","done","21","m150reek.wav","None","722.997198813","137","96796.5658894","NA","NA","NA","NA","NA","NA","NA","97563.7726919","98329.7211598","99096.4462706","NA","NA","NA","NA","NA","98339.5791473","Mapping"
"Blocked","m150","done","21","m150bluff.wav","None","721.668063663","137","96796.5658894","NA","NA","NA","NA","NA","NA","NA","97563.7726919","98329.7211598","99096.4462706","99863.5559925","NA","NA","NA","NA","99107.4021319","Mapping"
"Blocked","m150","done","21","m150bluff.wav","None","721.580567304","137","96796.5658894","NA","NA","NA","NA","NA","NA","NA","97563.7726919","98329.7211598","99096.4462706","99863.5559925","100612.99152","NA","NA","NA","99873.8771216","Mapping"
"Blocked","m150","done","21","m150ball.wav","None","736.080790404","137","96796.5658894","NA","NA","NA","NA","NA","NA","NA","97563.7726919","98329.7211598","99096.4462706","99863.5559925","100612.99152","101379.205258","NA","NA","100622.463659","Mapping"
"Blocked","m150","done","21","m150bluff.wav","None","736.79930903","137","96796.5658894","NA","NA","NA","NA","NA","NA","NA","97563.7726919","98329.7211598","99096.4462706","99863.5559925","100612.99152","101379.205258","102146.019101","NA","101388.341944","Mapping"
"Blocked","m150","done","21","m150done.wav","None","733.109945431","137","96796.5658894","NA","NA","NA","NA","NA","NA","NA","97563.7726919","98329.7211598","99096.4462706","99863.5559925","100612.99152","101379.205258","102146.019101","102912.718242","102155.353658","Mapping"
"Blocked","m150","done","21","m150dime.wav","space","466.895743739","137","96796.5658894","103679.345653","NA","NA","NA","NA","NA","NA","97563.7726919","98329.7211598","99096.4462706","99863.5559925","100612.99152","101379.205258","102146.019101","102912.718242","102922.382068","Mapping"
"Blocked","m150","done","21","m150romp.wav","None","729.715533089","137","96796.5658894","103679.345653","104446.157951","NA","NA","NA","NA","NA","97563.7726919","98329.7211598","99096.4462706","99863.5559925","100612.99152","101379.205258","102146.019101","102912.718242","103688.232528","Mapping"
"Blocked","m150","done","21","m150done.wav","None","728.664344177","137","96796.5658894","103679.345653","104446.157951","105213.136893","NA","NA","NA","NA","97563.7726919","98329.7211598","99096.4462706","99863.5559925","100612.99152","101379.205258","102146.019101","102912.718242","104455.756851","Mapping"
"Blocked","m150","done","21","m150reek.wav","space","510.81781555","137","96796.5658894","103679.345653","104446.157951","105213.136893","105979.576327","NA","NA","NA","97563.7726919","98329.7211598","99096.4462706","99863.5559925","100612.99152","101379.205258","102146.019101","102912.718242","105222.395703","Mapping"
"Blocked","m150","done","21","m150done.wav","None","721.984966192","137","96796.5658894","103679.345653","104446.157951","105213.136893","105979.576327","106729.642877","NA","NA","97563.7726919","98329.7211598","99096.4462706","99863.5559925","100612.99152","101379.205258","102146.019101","102912.718242","105989.109065","Mapping"
"Blocked","m150","done","21","m150reek.wav","space","553.936965298","137","96796.5658894","103679.345653","104446.157951","105213.136893","105979.576327","106729.642877","107496.214638","NA","97563.7726919","98329.7211598","99096.4462706","99863.5559925","100612.99152","101379.205258","102146.019101","102912.718242","106739.282897","Mapping"
"Blocked","m150","done","21","m150tile.wav","None","730.843396392","137","96796.5658894","103679.345653","104446.157951","105213.136893","105979.576327","106729.642877","107496.214638","108262.704159","97563.7726919","98329.7211598","99096.4462706","99863.5559925","100612.99152","101379.205258","102146.019101","102912.718242","107506.288738","Mapping"
"Blocked","m150","done","24","m150park.wav","None","728.623223957","137","111413.414654","103679.345653","104446.157951","105213.136893","105979.576327","106729.642877","107496.214638","108262.704159","97563.7726919","98329.7211598","99096.4462706","99863.5559925","100612.99152","101379.205258","102146.019101","102912.718242","108271.761078","Mapping"
"Blocked","m150","done","24","m150done.wav","None","723.1592061","137","111413.414654","103679.345653","104446.157951","105213.136893","105979.576327","106729.642877","107496.214638","108262.704159","112179.429285","98329.7211598","99096.4462706","99863.5559925","100612.99152","101379.205258","102146.019101","102912.718242","111423.449179","Mapping"
"Blocked","m150","done","24","m150jolt.wav","space","448.509831913","137","111413.414654","103679.345653","104446.157951","105213.136893","105979.576327","106729.642877","107496.214638","108262.704159","112179.429285","112946.391222","99096.4462706","99863.5559925","100612.99152","101379.205258","102146.019101","102912.718242","112188.58885","Mapping"
"Blocked","m150","done","24","m150dime.wav","None","723.8270198","137","111413.414654","103679.345653","104446.157951","105213.136893","105979.576327","106729.642877","107496.214638","108262.704159","112179.429285","112946.391222","113713.965322","99863.5559925","100612.99152","101379.205258","102146.019101","102912.718242","112955.701046","Mapping"
"Blocked","m150","done","24","m150depth.wav","None","718.926624861","137","111413.414654","103679.345653","104446.157951","105213.136893","105979.576327","106729.642877","107496.214638","108262.704159","112179.429285","112946.391222","113713.965322","114480.081362","100612.99152","101379.205258","102146.019101","102912.718242","113723.708916","Mapping"
"Blocked","m150","done","24","m150tile.wav","None","718.855514657","137","111413.414654","103679.345653","104446.157951","105213.136893","105979.576327","106729.642877","107496.214638","108262.704159","112179.429285","112946.391222","113713.965322","114480.081362","115229.583361","101379.205258","102146.019101","102912.718242","114490.470818","Mapping"
"Blocked","m150","done","24","m150dime.wav","None","733.383254614","137","111413.414654","103679.345653","104446.157951","105213.136893","105979.576327","106729.642877","107496.214638","108262.704159","112179.429285","112946.391222","113713.965322","114480.081362","115229.583361","115996.014139","102146.019101","102912.718242","115239.128156","Mapping"
"Blocked","m150","done","24","m150bluff.wav","None","730.553392321","137","111413.414654","103679.345653","104446.157951","105213.136893","105979.576327","106729.642877","107496.214638","108262.704159","112179.429285","112946.391222","113713.965322","114480.081362","115229.583361","115996.014139","116762.921044","102912.718242","116005.314687","Mapping"
"Blocked","m150","done","24","m150cling.wav","None","726.808995474","137","111413.414654","103679.345653","104446.157951","105213.136893","105979.576327","106729.642877","107496.214638","108262.704159","112179.429285","112946.391222","113713.965322","114480.081362","115229.583361","115996.014139","116762.921044","117530.040968","116772.238906","Mapping"
"Blocked","m150","done","24","m150done.wav","None","721.2423319","137","111413.414654","118296.510393","104446.157951","105213.136893","105979.576327","106729.642877","107496.214638","108262.704159","112179.429285","112946.391222","113713.965322","114480.081362","115229.583361","115996.014139","116762.921044","117530.040968","117540.990646","Mapping"
"Blocked","m150","done","24","m150reek.wav","space","522.806624882","137","111413.414654","118296.510393","119046.02445","105213.136893","105979.576327","106729.642877","107496.214638","108262.704159","112179.429285","112946.391222","113713.965322","114480.081362","115229.583361","115996.014139","116762.921044","117530.040968","118306.169891","Mapping"
"Blocked","m150","done","24","m150jolt.wav","None","732.965252362","137","111413.414654","118296.510393","119046.02445","119812.845713","105979.576327","106729.642877","107496.214638","108262.704159","112179.429285","112946.391222","113713.965322","114480.081362","115229.583361","115996.014139","116762.921044","117530.040968","119055.480203","Mapping"
"Blocked","m150","done","24","m150done.wav","None","729.46046479","137","111413.414654","118296.510393","119046.02445","119812.845713","120579.198889","106729.642877","107496.214638","108262.704159","112179.429285","112946.391222","113713.965322","114480.081362","115229.583361","115996.014139","116762.921044","117530.040968","119822.187382","Mapping"
"Blocked","m150","done","24","m150tile.wav","space","456.488664728","137","111413.414654","118296.510393","119046.02445","119812.845713","120579.198889","121346.421459","107496.214638","108262.704159","112179.429285","112946.391222","113713.965322","114480.081362","115229.583361","115996.014139","116762.921044","117530.040968","120588.46821","Mapping"
"Blocked","m150","done","24","m150done.wav","None","721.393517684","137","111413.414654","118296.510393","119046.02445","119812.845713","120579.198889","121346.421459","122095.842764","108262.704159","112179.429285","112946.391222","113713.965322","114480.081362","115229.583361","115996.014139","116762.921044","117530.040968","121356.222559","Mapping"
"Blocked","m150","done","24","m150gnash.wav","space","475.877534132","137","111413.414654","118296.510393","119046.02445","119812.845713","120579.198889","121346.421459","122095.842764","122862.434003","112179.429285","112946.391222","113713.965322","114480.081362","115229.583361","115996.014139","116762.921044","117530.040968","122105.082405","Mapping"
"Blocked","m150","tile","15","m150cave.wav","None","736.402330454","137","125996.136263","118296.510393","119046.02445","119812.845713","120579.198889","121346.421459","122095.842764","122862.434003","112179.429285","112946.391222","113713.965322","114480.081362","115229.583361","115996.014139","116762.921044","117530.040968","122871.49185","Mapping"
"Blocked","m150","tile","15","m150romp.wav","None","722.831791732","137","125996.136263","118296.510393","119046.02445","119812.845713","120579.198889","121346.421459","122095.842764","122862.434003","126762.486655","112946.391222","113713.965322","114480.081362","115229.583361","115996.014139","116762.921044","117530.040968","126006.45801","Mapping"
"Blocked","m150","tile","15","m150bluff.wav","None","720.990046859","137","125996.136263","118296.510393","119046.02445","119812.845713","120579.198889","121346.421459","122095.842764","122862.434003","126762.486655","127512.611638","113713.965322","114480.081362","115229.583361","115996.014139","116762.921044","117530.040968","126771.596134","Mapping"
"Blocked","m150","tile","15","m150gnash.wav","None","733.95027779","137","125996.136263","118296.510393","119046.02445","119812.845713","120579.198889","121346.421459","122095.842764","122862.434003","126762.486655","127512.611638","128279.294083","114480.081362","115229.583361","115996.014139","116762.921044","117530.040968","127522.089961","Mapping"
"Blocked","m150","tile","15","m150reek.wav","None","730.180220213","137","125996.136263","118296.510393","119046.02445","119812.845713","120579.198889","121346.421459","122095.842764","122862.434003","126762.486655","127512.611638","128279.294083","129045.879757","115229.583361","115996.014139","116762.921044","117530.040968","128289.301401","Mapping"
"Blocked","m150","tile","15","m150reek.wav","None","727.54080873","137","125996.136263","118296.510393","119046.02445","119812.845713","120579.198889","121346.421459","122095.842764","122862.434003","126762.486655","127512.611638","128279.294083","129045.879757","129812.33094","115996.014139","116762.921044","117530.040968","129055.294699","Mapping"
"Blocked","m150","tile","15","m150tile.wav","None","724.776181858","137","125996.136263","118296.510393","119046.02445","119812.845713","120579.198889","121346.421459","122095.842764","122862.434003","126762.486655","127512.611638","128279.294083","129045.879757","129812.33094","130579.130252","116762.921044","117530.040968","129821.501326","Mapping"
"Blocked","m150","tile","15","m150depth.wav","space","608.417301904","137","125996.136263","118296.510393","119046.02445","119812.845713","120579.198889","121346.421459","122095.842764","122862.434003","126762.486655","127512.611638","128279.294083","129045.879757","129812.33094","130579.130252","131329.188764","117530.040968","130588.382879","Mapping"
"Blocked","m150","tile","15","m150cave.wav","None","733.902356122","137","125996.136263","118296.510393","119046.02445","119812.845713","120579.198889","121346.421459","122095.842764","122862.434003","126762.486655","127512.611638","128279.294083","129045.879757","129812.33094","130579.130252","131329.188764","132095.476703","131338.839605","Mapping"
"Blocked","m150","tile","15","m150tile.wav","None","731.46267049","137","125996.136263","132862.236132","119046.02445","119812.845713","120579.198889","121346.421459","122095.842764","122862.434003","126762.486655","127512.611638","128279.294083","129045.879757","129812.33094","130579.130252","131329.188764","132095.476703","132104.657911","Mapping"
"Blocked","m150","tile","15","m150romp.wav","space","549.309260678","137","125996.136263","132862.236132","133629.457466","119812.845713","120579.198889","121346.421459","122095.842764","122862.434003","126762.486655","127512.611638","128279.294083","129045.879757","129812.33094","130579.130252","131329.188764","132095.476703","132871.418576","Mapping"
"Blocked","m150","tile","15","m150tile.wav","None","722.600839101","137","125996.136263","132862.236132","133629.457466","134396.064472","120579.198889","121346.421459","122095.842764","122862.434003","126762.486655","127512.611638","128279.294083","129045.879757","129812.33094","130579.130252","131329.188764","132095.476703","133640.096734","Mapping"
"Blocked","m150","tile","15","m150priest.wav","space","518.939486239","137","125996.136263","132862.236132","133629.457466","134396.064472","135163.020535","121346.421459","122095.842764","122862.434003","126762.486655","127512.611638","128279.294083","129045.879757","129812.33094","130579.130252","131329.188764","132095.476703","134405.744685","Mapping"
"Blocked","m150","tile","15","m150tile.wav","None","720.289151184","137","125996.136263","132862.236132","133629.457466","134396.064472","135163.020535","135912.050427","122095.842764","122862.434003","126762.486655","127512.611638","128279.294083","129045.879757","129812.33094","130579.130252","131329.188764","132095.476703","135172.612943","Mapping"
"Blocked","m150","tile","15","m150bluff.wav","space","531.603838783","137","125996.136263","132862.236132","133629.457466","134396.064472","135163.020535","135912.050427","136679.116247","122862.434003","126762.486655","127512.611638","128279.294083","129045.879757","129812.33094","130579.130252","131329.188764","132095.476703","135921.058189","Mapping"
"Blocked","m150","tile","15","m150done.wav","None","730.587401427","137","125996.136263","132862.236132","133629.457466","134396.064472","135163.020535","135912.050427","136679.116247","137445.885569","126762.486655","127512.611638","128279.294083","129045.879757","129812.33094","130579.130252","131329.188764","132095.476703","136689.212916","Mapping"
"Blocked","m150","cave","7","m150jolt.wav","None","727.786291856","137","140579.517028","132862.236132","133629.457466","134396.064472","135163.020535","135912.050427","136679.116247","137445.885569","126762.486655","127512.611638","128279.294083","129045.879757","129812.33094","130579.130252","131329.188764","132095.476703","137455.270213","Mapping"
"Blocked","m150","cave","7","m150cave.wav","None","719.331641681","137","140579.517028","132862.236132","133629.457466","134396.064472","135163.020535","135912.050427","136679.116247","137445.885569","141329.08179","127512.611638","128279.294083","129045.879757","129812.33094","130579.130252","131329.188764","132095.476703","140589.201879","Mapping"
"Blocked","m150","cave","7","m150reek.wav","space","705.883225892","137","140579.517028","132862.236132","133629.457466","134396.064472","135163.020535","135912.050427","136679.116247","137445.885569","141329.08179","142095.636236","128279.294083","129045.879757","129812.33094","130579.130252","131329.188764","132095.476703","141338.658429","Mapping"
"Blocked","m150","cave","7","m150dime.wav","None","729.176025838","137","140579.517028","132862.236132","133629.457466","134396.064472","135163.020535","135912.050427","136679.116247","137445.885569","141329.08179","142095.636236","142862.350217","129045.879757","129812.33094","130579.130252","131329.188764","132095.476703","142105.672617","Mapping"
"Blocked","m150","cave","7","m150jaw.wav","None","726.696765516","137","140579.517028","132862.236132","133629.457466","134396.064472","135163.020535","135912.050427","136679.116247","137445.885569","141329.08179","142095.636236","142862.350217","143628.6969","129812.33094","130579.130252","131329.188764","132095.476703","142871.513492","Mapping"
"Blocked","m150","cave","7","m150cave.wav","None","727.226070128","137","140579.517028","132862.236132","133629.457466","134396.064472","135163.020535","135912.050427","136679.116247","137445.885569","141329.08179","142095.636236","142862.350217","143628.6969","144395.861037","130579.130252","131329.188764","132095.476703","143637.716101","Mapping"
"Blocked","m150","cave","7","m150jaw.wav","space","622.658747248","137","140579.517028","132862.236132","133629.457466","134396.064472","135163.020535","135912.050427","136679.116247","137445.885569","141329.08179","142095.636236","142862.350217","143628.6969","144395.861037","145162.21112","131329.188764","132095.476703","144405.865572","Mapping"
"Blocked","m150","cave","7","m150tile.wav","None","720.327179413","137","140579.517028","132862.236132","133629.457466","134396.064472","135163.020535","135912.050427","136679.116247","137445.885569","141329.08179","142095.636236","142862.350217","143628.6969","144395.861037","145162.21112","145911.951801","132095.476703","145171.343787","Mapping"
"Blocked","m150","cave","7","m150done.wav","None","734.0801307","137","140579.517028","132862.236132","133629.457466","134396.064472","135163.020535","135912.050427","136679.116247","137445.885569","141329.08179","142095.636236","142862.350217","143628.6969","144395.861037","145162.21112","145911.951801","146678.616005","145921.022015","Mapping"
"Blocked","m150","cave","7","m150jolt.wav","None","730.869676452","137","140579.517028","147445.277116","133629.457466","134396.064472","135163.020535","135912.050427","136679.116247","137445.885569","141329.08179","142095.636236","142862.350217","143628.6969","144395.861037","145162.21112","145911.951801","146678.616005","146687.595322","Mapping"
"Blocked","m150","cave","7","m150romp.wav","None","727.685501799","137","140579.517028","147445.277116","148212.807623","134396.064472","135163.020535","135912.050427","136679.116247","137445.885569","141329.08179","142095.636236","142862.350217","143628.6969","144395.861037","145162.21112","145911.951801","146678.616005","147454.207893","Mapping"
"Blocked","m150","cave","7","m150cave.wav","None","722.872911487","137","140579.517028","147445.277116","148212.807623","148979.335791","135163.020535","135912.050427","136679.116247","137445.885569","141329.08179","142095.636236","142862.350217","143628.6969","144395.861037","145162.21112","145911.951801","146678.616005","148222.424147","Mapping"
"Blocked","m150","cave","7","m150ball.wav","space","639.218373224","137","140579.517028","147445.277116","148212.807623","148979.335791","149728.903025","135912.050427","136679.116247","137445.885569","141329.08179","142095.636236","142862.350217","143628.6969","144395.861037","145162.21112","145911.951801","146678.616005","148989.217275","Mapping"
"Blocked","m150","cave","7","m150cave.wav","None","732.183662709","137","140579.517028","147445.277116","148212.807623","148979.335791","149728.903025","150495.453144","136679.116247","137445.885569","141329.08179","142095.636236","142862.350217","143628.6969","144395.861037","145162.21112","145911.951801","146678.616005","149739.378741","Mapping"
"Blocked","m150","cave","7","m150ball.wav","space","587.007367518","137","140579.517028","147445.277116","148212.807623","148979.335791","149728.903025","150495.453144","151262.239162","137445.885569","141329.08179","142095.636236","142862.350217","143628.6969","144395.861037","145162.21112","145911.951801","146678.616005","150505.368947","Mapping"
"Blocked","m150","cave","7","m150greet.wav","None","726.537541486","137","140579.517028","147445.277116","148212.807623","148979.335791","149728.903025","150495.453144","151262.239162","152028.912022","141329.08179","142095.636236","142862.350217","143628.6969","144395.861037","145162.21112","145911.951801","146678.616005","151271.400273","Mapping"
"Blocked","m150","cave","12","m150dime.wav","None","726.479417179","137","155145.874717","147445.277116","148212.807623","148979.335791","149728.903025","150495.453144","151262.239162","152028.912022","141329.08179","142095.636236","142862.350217","143628.6969","144395.861037","145162.21112","145911.951801","146678.616005","152038.360046","Mapping"
"Blocked","m150","cave","12","m150cave.wav","None","719.66709476","137","155145.874717","147445.277116","148212.807623","148979.335791","149728.903025","150495.453144","151262.239162","152028.912022","155894.994269","142095.636236","142862.350217","143628.6969","144395.861037","145162.21112","145911.951801","146678.616005","155155.649846","Mapping"
"Blocked","m150","cave","12","m150priest.wav","None","734.622420743","137","155145.874717","147445.277116","148212.807623","148979.335791","149728.903025","150495.453144","151262.239162","152028.912022","155894.994269","156661.815533","142862.350217","143628.6969","144395.861037","145162.21112","145911.951801","146678.616005","155904.16311","Mapping"
"Blocked","m150","cave","12","m150park.wav","space","157.358956058","137","155145.874717","147445.277116","148212.807623","148979.335791","149728.903025","150495.453144","151262.239162","152028.912022","155894.994269","156661.815533","157428.540025","143628.6969","144395.861037","145162.21112","145911.951801","146678.616005","156670.923157","Mapping"
"Blocked","m150","cave","12","m150cave.wav","None","726.02926055","137","155145.874717","147445.277116","148212.807623","148979.335791","149728.903025","150495.453144","151262.239162","152028.912022","155894.994269","156661.815533","157428.540025","158195.649438","144395.861037","145162.21112","145911.951801","146678.616005","157439.174965","Mapping"
"Blocked","m150","cave","12","m150dime.wav","space","507.91653432","137","155145.874717","147445.277116","148212.807623","148979.335791","149728.903025","150495.453144","151262.239162","152028.912022","155894.994269","156661.815533","157428.540025","158195.649438","158961.845244","145162.21112","145911.951801","146678.616005","158200.350108","Mapping"
"Blocked","m150","cave","12","m150reek.wav","None","720.597396605","137","155145.874717","147445.277116","148212.807623","148979.335791","149728.903025","150495.453144","151262.239162","152028.912022","155894.994269","156661.815533","157428.540025","158195.649438","158961.845244","159711.68146","145911.951801","146678.616005","158970.962144","Mapping"
"Blocked","m150","cave","12","m150cave.wav","None","734.217713121","137","155145.874717","147445.277116","148212.807623","148979.335791","149728.903025","150495.453144","151262.239162","152028.912022","155894.994269","156661.815533","157428.540025","158195.649438","158961.845244","159711.68146","160478.628866","146678.616005","159720.762495","Mapping"
"Blocked","m150","cave","12","m150tile.wav","space","436.234418768","137","155145.874717","147445.277116","148212.807623","148979.335791","149728.903025","150495.453144","151262.239162","152028.912022","155894.994269","156661.815533","157428.540025","158195.649438","158961.845244","159711.68146","160478.628866","161245.288432","160487.989394","Mapping"
"Blocked","m150","cave","12","m150bluff.wav","None","726.417273283","137","155145.874717","162012.498017","148212.807623","148979.335791","149728.903025","150495.453144","151262.239162","152028.912022","155894.994269","156661.815533","157428.540025","158195.649438","158961.845244","159711.68146","160478.628866","161245.288432","161255.122304","Mapping"
"Blocked","m150","cave","12","m150jaw.wav","None","722.83086367","137","155145.874717","162012.498017","162779.286508","148979.335791","149728.903025","150495.453144","151262.239162","152028.912022","155894.994269","156661.815533","157428.540025","158195.649438","158961.845244","159711.68146","160478.628866","161245.288432","162022.123198","Mapping"
"Blocked","m150","cave","12","m150ball.wav","None","719.64390669","137","155145.874717","162012.498017","162779.286508","163528.698848","149728.903025","150495.453144","151262.239162","152028.912022","155894.994269","156661.815533","157428.540025","158195.649438","158961.845244","159711.68146","160478.628866","161245.288432","162788.84027","Mapping"
"Blocked","m150","cave","12","m150jolt.wav","None","733.405823819","137","155145.874717","162012.498017","162779.286508","163528.698848","164294.896509","150495.453144","151262.239162","152028.912022","155894.994269","156661.815533","157428.540025","158195.649438","158961.845244","159711.68146","160478.628866","161245.288432","163538.563637","Mapping"
"Blocked","m150","cave","12","m150cave.wav","None","731.539036147","137","155145.874717","162012.498017","162779.286508","163528.698848","164294.896509","165062.034984","151262.239162","152028.912022","155894.994269","156661.815533","157428.540025","158195.649438","158961.845244","159711.68146","160478.628866","161245.288432","164304.046799","Mapping"
"Blocked","m150","cave","12","m150cad.wav","space","604.933848139","137","155145.874717","162012.498017","162779.286508","163528.698848","164294.896509","165062.034984","165828.680946","152028.912022","155894.994269","156661.815533","157428.540025","158195.649438","158961.845244","159711.68146","160478.628866","161245.288432","165071.227631","Mapping"
"Blocked","m150","cave","12","m150cad.wav","None","729.216217995","137","155145.874717","162012.498017","162779.286508","163528.698848","164294.896509","165062.034984","165828.680946","166595.19551","155894.994269","156661.815533","157428.540025","158195.649438","158961.845244","159711.68146","160478.628866","161245.288432","165837.869574","Mapping"
"Blocked","m150","ball","2","m150depth.wav","None","725.715140812","137","169712.247247","162012.498017","162779.286508","163528.698848","164294.896509","165062.034984","165828.680946","166595.19551","155894.994269","156661.815533","157428.540025","158195.649438","158961.845244","159711.68146","160478.628866","161245.288432","166604.809869","Mapping"
"Blocked","m150","ball","2","m150jaw.wav","None","719.481281936","137","169712.247247","162012.498017","162779.286508","163528.698848","164294.896509","165062.034984","165828.680946","166595.19551","170461.402354","156661.815533","157428.540025","158195.649438","158961.845244","159711.68146","160478.628866","161245.288432","169722.564975","Mapping"
"Blocked","m150","ball","2","m150cling.wav","None","735.141213518","137","169712.247247","162012.498017","162779.286508","163528.698848","164294.896509","165062.034984","165828.680946","166595.19551","170461.402354","171228.63018","157428.540025","158195.649438","158961.845244","159711.68146","160478.628866","161245.288432","170470.479679","Mapping"
"Blocked","m150","ball","2","m150lash.wav","None","731.194308493","137","169712.247247","162012.498017","162779.286508","163528.698848","164294.896509","165062.034984","165828.680946","166595.19551","170461.402354","171228.63018","171995.057557","158195.649438","158961.845244","159711.68146","160478.628866","161245.288432","171238.015751","Mapping"
"Blocked","m150","ball","2","m150cad.wav","None","732.627635356","137","169712.247247","162012.498017","162779.286508","163528.698848","164294.896509","165062.034984","165828.680946","166595.19551","170461.402354","171228.63018","171995.057557","172761.493281","158961.845244","159711.68146","160478.628866","161245.288432","172004.411901","Mapping"
"Blocked","m150","ball","2","m150ball.wav","None","729.799937457","137","169712.247247","162012.498017","162779.286508","163528.698848","164294.896509","165062.034984","165828.680946","166595.19551","170461.402354","171228.63018","171995.057557","172761.493281","173528.571468","159711.68146","160478.628866","161245.288432","172770.807124","Mapping"
"Blocked","m150","ball","2","m150done.wav","space","441.531483084","137","169712.247247","162012.498017","162779.286508","163528.698848","164294.896509","165062.034984","165828.680946","166595.19551","170461.402354","171228.63018","171995.057557","172761.493281","173528.571468","174295.409427","160478.628866","161245.288432","173538.452335","Mapping"
"Blocked","m150","ball","2","m150ball.wav","None","721.959922928","137","169712.247247","162012.498017","162779.286508","163528.698848","164294.896509","165062.034984","165828.680946","166595.19551","170461.402354","171228.63018","171995.057557","172761.493281","173528.571468","174295.409427","175062.312622","161245.288432","174305.342544","Mapping"
"Blocked","m150","ball","2","m150gnash.wav","space","443.245848641","137","169712.247247","162012.498017","162779.286508","163528.698848","164294.896509","165062.034984","165828.680946","166595.19551","170461.402354","171228.63018","171995.057557","172761.493281","173528.571468","174295.409427","175062.312622","175811.774119","175072.760512","Mapping"
"Blocked","m150","ball","2","m150ball.wav","None","733.002043795","137","169712.247247","176578.291775","162779.286508","163528.698848","164294.896509","165062.034984","165828.680946","166595.19551","170461.402354","171228.63018","171995.057557","172761.493281","173528.571468","174295.409427","175062.312622","175811.774119","175821.026746","Mapping"
"Blocked","m150","ball","2","m150tile.wav","space","488.609286491","137","169712.247247","176578.291775","177344.668138","163528.698848","164294.896509","165062.034984","165828.680946","166595.19551","170461.402354","171228.63018","171995.057557","172761.493281","173528.571468","174295.409427","175062.312622","175811.774119","176587.325816","Mapping"
"Blocked","m150","ball","2","m150greet.wav","None","729.30804221","137","169712.247247","176578.291775","177344.668138","178111.808777","164294.896509","165062.034984","165828.680946","166595.19551","170461.402354","171228.63018","171995.057557","172761.493281","173528.571468","174295.409427","175062.312622","175811.774119","177353.789675","Mapping"
"Blocked","m150","ball","2","m150lash.wav","None","725.312597584","137","169712.247247","176578.291775","177344.668138","178111.808777","178878.22286","165062.034984","165828.680946","166595.19551","170461.402354","171228.63018","171995.057557","172761.493281","173528.571468","174295.409427","175062.312622","175811.774119","178121.477551","Mapping"
"Blocked","m150","ball","2","m150ball.wav","None","723.652028013","137","169712.247247","176578.291775","177344.668138","178111.808777","178878.22286","179645.313413","165828.680946","166595.19551","170461.402354","171228.63018","171995.057557","172761.493281","173528.571468","174295.409427","175062.312622","175811.774119","178887.284108","Mapping"
"Blocked","m150","ball","2","m150gnash.wav","space","500.499469228","137","169712.247247","176578.291775","177344.668138","178111.808777","178878.22286","179645.313413","180394.890232","166595.19551","170461.402354","171228.63018","171995.057557","172761.493281","173528.571468","174295.409427","175062.312622","175811.774119","179655.386585","Mapping"
"Blocked","m150","ball","2","m150tile.wav","None","733.617298305","137","169712.247247","176578.291775","177344.668138","178111.808777","178878.22286","179645.313413","180394.890232","181161.721699","170461.402354","171228.63018","171995.057557","172761.493281","173528.571468","174295.409427","175062.312622","175811.774119","180404.211186","Mapping"
"Blocked","m150","done","23","m150dime.wav","None","730.194441974","137","184295.242164","176578.291775","177344.668138","178111.808777","178878.22286","179645.313413","180394.890232","181161.721699","170461.402354","171228.63018","171995.057557","172761.493281","173528.571468","174295.409427","175062.312622","175811.774119","181171.283808","Mapping"
"Blocked","m150","done","23","m150priest.wav","None","719.842395745","137","184295.242164","176578.291775","177344.668138","178111.808777","178878.22286","179645.313413","180394.890232","181161.721699","185044.866596","171228.63018","171995.057557","172761.493281","173528.571468","174295.409427","175062.312622","175811.774119","184304.986686","Mapping"
"Blocked","m150","done","23","m150done.wav","None","733.672022354","137","184295.242164","176578.291775","177344.668138","178111.808777","178878.22286","179645.313413","180394.890232","181161.721699","185044.866596","185811.368484","171995.057557","172761.493281","173528.571468","174295.409427","175062.312622","175811.774119","185054.567524","Mapping"
"Blocked","m150","done","23","m150jaw.wav","space","439.330788329","137","184295.242164","176578.291775","177344.668138","178111.808777","178878.22286","179645.313413","180394.890232","181161.721699","185044.866596","185811.368484","186578.279717","172761.493281","173528.571468","174295.409427","175062.312622","175811.774119","185820.463741","Mapping"
"Blocked","m150","done","23","m150priest.wav","None","727.231017314","137","184295.242164","176578.291775","177344.668138","178111.808777","178878.22286","179645.313413","180394.890232","181161.721699","185044.866596","185811.368484","186578.279717","187345.061716","173528.571468","174295.409427","175062.312622","175811.774119","186587.72434","Mapping"
"Blocked","m150","done","23","m150romp.wav","None","723.733340856","137","184295.242164","176578.291775","177344.668138","178111.808777","178878.22286","179645.313413","180394.890232","181161.721699","185044.866596","185811.368484","186578.279717","187345.061716","188112.022416","174295.409427","175062.312622","175811.774119","187354.881984","Mapping"
"Blocked","m150","done","23","m150done.wav","None","720.49908014","137","184295.242164","176578.291775","177344.668138","178111.808777","178878.22286","179645.313413","180394.890232","181161.721699","185044.866596","185811.368484","186578.279717","187345.061716","188112.022416","188878.572226","175062.312622","175811.774119","188121.766009","Mapping"
"Blocked","m150","done","23","m150knife.wav","space","480.313241947","137","184295.242164","176578.291775","177344.668138","178111.808777","178878.22286","179645.313413","180394.890232","181161.721699","185044.866596","185811.368484","186578.279717","187345.061716","188112.022416","188878.572226","189645.03052","175811.774119","188883.429337","Mapping"
"Blocked","m150","done","23","m150dime.wav","None","721.409595106","137","184295.242164","176578.291775","177344.668138","178111.808777","178878.22286","179645.313413","180394.890232","181161.721699","185044.866596","185811.368484","186578.279717","187345.061716","188112.022416","188878.572226","189645.03052","190394.573639","189654.634985","Mapping"
"Blocked","m150","done","23","m150greet.wav","space","471.902803052","137","184295.242164","191161.584735","177344.668138","178111.808777","178878.22286","179645.313413","180394.890232","181161.721699","185044.866596","185811.368484","186578.279717","187345.061716","188112.022416","188878.572226","189645.03052","190394.573639","190403.799986","Mapping"
"Blocked","m150","done","23","m150dime.wav","None","731.938178651","137","184295.242164","191161.584735","191928.09868","178111.808777","178878.22286","179645.313413","180394.890232","181161.721699","185044.866596","185811.368484","186578.279717","187345.061716","188112.022416","188878.572226","189645.03052","190394.573639","191170.823449","Mapping"
"Blocked","m150","done","23","m150done.wav","None","728.415769059","137","184295.242164","191161.584735","191928.09868","192694.479063","178878.22286","179645.313413","180394.890232","181161.721699","185044.866596","185811.368484","186578.279717","187345.061716","188112.022416","188878.572226","189645.03052","190394.573639","191938.004899","Mapping"
"Blocked","m150","done","23","m150cave.wav","space","387.109270785","137","184295.242164","191161.584735","191928.09868","192694.479063","193461.946499","179645.313413","180394.890232","181161.721699","185044.866596","185811.368484","186578.279717","187345.061716","188112.022416","188878.572226","189645.03052","190394.573639","192704.564293","Mapping"
"Blocked","m150","done","23","m150bluff.wav","None","721.178951673","137","184295.242164","191161.584735","191928.09868","192694.479063","193461.946499","194212.066226","180394.890232","181161.721699","185044.866596","185811.368484","186578.279717","187345.061716","188112.022416","188878.572226","189645.03052","190394.573639","193472.031419","Mapping"
"Blocked","m150","done","23","m150done.wav","None","735.604663845","137","184295.242164","191161.584735","191928.09868","192694.479063","193461.946499","194212.066226","194977.805693","181161.721699","185044.866596","185811.368484","186578.279717","187345.061716","188112.022416","188878.572226","189645.03052","190394.573639","194221.437575","Mapping"
"Blocked","m150","done","23","m150depth.wav","space","528.443161398","137","184295.242164","191161.584735","191928.09868","192694.479063","193461.946499","194212.066226","194977.805693","195744.401569","185044.866596","185811.368484","186578.279717","187345.061716","188112.022416","188878.572226","189645.03052","190394.573639","194987.187244","Mapping"
"Blocked","m150","tile","18","m150greet.wav","None","730.425703805","137","198878.406509","191161.584735","191928.09868","192694.479063","193461.946499","194212.066226","194977.805693","195744.401569","185044.866596","185811.368484","186578.279717","187345.061716","188112.022416","188878.572226","189645.03052","190394.573639","195753.415204","Mapping"
"Blocked","m150","tile","18","m150tile.wav","None","719.451600686","137","198878.406509","191161.584735","191928.09868","192694.479063","193461.946499","194212.066226","194977.805693","195744.401569","199627.996623","185811.368484","186578.279717","187345.061716","188112.022416","188878.572226","189645.03052","190394.573639","198888.52111","Mapping"
"Blocked","m150","tile","18","m150cad.wav","space","597.559757996","137","198878.406509","191161.584735","191928.09868","192694.479063","193461.946499","194212.066226","194977.805693","195744.401569","199627.996623","200394.594354","186578.279717","187345.061716","188112.022416","188878.572226","189645.03052","190394.573639","199637.984463","Mapping"
"Blocked","m150","tile","18","m150tile.wav","None","730.93120195","137","198878.406509","191161.584735","191928.09868","192694.479063","193461.946499","194212.066226","194977.805693","195744.401569","199627.996623","200394.594354","201161.290711","187345.061716","188112.022416","188878.572226","189645.03052","190394.573639","200403.993219","Mapping"
"Blocked","m150","tile","18","m150dime.wav","space","600.98168673","137","198878.406509","191161.584735","191928.09868","192694.479063","193461.946499","194212.066226","194977.805693","195744.401569","199627.996623","200394.594354","201161.290711","201927.66522","188112.022416","188878.572226","189645.03052","190394.573639","201170.505","Mapping"
"Blocked","m150","tile","18","m150reek.wav","None","725.243033376","137","198878.406509","191161.584735","191928.09868","192694.479063","193461.946499","194212.066226","194977.805693","195744.401569","199627.996623","200394.594354","201161.290711","201927.66522","202694.340244","188878.572226","189645.03052","190394.573639","201936.611765","Mapping"
"Blocked","m150","tile","18","m150cave.wav","None","722.550753038","137","198878.406509","191161.584735","191928.09868","192694.479063","193461.946499","194212.066226","194977.805693","195744.401569","199627.996623","200394.594354","201161.290711","201927.66522","202694.340244","203444.749048","189645.03052","190394.573639","202703.414478","Mapping"
"Blocked","m150","tile","18","m150tile.wav","None","735.634035431","137","198878.406509","191161.584735","191928.09868","192694.479063","193461.946499","194212.066226","194977.805693","195744.401569","199627.996623","200394.594354","201161.290711","201927.66522","202694.340244","203444.749048","204211.288037","190394.573639","203454.194908","Mapping"
"Blocked","m150","tile","18","m150cad.wav","space","566.976344679","137","198878.406509","191161.584735","191928.09868","192694.479063","193461.946499","194212.066226","194977.805693","195744.401569","199627.996623","200394.594354","201161.290711","201927.66522","202694.340244","203444.749048","204211.288037","204977.840629","204220.455332","Mapping"
"Blocked","m150","tile","18","m150bluff.wav","None","729.902891442","137","198878.406509","205744.222867","191928.09868","192694.479063","193461.946499","194212.066226","194977.805693","195744.401569","199627.996623","200394.594354","201161.290711","201927.66522","202694.340244","203444.749048","204211.288037","204977.840629","204987.185698","Mapping"
"Blocked","m150","tile","18","m150tile.wav","None","727.231326047","137","198878.406509","205744.222867","206511.028672","192694.479063","193461.946499","194212.066226","194977.805693","195744.401569","199627.996623","200394.594354","201161.290711","201927.66522","202694.340244","203444.749048","204211.288037","204977.840629","205753.712629","Mapping"
"Blocked","m150","tile","18","m150knife.wav","space","539.33409648","137","198878.406509","205744.222867","206511.028672","207278.537537","193461.946499","194212.066226","194977.805693","195744.401569","199627.996623","200394.594354","201161.290711","201927.66522","202694.340244","203444.749048","204211.288037","204977.840629","206520.045399","Mapping"
"Blocked","m150","tile","18","m150ball.wav","None","719.86712981","137","198878.406509","205744.222867","206511.028672","207278.537537","208027.588452","194212.066226","194977.805693","195744.401569","199627.996623","200394.594354","201161.290711","201927.66522","202694.340244","203444.749048","204211.288037","204977.840629","207288.371099","Mapping"
"Blocked","m150","tile","18","m150romp.wav","None","735.458424781","137","198878.406509","205744.222867","206511.028672","207278.537537","208027.588452","208794.098687","194977.805693","195744.401569","199627.996623","200394.594354","201161.290711","201927.66522","202694.340244","203444.749048","204211.288037","204977.840629","208036.812325","Mapping"
"Blocked","m150","tile","18","m150greet.wav","None","732.846529689","137","198878.406509","205744.222867","206511.028672","207278.537537","208027.588452","208794.098687","209561.256022","195744.401569","199627.996623","200394.594354","201161.290711","201927.66522","202694.340244","203444.749048","204211.288037","204977.840629","208803.250214","Mapping"
"Blocked","m150","tile","18","m150lash.wav","None","729.463556781","137","198878.406509","205744.222867","206511.028672","207278.537537","208027.588452","208794.098687","209561.256022","210327.504388","199627.996623","200394.594354","201161.290711","201927.66522","202694.340244","203444.749048","204211.288037","204977.840629","209570.535547","Mapping"
"Blocked","m150","cave","9","m150jolt.wav","None","727.482683957","137","213444.475121","205744.222867","206511.028672","207278.537537","208027.588452","208794.098687","209561.256022","210327.504388","199627.996623","200394.594354","201161.290711","201927.66522","202694.340244","203444.749048","204211.288037","204977.840629","210336.371785","Mapping"
"Blocked","m150","cave","9","m150depth.wav","None","719.114292879","137","213444.475121","205744.222867","206511.028672","207278.537537","208027.588452","208794.098687","209561.256022","210327.504388","214193.865818","200394.594354","201161.290711","201927.66522","202694.340244","203444.749048","204211.288037","204977.840629","213455.175296","Mapping"
"Blocked","m150","cave","9","m150cad.wav","None","735.023108777","137","213444.475121","205744.222867","206511.028672","207278.537537","208027.588452","208794.098687","209561.256022","210327.504388","214193.865818","214960.82621","201161.290711","201927.66522","202694.340244","203444.749048","204211.288037","204977.840629","214203.092783","Mapping"
"Blocked","m150","cave","9","m150tile.wav","None","732.159856241","137","213444.475121","205744.222867","206511.028672","207278.537537","208027.588452","208794.098687","209561.256022","210327.504388","214193.865818","214960.82621","215727.696013","201927.66522","202694.340244","203444.749048","204211.288037","204977.840629","214969.735654","Mapping"
"Blocked","m150","cave","9","m150depth.wav","None","728.5468583","137","213444.475121","205744.222867","206511.028672","207278.537537","208027.588452","208794.098687","209561.256022","210327.504388","214193.865818","214960.82621","215727.696013","216493.966021","202694.340244","203444.749048","204211.288037","204977.840629","215737.125177","Mapping"
"Blocked","m150","cave","9","m150cave.wav","None","726.501677651","137","213444.475121","205744.222867","206511.028672","207278.537537","208027.588452","208794.098687","209561.256022","210327.504388","214193.865818","214960.82621","215727.696013","216493.966021","217260.851902","203444.749048","204211.288037","204977.840629","216503.060351","Mapping"
"Blocked","m150","cave","9","m150bluff.wav","space","613.083034754","137","213444.475121","205744.222867","206511.028672","207278.537537","208027.588452","208794.098687","209561.256022","210327.504388","214193.865818","214960.82621","215727.696013","216493.966021","217260.851902","218010.658128","204211.288037","204977.840629","217270.098345","Mapping"
"Blocked","m150","cave","9","m150cave.wav","None","736.644104123","137","213444.475121","205744.222867","206511.028672","207278.537537","208027.588452","208794.098687","209561.256022","210327.504388","214193.865818","214960.82621","215727.696013","216493.966021","217260.851902","218010.658128","218777.335935","204977.840629","218019.709792","Mapping"
"Blocked","m150","cave","9","m150cad.wav","space","504.861902911","137","213444.475121","205744.222867","206511.028672","207278.537537","208027.588452","208794.098687","209561.256022","210327.504388","214193.865818","214960.82621","215727.696013","216493.966021","217260.851902","218010.658128","218777.335935","219543.925937","218786.350807","Mapping"
"Blocked","m150","cave","9","m150greet.wav","None","730.208045337","137","213444.475121","220311.40172","206511.028672","207278.537537","208027.588452","208794.098687","209561.256022","210327.504388","214193.865818","214960.82621","215727.696013","216493.966021","217260.851902","218010.658128","218777.335935","219543.925937","219553.024595","Mapping"
"Blocked","m150","cave","9","m150lash.wav","None","726.001744624","137","213444.475121","220311.40172","221077.894332","207278.537537","208027.588452","208794.098687","209561.256022","210327.504388","214193.865818","214960.82621","215727.696013","216493.966021","217260.851902","218010.658128","218777.335935","219543.925937","220320.810479","Mapping"
"Blocked","m150","cave","9","m150greet.wav","None","723.444573116","137","213444.475121","220311.40172","221077.894332","221844.377361","208027.588452","208794.098687","209561.256022","210327.504388","214193.865818","214960.82621","215727.696013","216493.966021","217260.851902","218010.658128","218777.335935","219543.925937","221087.395225","Mapping"
"Blocked","m150","cave","9","m150cave.wav","None","720.835151151","137","213444.475121","220311.40172","221077.894332","221844.377361","222594.022816","208794.098687","209561.256022","210327.504388","214193.865818","214960.82621","215727.696013","216493.966021","217260.851902","218010.658128","218777.335935","219543.925937","221853.915354","Mapping"
"Blocked","m150","cave","9","m150knife.wav","space","679.903092794","137","213444.475121","220311.40172","221077.894332","221844.377361","222594.022816","223360.969295","209561.256022","210327.504388","214193.865818","214960.82621","215727.696013","216493.966021","217260.851902","218010.658128","218777.335935","219543.925937","222603.200314","Mapping"
"Blocked","m150","cave","9","m150cave.wav","None","731.316122226","137","213444.475121","220311.40172","221077.894332","221844.377361","222594.022816","223360.969295","224127.694096","210327.504388","214193.865818","214960.82621","215727.696013","216493.966021","217260.851902","218010.658128","218777.335935","219543.925937","223370.184202","Mapping"
"Blocked","m150","cave","9","m150jaw.wav","None","728.409585077","137","213444.475121","220311.40172","221077.894332","221844.377361","222594.022816","223360.969295","224127.694096","224893.801479","214193.865818","214960.82621","215727.696013","216493.966021","217260.851902","218010.658128","218777.335935","219543.925937","224137.076267","Mapping"
"Blocked","m150","tile","13","m150jolt.wav","space","0.0185505487025","137","228011.177229","220311.40172","221077.894332","221844.377361","222594.022816","223360.969295","224127.694096","224893.801479","214193.865818","214960.82621","215727.696013","216493.966021","217260.851902","218010.658128","218777.335935","219543.925937","224902.890862","Mapping"
"Blocked","m150","tile","13","m150park.wav","None","720.344493166","137","228011.177229","220311.40172","221077.894332","221844.377361","222594.022816","223360.969295","224127.694096","224893.801479","228760.322134","214960.82621","215727.696013","216493.966021","217260.851902","218010.658128","218777.335935","219543.925937","228020.939682","Mapping"
"Blocked","m150","tile","13","m150cling.wav","None","735.756777227","137","228011.177229","220311.40172","221077.894332","221844.377361","222594.022816","223360.969295","224127.694096","224893.801479","228760.322134","229527.528318","215727.696013","216493.966021","217260.851902","218010.658128","218777.335935","219543.925937","228769.563939","Mapping"
"Blocked","m150","tile","13","m150gnash.wav","None","731.993830297","137","228011.177229","220311.40172","221077.894332","221844.377361","222594.022816","223360.969295","224127.694096","224893.801479","228760.322134","229527.528318","230293.715158","216493.966021","217260.851902","218010.658128","218777.335935","219543.925937","229537.357552","Mapping"
"Blocked","m150","tile","13","m150tile.wav","None","730.755900964","137","228011.177229","220311.40172","221077.894332","221844.377361","222594.022816","223360.969295","224127.694096","224893.801479","228760.322134","229527.528318","230293.715158","231060.477988","217260.851902","218010.658128","218777.335935","219543.925937","230302.587192","Mapping"
"Blocked","m150","tile","13","m150knife.wav","space","533.318513539","137","228011.177229","220311.40172","221077.894332","221844.377361","222594.022816","223360.969295","224127.694096","224893.801479","228760.322134","229527.528318","230293.715158","231060.477988","231828.011277","218010.658128","218777.335935","219543.925937","231069.634152","Mapping"
"Blocked","m150","tile","13","m150greet.wav","None","722.392146941","137","228011.177229","220311.40172","221077.894332","221844.377361","222594.022816","223360.969295","224127.694096","224893.801479","228760.322134","229527.528318","230293.715158","231060.477988","231828.011277","232593.885234","218777.335935","219543.925937","231838.072392","Mapping"
"Blocked","m150","tile","13","m150jaw.wav","None","721.451024059","137","228011.177229","220311.40172","221077.894332","221844.377361","222594.022816","223360.969295","224127.694096","224893.801479","228760.322134","229527.528318","230293.715158","231060.477988","231828.011277","232593.885234","233343.714339","219543.925937","232603.038616","Mapping"
"Blocked","m150","tile","13","m150lash.wav","None","735.649803188","137","228011.177229","220311.40172","221077.894332","221844.377361","222594.022816","223360.969295","224127.694096","224893.801479","228760.322134","229527.528318","230293.715158","231060.477988","231828.011277","232593.885234","233343.714339","234110.396783","233352.735085","Mapping"
"Blocked","m150","tile","13","m150lash.wav","None","732.857969124","137","228011.177229","234877.444671","221077.894332","221844.377361","222594.022816","223360.969295","224127.694096","224893.801479","228760.322134","229527.528318","230293.715158","231060.477988","231828.011277","232593.885234","233343.714339","234110.396783","234119.501934","Mapping"
"Blocked","m150","tile","13","m150tile.wav","None","729.854351841","137","228011.177229","234877.444671","235643.939448","221844.377361","222594.022816","223360.969295","224127.694096","224893.801479","228760.322134","229527.528318","230293.715158","231060.477988","231828.011277","232593.885234","233343.714339","234110.396783","234887.029349","Mapping"
"Blocked","m150","tile","13","m150gnash.wav","space","517.742677126","137","228011.177229","234877.444671","235643.939448","236411.205302","222594.022816","223360.969295","224127.694096","224893.801479","228760.322134","229527.528318","230293.715158","231060.477988","231828.011277","232593.885234","233343.714339","234110.396783","235653.14879","Mapping"
"Blocked","m150","tile","13","m150tile.wav","None","723.591120914","137","228011.177229","234877.444671","235643.939448","236411.205302","237177.773972","223360.969295","224127.694096","224893.801479","228760.322134","229527.528318","230293.715158","231060.477988","231828.011277","232593.885234","233343.714339","234110.396783","236420.727837","Mapping"
"Blocked","m150","tile","13","m150greet.wav","space","519.289779477","137","228011.177229","234877.444671","235643.939448","236411.205302","237177.773972","237927.228049","224127.694096","224893.801479","228760.322134","229527.528318","230293.715158","231060.477988","231828.011277","232593.885234","233343.714339","234110.396783","237187.574762","Mapping"
"Blocked","m150","tile","13","m150tile.wav","None","734.196380246","137","228011.177229","234877.444671","235643.939448","236411.205302","237177.773972","237927.228049","238693.910803","224893.801479","228760.322134","229527.528318","230293.715158","231060.477988","231828.011277","232593.885234","233343.714339","234110.396783","237937.087582","Mapping"
"Blocked","m150","tile","13","m150park.wav","space","491.633309051","137","228011.177229","234877.444671","235643.939448","236411.205302","237177.773972","237927.228049","238693.910803","239460.69342","228760.322134","229527.528318","230293.715158","231060.477988","231828.011277","232593.885234","233343.714339","234110.396783","238703.148589","Mapping"
"Blocked","m150","ball","1","m150dime.wav","None","728.608383331","137","242594.094235","234877.444671","235643.939448","236411.205302","237177.773972","237927.228049","238693.910803","239460.69342","228760.322134","229527.528318","230293.715158","231060.477988","231828.011277","232593.885234","233343.714339","234110.396783","239469.788368","Mapping"
"Blocked","m150","ball","1","m150tile.wav","None","720.040576067","137","242594.094235","234877.444671","235643.939448","236411.205302","237177.773972","237927.228049","238693.910803","239460.69342","243343.48555","229527.528318","230293.715158","231060.477988","231828.011277","232593.885234","233343.714339","234110.396783","242603.685715","Mapping"
"Blocked","m150","ball","1","m150depth.wav","None","735.086799134","137","242594.094235","234877.444671","235643.939448","236411.205302","237177.773972","237927.228049","238693.910803","239460.69342","243343.48555","244110.681223","230293.715158","231060.477988","231828.011277","232593.885234","233343.714339","234110.396783","243352.578952","Mapping"
"Blocked","m150","ball","1","m150ball.wav","None","731.670744251","137","242594.094235","234877.444671","235643.939448","236411.205302","237177.773972","237927.228049","238693.910803","239460.69342","243343.48555","244110.681223","244877.210627","231060.477988","231828.011277","232593.885234","233343.714339","234110.396783","244119.915299","Mapping"
"Blocked","m150","ball","1","m150gnash.wav","space","579.903803766","137","242594.094235","234877.444671","235643.939448","236411.205302","237177.773972","237927.228049","238693.910803","239460.69342","243343.48555","244110.681223","244877.210627","245643.655627","231828.011277","232593.885234","233343.714339","234110.396783","244886.817875","Mapping"
"Blocked","m150","ball","1","m150lash.wav","None","725.993396714","137","242594.094235","234877.444671","235643.939448","236411.205302","237177.773972","237927.228049","238693.910803","239460.69342","243343.48555","244110.681223","244877.210627","245643.655627","246410.763185","232593.885234","233343.714339","234110.396783","245653.251435","Mapping"
"Blocked","m150","ball","1","m150ball.wav","None","722.523545846","137","242594.094235","234877.444671","235643.939448","236411.205302","237177.773972","237927.228049","238693.910803","239460.69342","243343.48555","244110.681223","244877.210627","245643.655627","246410.763185","247177.435118","233343.714339","234110.396783","246420.694755","Mapping"
"Blocked","m150","ball","1","m150cling.wav","space","511.453475803","137","242594.094235","234877.444671","235643.939448","236411.205302","237177.773972","237927.228049","238693.910803","239460.69342","243343.48555","244110.681223","244877.210627","245643.655627","246410.763185","247177.435118","247927.105926","234110.396783","247187.226323","Mapping"
"Blocked","m150","ball","1","m150ball.wav","None","733.910394367","137","242594.094235","234877.444671","235643.939448","236411.205302","237177.773972","237927.228049","238693.910803","239460.69342","243343.48555","244110.681223","244877.210627","245643.655627","246410.763185","247177.435118","247927.105926","248693.819288","247936.369682","Mapping"
"Blocked","m150","ball","1","m150bluff.wav","space","538.806956261","137","242594.094235","249460.536051","235643.939448","236411.205302","237177.773972","237927.228049","238693.910803","239460.69342","243343.48555","244110.681223","244877.210627","245643.655627","246410.763185","247177.435118","247927.105926","248693.819288","248703.847011","Mapping"
"Blocked","m150","ball","1","m150priest.wav","None","727.846581023","137","242594.094235","249460.536051","250226.77174","236411.205302","237177.773972","237927.228049","238693.910803","239460.69342","243343.48555","244110.681223","244877.210627","245643.655627","246410.763185","247177.435118","247927.105926","248693.819288","249469.557106","Mapping"
"Blocked","m150","ball","1","m150reek.wav","None","725.833245087","137","242594.094235","249460.536051","250226.77174","250993.994001","237177.773972","237927.228049","238693.910803","239460.69342","243343.48555","244110.681223","244877.210627","245643.655627","246410.763185","247177.435118","247927.105926","248693.819288","250235.636045","Mapping"
"Blocked","m150","ball","1","m150bluff.wav","None","721.672701184","137","242594.094235","249460.536051","250226.77174","250993.994001","251760.897196","237927.228049","238693.910803","239460.69342","243343.48555","244110.681223","244877.210627","245643.655627","246410.763185","247177.435118","247927.105926","248693.819288","251003.885689","Mapping"
"Blocked","m150","ball","1","m150ball.wav","None","718.695981428","137","242594.094235","249460.536051","250226.77174","250993.994001","251760.897196","252510.326848","238693.910803","239460.69342","243343.48555","244110.681223","244877.210627","245643.655627","246410.763185","247177.435118","247927.105926","248693.819288","251770.927393","Mapping"
"Blocked","m150","ball","1","m150gnash.wav","space","442.956153303","137","242594.094235","249460.536051","250226.77174","250993.994001","251760.897196","252510.326848","253277.176865","239460.69342","243343.48555","244110.681223","244877.210627","245643.655627","246410.763185","247177.435118","247927.105926","248693.819288","252519.594933","Mapping"
"Blocked","m150","ball","1","m150knife.wav","None","730.021304917","137","242594.094235","249460.536051","250226.77174","250993.994001","251760.897196","252510.326848","253277.176865","254043.65","243343.48555","244110.681223","244877.210627","245643.655627","246410.763185","247177.435118","247927.105926","248693.819288","253286.944574","Mapping"
"Blocked","m150","done","20","m150reek.wav","None","728.079079185","137","257177.321651","249460.536051","250226.77174","250993.994001","251760.897196","252510.326848","253277.176865","254043.65","243343.48555","244110.681223","244877.210627","245643.655627","246410.763185","247177.435118","247927.105926","248693.819288","254052.991668","Mapping"
"Blocked","m150","done","20","m150done.wav","None","719.052458182","137","257177.321651","249460.536051","250226.77174","250993.994001","251760.897196","252510.326848","253277.176865","254043.65","257926.892287","244110.681223","244877.210627","245643.655627","246410.763185","247177.435118","247927.105926","248693.819288","257187.434706","Mapping"
"Blocked","m150","done","20","m150reek.wav","space","586.442198604","137","257177.321651","249460.536051","250226.77174","250993.994001","251760.897196","252510.326848","253277.176865","254043.65","257926.892287","258693.920696","244877.210627","245643.655627","246410.763185","247177.435118","247927.105926","248693.819288","257936.057108","Mapping"
"Blocked","m150","done","20","m150done.wav","None","730.28441146","137","257177.321651","249460.536051","250226.77174","250993.994001","251760.897196","252510.326848","253277.176865","254043.65","257926.892287","258693.920696","259460.262123","245643.655627","246410.763185","247177.435118","247927.105926","248693.819288","258703.35388","Mapping"
"Blocked","m150","done","20","m150reek.wav","space","524.257265497","137","257177.321651","249460.536051","250226.77174","250993.994001","251760.897196","252510.326848","253277.176865","254043.65","257926.892287","258693.920696","259460.262123","260226.580671","246410.763185","247177.435118","247927.105926","248693.819288","259470.190602","Mapping"
"Blocked","m150","done","20","m150depth.wav","None","725.414624438","137","257177.321651","249460.536051","250226.77174","250993.994001","251760.897196","252510.326848","253277.176865","254043.65","257926.892287","258693.920696","259460.262123","260226.580671","260993.43378","247177.435118","247927.105926","248693.819288","260235.456106","Mapping"
"Blocked","m150","done","20","m150cave.wav","None","722.55353583","137","257177.321651","249460.536051","250226.77174","250993.994001","251760.897196","252510.326848","253277.176865","254043.65","257926.892287","258693.920696","259460.262123","260226.580671","260993.43378","261760.580603","247927.105926","248693.819288","261002.414952","Mapping"
"Blocked","m150","done","20","m150done.wav","None","718.441841193","137","257177.321651","249460.536051","250226.77174","250993.994001","251760.897196","252510.326848","253277.176865","254043.65","257926.892287","258693.920696","259460.262123","260226.580671","260993.43378","261760.580603","262510.295004","248693.819288","261770.838351","Mapping"
"Blocked","m150","done","20","m150lash.wav","space","506.891315803","137","257177.321651","249460.536051","250226.77174","250993.994001","251760.897196","252510.326848","253277.176865","254043.65","257926.892287","258693.920696","259460.262123","260226.580671","260993.43378","261760.580603","262510.295004","263276.829664","262519.502491","Mapping"
"Blocked","m150","done","20","m150depth.wav","None","730.208355002","137","257177.321651","264043.401734","250226.77174","250993.994001","251760.897196","252510.326848","253277.176865","254043.65","257926.892287","258693.920696","259460.262123","260226.580671","260993.43378","261760.580603","262510.295004","263276.829664","263286.123719","Mapping"
"Blocked","m150","done","20","m150knife.wav","None","727.540190332","137","257177.321651","264043.401734","264809.840859","250993.994001","251760.897196","252510.326848","253277.176865","254043.65","257926.892287","258693.920696","259460.262123","260226.580671","260993.43378","261760.580603","262510.295004","263276.829664","264053.247972","Mapping"
"Blocked","m150","done","20","m150cling.wav","None","725.921668578","137","257177.321651","264043.401734","264809.840859","265577.222963","251760.897196","252510.326848","253277.176865","254043.65","257926.892287","258693.920696","259460.262123","260226.580671","260993.43378","261760.580603","262510.295004","263276.829664","264818.998569","Mapping"
"Blocked","m150","done","20","m150done.wav","None","722.258275375","137","257177.321651","264043.401734","264809.840859","265577.222963","266343.791323","252510.326848","253277.176865","254043.65","257926.892287","258693.920696","259460.262123","260226.580671","260993.43378","261760.580603","262510.295004","263276.829664","265587.069511","Mapping"
"Blocked","m150","done","20","m150knife.wav","space","529.129526112","137","257177.321651","264043.401734","264809.840859","265577.222963","266343.791323","267093.227159","253277.176865","254043.65","257926.892287","258693.920696","259460.262123","260226.580671","260993.43378","261760.580603","262510.295004","263276.829664","266353.229762","Mapping"
"Blocked","m150","done","20","m150depth.wav","None","734.258523677","137","257177.321651","264043.401734","264809.840859","265577.222963","266343.791323","267093.227159","267860.09047","254043.65","257926.892287","258693.920696","259460.262123","260226.580671","260993.43378","261760.580603","262510.295004","263276.829664","267102.314378","Mapping"
"Blocked","m150","done","20","m150ball.wav","None","736.534966156","137","257177.321651","264043.401734","264809.840859","265577.222963","266343.791323","267093.227159","267860.09047","268626.474563","257926.892287","258693.920696","259460.262123","260226.580671","260993.43378","261760.580603","262510.295004","263276.829664","267864.123325","Mapping"
"Blocked","m150","ball","6","m150romp.wav","None","729.16056728","137","271759.897639","264043.401734","264809.840859","265577.222963","266343.791323","267093.227159","267860.09047","268626.474563","257926.892287","258693.920696","259460.262123","260226.580671","260993.43378","261760.580603","262510.295004","263276.829664","268635.64835","Mapping"
"Blocked","m150","ball","6","m150park.wav","None","723.054086789","137","271759.897639","264043.401734","264809.840859","265577.222963","266343.791323","267093.227159","267860.09047","268626.474563","272526.540509","258693.920696","259460.262123","260226.580671","260993.43378","261760.580603","262510.295004","263276.829664","271769.042364","Mapping"
"Blocked","m150","ball","6","m150romp.wav","None","720.637280028","137","271759.897639","264043.401734","264809.840859","265577.222963","266343.791323","267093.227159","267860.09047","268626.474563","272526.540509","273276.661164","259460.262123","260226.580671","260993.43378","261760.580603","262510.295004","263276.829664","272535.680597","Mapping"
"Blocked","m150","ball","6","m150ball.wav","None","734.491021838","137","271759.897639","264043.401734","264809.840859","265577.222963","266343.791323","267093.227159","267860.09047","268626.474563","272526.540509","273276.661164","274043.189332","260226.580671","260993.43378","261760.580603","262510.295004","263276.829664","273286.000359","Mapping"
"Blocked","m150","ball","6","m150cad.wav","space","549.381298013","137","271759.897639","264043.401734","264809.840859","265577.222963","266343.791323","267093.227159","267860.09047","268626.474563","272526.540509","273276.661164","274043.189332","274809.662776","260993.43378","261760.580603","262510.295004","263276.829664","274052.818531","Mapping"
"Blocked","m150","ball","6","m150ball.wav","None","729.093167","137","271759.897639","264043.401734","264809.840859","265577.222963","266343.791323","267093.227159","267860.09047","268626.474563","272526.540509","273276.661164","274043.189332","274809.662776","275576.670779","261760.580603","262510.295004","263276.829664","274818.680739","Mapping"
"Blocked","m150","ball","6","m150cling.wav","space","543.923463672","137","271759.897639","264043.401734","264809.840859","265577.222963","266343.791323","267093.227159","267860.09047","268626.474563","272526.540509","273276.661164","274043.189332","274809.662776","275576.670779","276343.510594","262510.295004","263276.829664","275586.235362","Mapping"
"Blocked","m150","ball","6","m150romp.wav","None","721.62292432","137","271759.897639","264043.401734","264809.840859","265577.222963","266343.791323","267093.227159","267860.09047","268626.474563","272526.540509","273276.661164","274043.189332","274809.662776","275576.670779","276343.510594","277110.024539","263276.829664","276353.600152","Mapping"
"Blocked","m150","ball","6","m150ball.wav","None","718.980420846","137","271759.897639","264043.401734","264809.840859","265577.222963","266343.791323","267093.227159","267860.09047","268626.474563","272526.540509","273276.661164","274043.189332","274809.662776","275576.670779","276343.510594","277110.024539","277859.718535","277120.402556","Mapping"
"Blocked","m150","ball","6","m150park.wav","space","509.001423139","137","271759.897639","278626.512591","264809.840859","265577.222963","266343.791323","267093.227159","267860.09047","268626.474563","272526.540509","273276.661164","274043.189332","274809.662776","275576.670779","276343.510594","277110.024539","277859.718535","277869.120492","Mapping"
"Blocked","m150","ball","6","m150cave.wav","None","731.542128138","137","271759.897639","278626.512591","279393.001184","265577.222963","266343.791323","267093.227159","267860.09047","268626.474563","272526.540509","273276.661164","274043.189332","274809.662776","275576.670779","276343.510594","277110.024539","277859.718535","278635.864153","Mapping"
"Blocked","m150","ball","6","m150ball.wav","None","729.036897887","137","271759.897639","278626.512591","279393.001184","280160.039487","266343.791323","267093.227159","267860.09047","268626.474563","272526.540509","273276.661164","274043.189332","274809.662776","275576.670779","276343.510594","277110.024539","277859.718535","279402.624509","Mapping"
"Blocked","m150","ball","6","m150jaw.wav","space","520.836573094","137","271759.897639","278626.512591","279393.001184","280160.039487","280927.03698","267093.227159","267860.09047","268626.474563","272526.540509","273276.661164","274043.189332","274809.662776","275576.670779","276343.510594","277110.024539","277859.718535","280169.249757","Mapping"
"Blocked","m150","ball","6","m150dime.wav","None","721.715366933","137","271759.897639","278626.512591","279393.001184","280160.039487","280927.03698","281693.089639","267860.09047","268626.474563","272526.540509","273276.661164","274043.189332","274809.662776","275576.670779","276343.510594","277110.024539","277859.718535","280937.469411","Mapping"
"Blocked","m150","ball","6","m150jolt.wav","None","721.074142028","137","271759.897639","278626.512591","279393.001184","280160.039487","280927.03698","281693.089639","282442.948115","268626.474563","272526.540509","273276.661164","274043.189332","274809.662776","275576.670779","276343.510594","277110.024539","277859.718535","281702.306401","Mapping"
"Blocked","m150","ball","6","m150lash.wav","None","735.460898373","137","271759.897639","278626.512591","279393.001184","280160.039487","280927.03698","281693.089639","282442.948115","283209.820701","272526.540509","273276.661164","274043.189332","274809.662776","275576.670779","276343.510594","277110.024539","277859.718535","282452.18621","Mapping"
"Blocked","m150","tile","16","m150park.wav","None","732.090292033","137","286343.767826","278626.512591","279393.001184","280160.039487","280927.03698","281693.089639","282442.948115","283209.820701","272526.540509","273276.661164","274043.189332","274809.662776","275576.670779","276343.510594","277110.024539","277859.718535","283219.922626","Mapping"
"Blocked","m150","tile","16","m150depth.wav","None","725.086591672","137","286343.767826","278626.512591","279393.001184","280160.039487","280927.03698","281693.089639","282442.948115","283209.820701","287092.848731","273276.661164","274043.189332","274809.662776","275576.670779","276343.510594","277110.024539","277859.718535","286347.888486","Mapping"
"Blocked","m150","tile","16","m150depth.wav","None","734.790610615","137","286343.767826","278626.512591","279393.001184","280160.039487","280927.03698","281693.089639","282442.948115","283209.820701","287092.848731","287859.920116","274043.189332","274809.662776","275576.670779","276343.510594","277110.024539","277859.718535","287102.516268","Mapping"
"Blocked","m150","tile","16","m150gnash.wav","None","733.149210457","137","286343.767826","278626.512591","279393.001184","280160.039487","280927.03698","281693.089639","282442.948115","283209.820701","287092.848731","287859.920116","288626.512591","274809.662776","275576.670779","276343.510594","277110.024539","277859.718535","287869.159447","Mapping"
"Blocked","m150","tile","16","m150jolt.wav","None","730.729002971","137","286343.767826","278626.512591","279393.001184","280160.039487","280927.03698","281693.089639","282442.948115","283209.820701","287092.848731","287859.920116","288626.512591","289393.005513","275576.670779","276343.510594","277110.024539","277859.718535","288635.92135","Mapping"
"Blocked","m150","tile","16","m150tile.wav","None","728.327654302","137","286343.767826","278626.512591","279393.001184","280160.039487","280927.03698","281693.089639","282442.948115","283209.820701","287092.848731","287859.920116","288626.512591","289393.005513","290159.748556","276343.510594","277110.024539","277859.718535","289402.370987","Mapping"
"Blocked","m150","tile","16","m150gnash.wav","space","408.955758438","137","286343.767826","278626.512591","279393.001184","280160.039487","280927.03698","281693.089639","282442.948115","283209.820701","287092.848731","287859.920116","288626.512591","289393.005513","290159.748556","290926.23282","277110.024539","277859.718535","290168.958825","Mapping"
"Blocked","m150","tile","16","m150gnash.wav","None","722.888060845","137","286343.767826","278626.512591","279393.001184","280160.039487","280927.03698","281693.089639","282442.948115","283209.820701","287092.848731","287859.920116","288626.512591","289393.005513","290159.748556","290926.23282","291693.20527","277859.718535","290935.399806","Mapping"
"Blocked","m150","tile","16","m150tile.wav","None","719.774068333","137","286343.767826","278626.512591","279393.001184","280160.039487","280927.03698","281693.089639","282442.948115","283209.820701","287092.848731","287859.920116","288626.512591","289393.005513","290159.748556","290926.23282","291693.20527","292442.741278","291703.02461","Mapping"
"Blocked","m150","tile","16","m150gnash.wav","space","462.107578292","137","286343.767826","293209.128153","279393.001184","280160.039487","280927.03698","281693.089639","282442.948115","283209.820701","287092.848731","287859.920116","288626.512591","289393.005513","290159.748556","290926.23282","291693.20527","292442.741278","292451.74842","Mapping"
"Blocked","m150","tile","16","m150tile.wav","None","734.312938526","137","286343.767826","293209.128153","293975.804105","280160.039487","280927.03698","281693.089639","282442.948115","283209.820701","287092.848731","287859.920116","288626.512591","289393.005513","290159.748556","290926.23282","291693.20527","292442.741278","293218.138697","Mapping"
"Blocked","m150","tile","16","m150jolt.wav","space","521.039700136","137","286343.767826","293209.128153","293975.804105","294742.73358","280927.03698","281693.089639","282442.948115","283209.820701","287092.848731","287859.920116","288626.512591","289393.005513","290159.748556","290926.23282","291693.20527","292442.741278","293984.841856","Mapping"
"Blocked","m150","tile","16","m150cling.wav","None","664.979611523","137","286343.767826","293209.128153","293975.804105","294742.73358","295509.285863","281693.089639","282442.948115","283209.820701","287092.848731","287859.920116","288626.512591","289393.005513","290159.748556","290926.23282","291693.20527","292442.741278","294817.36057","Mapping"
"Blocked","m150","tile","16","m150romp.wav","None","728.654141538","137","286343.767826","293209.128153","293975.804105","294742.73358","295509.285863","296275.862261","282442.948115","283209.820701","287092.848731","287859.920116","288626.512591","289393.005513","290159.748556","290926.23282","291693.20527","292442.741278","295518.828493","Mapping"
"Blocked","m150","tile","16","m150tile.wav","None","728.544693906","137","286343.767826","293209.128153","293975.804105","294742.73358","295509.285863","296275.862261","297042.404341","283209.820701","287092.848731","287859.920116","288626.512591","289393.005513","290159.748556","290926.23282","291693.20527","292442.741278","296284.204063","Mapping"
"Blocked","m150","tile","16","m150jolt.wav","space","524.212126154","137","286343.767826","293209.128153","293975.804105","294742.73358","295509.285863","296275.862261","297042.404341","297809.425021","287092.848731","287859.920116","288626.512591","289393.005513","290159.748556","290926.23282","291693.20527","292442.741278","297045.491126","Mapping"
"Blocked","m150","done","22","m150lash.wav","None","723.392322194","137","300926.304239","293209.128153","293975.804105","294742.73358","295509.285863","296275.862261","297042.404341","297809.425021","287092.848731","287859.920116","288626.512591","289393.005513","290159.748556","290926.23282","291693.20527","292442.741278","297818.468956","Mapping"
"Blocked","m150","done","22","m150done.wav","None","719.212919474","137","300926.304239","293209.128153","293975.804105","294742.73358","295509.285863","296275.862261","297042.404341","297809.425021","301675.847668","287859.920116","288626.512591","289393.005513","290159.748556","290926.23282","291693.20527","292442.741278","300936.338765","Mapping"
"Blocked","m150","done","22","m150dime.wav","space","570.62551612","137","300926.304239","293209.128153","293975.804105","294742.73358","295509.285863","296275.862261","297042.404341","297809.425021","301675.847668","302442.451583","288626.512591","289393.005513","290159.748556","290926.23282","291693.20527","292442.741278","301679.058741","Mapping"
"Blocked","m150","done","22","m150done.wav","None","738.810789771","137","300926.304239","293209.128153","293975.804105","294742.73358","295509.285863","296275.862261","297042.404341","297809.425021","301675.847668","302442.451583","303209.148249","289393.005513","290159.748556","290926.23282","291693.20527","292442.741278","302445.724799","Mapping"
"Blocked","m150","done","22","m150romp.wav","None","731.624368113","137","300926.304239","293209.128153","293975.804105","294742.73358","295509.285863","296275.862261","297042.404341","297809.425021","301675.847668","302442.451583","303209.148249","303975.668069","290159.748556","290926.23282","291693.20527","292442.741278","303217.902179","Mapping"
"Blocked","m150","done","22","m150cling.wav","space","9.41123208031","137","300926.304239","293209.128153","293975.804105","294742.73358","295509.285863","296275.862261","297042.404341","297809.425021","301675.847668","302442.451583","303209.148249","303975.668069","304742.242303","290926.23282","291693.20527","292442.741278","303984.25319","Mapping"
"Blocked","m150","done","22","m150park.wav","None","733.504450414","137","300926.304239","293209.128153","293975.804105","294742.73358","295509.285863","296275.862261","297042.404341","297809.425021","301675.847668","302442.451583","303209.148249","303975.668069","304742.242303","305509.027394","291693.20527","292442.741278","304745.482747","Mapping"
"Blocked","m150","done","22","m150tile.wav","None","726.180446334","137","300926.304239","293209.128153","293975.804105","294742.73358","295509.285863","296275.862261","297042.404341","297809.425021","301675.847668","302442.451583","303209.148249","303975.668069","304742.242303","305509.027394","306276.276244","292442.741278","305517.655181","Mapping"
"Blocked","m150","done","22","m150tile.wav","None","723.287513014","137","300926.304239","293209.128153","293975.804105","294742.73358","295509.285863","296275.862261","297042.404341","297809.425021","301675.847668","302442.451583","303209.148249","303975.668069","304742.242303","305509.027394","306276.276244","307042.679814","306285.264527","Mapping"
"Blocked","m150","done","22","m150jolt.wav","None","721.652914304","137","300926.304239","307792.190161","293975.804105","294742.73358","295509.285863","296275.862261","297042.404341","297809.425021","301675.847668","302442.451583","303209.148249","303975.668069","304742.242303","305509.027394","306276.276244","307042.679814","307051.451985","Mapping"
"Blocked","m150","done","22","m150done.wav","None","736.4465422","137","300926.304239","307792.190161","308558.86735","294742.73358","295509.285863","296275.862261","297042.404341","297809.425021","301675.847668","302442.451583","303209.148249","303975.668069","304742.242303","305509.027394","306276.276244","307042.679814","307801.223275","Mapping"
"Blocked","m150","done","22","m150park.wav","space","519.470955245","137","300926.304239","307792.190161","308558.86735","309325.972744","295509.285863","296275.862261","297042.404341","297809.425021","301675.847668","302442.451583","303209.148249","303975.668069","304742.242303","305509.027394","306276.276244","307042.679814","308562.078732","Mapping"
"Blocked","m150","done","22","m150done.wav","None","731.101247482","137","300926.304239","307792.190161","308558.86735","309325.972744","310092.197612","296275.862261","297042.404341","297809.425021","301675.847668","302442.451583","303209.148249","303975.668069","304742.242303","305509.027394","306276.276244","307042.679814","309335.016369","Mapping"
"Blocked","m150","done","22","m150park.wav","space","634.159062989","137","300926.304239","307792.190161","308558.86735","309325.972744","310092.197612","310858.832754","297042.404341","297809.425021","301675.847668","302442.451583","303209.148249","303975.668069","304742.242303","305509.027394","306276.276244","307042.679814","310095.268629","Mapping"
"Blocked","m150","done","22","m150greet.wav","None","728.830369655","137","300926.304239","307792.190161","308558.86735","309325.972744","310092.197612","310858.832754","311625.584144","297809.425021","301675.847668","302442.451583","303209.148249","303975.668069","304742.242303","305509.027394","306276.276244","307042.679814","310867.406436","Mapping"
"Blocked","m150","done","22","m150jolt.wav","None","726.48869222","137","300926.304239","307792.190161","308558.86735","309325.972744","310092.197612","310858.832754","311625.584144","312392.462914","301675.847668","302442.451583","303209.148249","303975.668069","304742.242303","305509.027394","306276.276244","307042.679814","311634.42186","Mapping"
"Blocked","m150","tile","14","m150greet.wav","None","723.981297575","137","315526.138893","307792.190161","308558.86735","309325.972744","310092.197612","310858.832754","311625.584144","312392.462914","301675.847668","302442.451583","303209.148249","303975.668069","304742.242303","305509.027394","306276.276244","307042.679814","312401.458617","Mapping"
"Blocked","m150","tile","14","m150tile.wav","None","719.098215923","137","315526.138893","307792.190161","308558.86735","309325.972744","310092.197612","310858.832754","311625.584144","312392.462914","316275.682013","302442.451583","303209.148249","303975.668069","304742.242303","305509.027394","306276.276244","307042.679814","315536.413646","Mapping"
"Blocked","m150","tile","14","m150cling.wav","space","524.864481762","137","315526.138893","307792.190161","308558.86735","309325.972744","310092.197612","310858.832754","311625.584144","312392.462914","316275.682013","317042.44979","303209.148249","303975.668069","304742.242303","305509.027394","306276.276244","307042.679814","316284.584346","Mapping"
"Blocked","m150","tile","14","m150cad.wav","None","731.74680071","137","315526.138893","307792.190161","308558.86735","309325.972744","310092.197612","310858.832754","311625.584144","312392.462914","316275.682013","317042.44979","317809.319593","303975.668069","304742.242303","305509.027394","306276.276244","307042.679814","317051.409629","Mapping"
"Blocked","m150","tile","14","m150ball.wav","None","729.038443416","137","315526.138893","307792.190161","308558.86735","309325.972744","310092.197612","310858.832754","311625.584144","312392.462914","316275.682013","317042.44979","317809.319593","318575.822408","304742.242303","305509.027394","306276.276244","307042.679814","317818.723405","Mapping"
"Blocked","m150","tile","14","m150tile.wav","None","727.605734486","137","315526.138893","307792.190161","308558.86735","309325.972744","310092.197612","310858.832754","311625.584144","312392.462914","316275.682013","317042.44979","317809.319593","318575.822408","319342.389222","305509.027394","306276.276244","307042.679814","318584.842846","Mapping"
"Blocked","m150","tile","14","m150depth.wav","space","514.083303045","137","315526.138893","307792.190161","308558.86735","309325.972744","310092.197612","310858.832754","311625.584144","312392.462914","316275.682013","317042.44979","317809.319593","318575.822408","319342.389222","320109.617667","306276.276244","307042.679814","319351.306705","Mapping"
"Blocked","m150","tile","14","m150greet.wav","None","721.707637887","137","315526.138893","307792.190161","308558.86735","309325.972744","310092.197612","310858.832754","311625.584144","312392.462914","316275.682013","317042.44979","317809.319593","318575.822408","319342.389222","320109.617667","320876.274759","307042.679814","320119.086096","Mapping"
"Blocked","m150","tile","14","m150ball.wav","None","719.781179447","137","315526.138893","307792.190161","308558.86735","309325.972744","310092.197612","310858.832754","311625.584144","312392.462914","316275.682013","317042.44979","317809.319593","318575.822408","319342.389222","320109.617667","320876.274759","321625.547971","320886.289498","Mapping"
"Blocked","m150","tile","14","m150greet.wav","None","736.172615085","137","315526.138893","322392.103964","308558.86735","309325.972744","310092.197612","310858.832754","311625.584144","312392.462914","316275.682013","317042.44979","317809.319593","318575.822408","319342.389222","320109.617667","320876.274759","321625.547971","321634.525433","Mapping"
"Blocked","m150","tile","14","m150tile.wav","None","734.377864748","137","315526.138893","322392.103964","323159.178131","309325.972744","310092.197612","310858.832754","311625.584144","312392.462914","316275.682013","317042.44979","317809.319593","318575.822408","319342.389222","320109.617667","320876.274759","321625.547971","322400.912927","Mapping"
"Blocked","m150","tile","14","m150depth.wav","space","520.695899148","137","315526.138893","322392.103964","323159.178131","323925.639208","310092.197612","310858.832754","311625.584144","312392.462914","316275.682013","317042.44979","317809.319593","318575.822408","319342.389222","320109.617667","320876.274759","321625.547971","323168.593692","Mapping"
"Blocked","m150","tile","14","m150cave.wav","None","727.945825551","137","315526.138893","322392.103964","323159.178131","323925.639208","324691.998567","310858.832754","311625.584144","312392.462914","316275.682013","317042.44979","317809.319593","318575.822408","319342.389222","320109.617667","320876.274759","321625.547971","323934.800319","Mapping"
"Blocked","m150","tile","14","m150tile.wav","None","726.609269623","137","315526.138893","322392.103964","323159.178131","323925.639208","324691.998567","325458.978436","311625.584144","312392.462914","316275.682013","317042.44979","317809.319593","318575.822408","319342.389222","320109.617667","320876.274759","321625.547971","324700.819587","Mapping"
"Blocked","m150","tile","14","m150priest.wav","space","517.423301004","137","315526.138893","322392.103964","323159.178131","323925.639208","324691.998567","325458.978436","326226.055077","312392.462914","316275.682013","317042.44979","317809.319593","318575.822408","319342.389222","320109.617667","320876.274759","321625.547971","325467.855726","Mapping"
"Blocked","m150","tile","14","m150dime.wav","None","719.723364338","137","315526.138893","322392.103964","323159.178131","323925.639208","324691.998567","325458.978436","326226.055077","326975.294588","316275.682013","317042.44979","317809.319593","318575.822408","319342.389222","320109.617667","320876.274759","321625.547971","326235.613475","Mapping"
"Blocked","m150","ball","4","m150gnash.wav","None","735.832833685","137","330109.189771","322392.103964","323159.178131","323925.639208","324691.998567","325458.978436","326226.055077","326975.294588","316275.682013","317042.44979","317809.319593","318575.822408","319342.389222","320109.617667","320876.274759","321625.547971","326984.081909","Mapping"
"Blocked","m150","ball","4","m150tile.wav","None","719.826627988","137","330109.189771","322392.103964","323159.178131","323925.639208","324691.998567","325458.978436","326226.055077","326975.294588","330858.876038","317042.44979","317809.319593","318575.822408","319342.389222","320109.617667","320876.274759","321625.547971","330119.176993","Mapping"
"Blocked","m150","ball","4","m150ball.wav","None","736.237232108","137","330109.189771","322392.103964","323159.178131","323925.639208","324691.998567","325458.978436","326226.055077","326975.294588","330858.876038","331625.696374","317809.319593","318575.822408","319342.389222","320109.617667","320876.274759","321625.547971","330868.011178","Mapping"
"Blocked","m150","ball","4","m150cling.wav","space","566.077269148","137","330109.189771","322392.103964","323159.178131","323925.639208","324691.998567","325458.978436","326226.055077","326975.294588","330858.876038","331625.696374","332391.871775","318575.822408","319342.389222","320109.617667","320876.274759","321625.547971","331635.093384","Mapping"
"Blocked","m150","ball","4","m150reek.wav","None","736.66976532","137","330109.189771","322392.103964","323159.178131","323925.639208","324691.998567","325458.978436","326226.055077","326975.294588","330858.876038","331625.696374","332391.871775","333158.648208","319342.389222","320109.617667","320876.274759","321625.547971","332395.365123","Mapping"
"Blocked","m150","ball","4","m150jaw.wav","None","729.029477108","137","330109.189771","322392.103964","323159.178131","323925.639208","324691.998567","325458.978436","326226.055077","326975.294588","330858.876038","331625.696374","332391.871775","333158.648208","333925.560987","320109.617667","320876.274759","321625.547971","333167.527663","Mapping"
"Blocked","m150","ball","4","m150ball.wav","None","726.492402609","137","330109.189771","322392.103964","323159.178131","323925.639208","324691.998567","325458.978436","326226.055077","326975.294588","330858.876038","331625.696374","332391.871775","333158.648208","333925.560987","334692.513649","320876.274759","321625.547971","333934.674485","Mapping"
"Blocked","m150","ball","4","m150cad.wav","space","570.839773398","137","330109.189771","322392.103964","323159.178131","323925.639208","324691.998567","325458.978436","326226.055077","326975.294588","330858.876038","331625.696374","332391.871775","333158.648208","333925.560987","334692.513649","335458.78613","321625.547971","334702.227871","Mapping"
"Blocked","m150","ball","4","m150cling.wav","None","723.570405971","137","330109.189771","322392.103964","323159.178131","323925.639208","324691.998567","325458.978436","326226.055077","326975.294588","330858.876038","331625.696374","332391.871775","333158.648208","333925.560987","334692.513649","335458.78613","336225.348925","335467.469878","Mapping"
"Blocked","m150","ball","4","m150ball.wav","None","721.27355868","137","330109.189771","336975.425368","323159.178131","323925.639208","324691.998567","325458.978436","326226.055077","326975.294588","330858.876038","331625.696374","332391.871775","333158.648208","333925.560987","334692.513649","335458.78613","336225.348925","336234.309692","Mapping"
"Blocked","m150","ball","4","m150cad.wav","space","528.388128616","137","330109.189771","336975.425368","337741.790292","323925.639208","324691.998567","325458.978436","326226.055077","326975.294588","330858.876038","331625.696374","332391.871775","333158.648208","333925.560987","334692.513649","335458.78613","336225.348925","336984.675521","Mapping"
"Blocked","m150","ball","4","m150ball.wav","None","732.571056113","137","330109.189771","336975.425368","337741.790292","338508.52406","324691.998567","325458.978436","326226.055077","326975.294588","330858.876038","331625.696374","332391.871775","333158.648208","333925.560987","334692.513649","335458.78613","336225.348925","337750.60111","Mapping"
"Blocked","m150","ball","4","m150jolt.wav","space","499.685106799","137","330109.189771","336975.425368","337741.790292","338508.52406","339276.001079","325458.978436","326226.055077","326975.294588","330858.876038","331625.696374","332391.871775","333158.648208","333925.560987","334692.513649","335458.78613","336225.348925","338517.373833","Mapping"
"Blocked","m150","ball","4","m150knife.wav","None","725.901262835","137","330109.189771","336975.425368","337741.790292","338508.52406","339276.001079","340042.408051","326226.055077","326975.294588","330858.876038","331625.696374","332391.871775","333158.648208","333925.560987","334692.513649","335458.78613","336225.348925","339285.058308","Mapping"
"Blocked","m150","ball","4","m150greet.wav","None","723.30358997","137","330109.189771","336975.425368","337741.790292","338508.52406","339276.001079","340042.408051","340809.259923","326975.294588","330858.876038","331625.696374","332391.871775","333158.648208","333925.560987","334692.513649","335458.78613","336225.348925","340052.316125","Mapping"
"Blocked","m150","ball","4","m150park.wav","None","721.441130619","137","330109.189771","336975.425368","337741.790292","338508.52406","339276.001079","340042.408051","340809.259923","341575.792728","330858.876038","331625.696374","332391.871775","333158.648208","333925.560987","334692.513649","335458.78613","336225.348925","340818.836872","Mapping"
"Blocked","m150","tile","17","m150depth.wav","None","719.698939472","137","344692.151298","336975.425368","337741.790292","338508.52406","339276.001079","340042.408051","340809.259923","341575.792728","330858.876038","331625.696374","332391.871775","333158.648208","333925.560987","334692.513649","335458.78613","336225.348925","341585.396266","Mapping"
"Blocked","m150","tile","17","m150tile.wav","None","720.907806419","137","344692.151298","336975.425368","337741.790292","338508.52406","339276.001079","340042.408051","340809.259923","341575.792728","345442.138699","331625.696374","332391.871775","333158.648208","333925.560987","334692.513649","335458.78613","336225.348925","344701.491421","Mapping"
"Blocked","m150","tile","17","m150priest.wav","space","637.90345937","137","344692.151298","336975.425368","337741.790292","338508.52406","339276.001079","340042.408051","340809.259923","341575.792728","345442.138699","346208.775695","332391.871775","333158.648208","333925.560987","334692.513649","335458.78613","336225.348925","345451.078133","Mapping"
"Blocked","m150","tile","17","m150lash.wav","None","732.508603483","137","344692.151298","336975.425368","337741.790292","338508.52406","339276.001079","340042.408051","340809.259923","341575.792728","345442.138699","346208.775695","346975.347766","333158.648208","333925.560987","334692.513649","335458.78613","336225.348925","346217.840035","Mapping"
"Blocked","m150","tile","17","m150park.wav","None","730.366342235","137","344692.151298","336975.425368","337741.790292","338508.52406","339276.001079","340042.408051","340809.259923","341575.792728","345442.138699","346208.775695","346975.347766","347741.913961","333925.560987","334692.513649","335458.78613","336225.348925","346984.942337","Mapping"
"Blocked","m150","tile","17","m150tile.wav","None","729.205396958","137","344692.151298","336975.425368","337741.790292","338508.52406","339276.001079","340042.408051","340809.259923","341575.792728","345442.138699","346208.775695","346975.347766","347741.913961","348508.374111","334692.513649","335458.78613","336225.348925","347750.904409","Mapping"
"Blocked","m150","tile","17","m150done.wav","space","595.624024514","137","344692.151298","336975.425368","337741.790292","338508.52406","339276.001079","340042.408051","340809.259923","341575.792728","345442.138699","346208.775695","346975.347766","347741.913961","348508.374111","349276.016229","335458.78613","336225.348925","348517.272424","Mapping"
"Blocked","m150","tile","17","m150priest.wav","None","722.117910627","137","344692.151298","336975.425368","337741.790292","338508.52406","339276.001079","340042.408051","340809.259923","341575.792728","345442.138699","346208.775695","346975.347766","347741.913961","348508.374111","349276.016229","350042.405269","336225.348925","349285.832787","Mapping"
"Blocked","m150","tile","17","m150cave.wav","None","720.751983579","137","344692.151298","336975.425368","337741.790292","338508.52406","339276.001079","340042.408051","340809.259923","341575.792728","345442.138699","346208.775695","346975.347766","347741.913961","348508.374111","349276.016229","350042.405269","350808.431648","350052.053946","Mapping"
"Blocked","m150","tile","17","m150tile.wav","None","720.353149809","137","344692.151298","351558.509018","337741.790292","338508.52406","339276.001079","340042.408051","340809.259923","341575.792728","345442.138699","346208.775695","346975.347766","347741.913961","348508.374111","349276.016229","350042.405269","350808.431648","350817.377883","Mapping"
"Blocked","m150","tile","17","m150gnash.wav","space","385.358422995","137","344692.151298","351558.509018","352325.309567","338508.52406","339276.001079","340042.408051","340809.259923","341575.792728","345442.138699","346208.775695","346975.347766","347741.913961","348508.374111","349276.016229","350042.405269","350808.431648","351567.478442","Mapping"
"Blocked","m150","tile","17","m150tile.wav","None","731.107739732","137","344692.151298","351558.509018","352325.309567","353091.511866","339276.001079","340042.408051","340809.259923","341575.792728","345442.138699","346208.775695","346975.347766","347741.913961","348508.374111","349276.016229","350042.405269","350808.431648","352334.701322","Mapping"
"Blocked","m150","tile","17","m150jolt.wav","space","412.450652104","137","344692.151298","351558.509018","352325.309567","353091.511866","353858.611077","340042.408051","340809.259923","341575.792728","345442.138699","346208.775695","346975.347766","347741.913961","348508.374111","349276.016229","350042.405269","350808.431648","353100.311863","Mapping"
