"Condition","Talker","Target","Trial","current_stimulus","response_response","response_time_response","subject_nr","time_Audio1","time_Audio10","time_Audio11","time_Audio12","time_Audio13","time_Audio14","time_Audio15","time_Audio16","time_Audio2","time_Audio3","time_Audio4","time_Audio5","time_Audio6","time_Audio7","time_Audio8","time_Audio9","time_response","title"
"Blocked","m160","ball","1","m160priest.wav","NA","NA","142","122275.586708","NA","NA","NA","NA","NA","NA","NA","NA","NA","NA","NA","NA","NA","NA","NA","NA","Mapping"
"Blocked","m160","ball","1","m160ball.wav","None","717.959110625","142","122275.586708","NA","NA","NA","NA","NA","NA","NA","123043.244194","NA","NA","NA","NA","NA","NA","NA","122289.195954","Mapping"
"Blocked","m160","ball","1","m160cad.wav","space","494.71632624","142","122275.586708","NA","NA","NA","NA","NA","NA","NA","123043.244194","123809.973869","NA","NA","NA","NA","NA","NA","123053.206501","Mapping"
"Blocked","m160","ball","1","m160done.wav","None","725.605751853","142","122275.586708","NA","NA","NA","NA","NA","NA","NA","123043.244194","123809.973869","124576.670463","NA","NA","NA","NA","NA","123814.216266","Mapping"
"Blocked","m160","ball","1","m160gnash.wav","None","723.55999006","142","122275.586708","NA","NA","NA","NA","NA","NA","NA","123043.244194","123809.973869","124576.670463","125344.508813","NA","NA","NA","NA","124585.559649","Mapping"
"Blocked","m160","ball","1","m160ball.wav","None","722.19965281","142","122275.586708","NA","NA","NA","NA","NA","NA","NA","123043.244194","123809.973869","124576.670463","125344.508813","126094.937319","NA","NA","NA","125354.060236","Mapping"
"Blocked","m160","ball","1","m160greet.wav","space","403.127600905","142","122275.586708","NA","NA","NA","NA","NA","NA","NA","123043.244194","123809.973869","124576.670463","125344.508813","126094.937319","126862.367568","NA","NA","126104.692174","Mapping"
"Blocked","m160","ball","1","m160gnash.wav","None","733.947401866","142","122275.586708","NA","NA","NA","NA","NA","NA","NA","123043.244194","123809.973869","124576.670463","125344.508813","126094.937319","126862.367568","127629.407648","NA","126871.512435","Mapping"
"Blocked","m160","ball","1","m160ball.wav","None","729.895452037","142","122275.586708","NA","NA","NA","NA","NA","NA","NA","123043.244194","123809.973869","124576.670463","125344.508813","126094.937319","126862.367568","127629.407648","128396.723195","127638.864155","Mapping"
"Blocked","m160","ball","1","m160tile.wav","space","358.090853319","142","122275.586708","129163.807176","NA","NA","NA","NA","NA","NA","123043.244194","123809.973869","124576.670463","125344.508813","126094.937319","126862.367568","127629.407648","128396.723195","128405.679779","Mapping"
"Blocked","m160","ball","1","m160lash.wav","None","724.769453984","142","122275.586708","129163.807176","129931.265559","NA","NA","NA","NA","NA","123043.244194","123809.973869","124576.670463","125344.508813","126094.937319","126862.367568","127629.407648","128396.723195","129173.290891","Mapping"
"Blocked","m160","ball","1","m160gnash.wav","None","724.048165604","142","122275.586708","129163.807176","129931.265559","130682.21594","NA","NA","NA","NA","123043.244194","123809.973869","124576.670463","125344.508813","126094.937319","126862.367568","127629.407648","128396.723195","129940.540895","Mapping"
"Blocked","m160","ball","1","m160jaw.wav","None","735.96719373","142","122275.586708","129163.807176","129931.265559","130682.21594","131448.846991","NA","NA","NA","123043.244194","123809.973869","124576.670463","125344.508813","126094.937319","126862.367568","127629.407648","128396.723195","130691.655135","Mapping"
"Blocked","m160","ball","1","m160ball.wav","None","735.318869352","142","122275.586708","129163.807176","129931.265559","130682.21594","131448.846991","132216.152026","NA","NA","123043.244194","123809.973869","124576.670463","125344.508813","126094.937319","126862.367568","127629.407648","128396.723195","131458.6037","Mapping"
"Blocked","m160","ball","1","m160depth.wav","space","378.218588885","142","122275.586708","129163.807176","129931.265559","130682.21594","131448.846991","132216.152026","132983.67317","NA","123043.244194","123809.973869","124576.670463","125344.508813","126094.937319","126862.367568","127629.407648","128396.723195","132225.39088","Mapping"
"Blocked","m160","ball","1","m160lash.wav","None","730.336016044","142","122275.586708","129163.807176","129931.265559","130682.21594","131448.846991","132216.152026","132983.67317","133750.723143","123043.244194","123809.973869","124576.670463","125344.508813","126094.937319","126862.367568","127629.407648","128396.723195","132993.419987","Mapping"
"Blocked","m160","tile","18","m160knife.wav","None","726.500791963","142","136902.828018","129163.807176","129931.265559","130682.21594","131448.846991","132216.152026","132983.67317","133750.723143","123043.244194","123809.973869","124576.670463","125344.508813","126094.937319","126862.367568","127629.407648","128396.723195","133760.300845","Mapping"
"Blocked","m160","tile","18","m160done.wav","None","722.416688688","142","136902.828018","129163.807176","129931.265559","130682.21594","131448.846991","132216.152026","132983.67317","133750.723143","137653.508804","123809.973869","124576.670463","125344.508813","126094.937319","126862.367568","127629.407648","128396.723195","136912.103663","Mapping"
"Blocked","m160","tile","18","m160tile.wav","None","734.740416985","142","136902.828018","129163.807176","129931.265559","130682.21594","131448.846991","132216.152026","132983.67317","133750.723143","137653.508804","138420.870727","124576.670463","125344.508813","126094.937319","126862.367568","127629.407648","128396.723195","137663.013852","Mapping"
"Blocked","m160","tile","18","m160gnash.wav","space","508.823642042","142","136902.828018","129163.807176","129931.265559","130682.21594","131448.846991","132216.152026","132983.67317","133750.723143","137653.508804","138420.870727","139188.588502","125344.508813","126094.937319","126862.367568","127629.407648","128396.723195","138430.555092","Mapping"
"Blocked","m160","tile","18","m160gnash.wav","None","726.449779235","142","136902.828018","129163.807176","129931.265559","130682.21594","131448.846991","132216.152026","132983.67317","133750.723143","137653.508804","138420.870727","139188.588502","139955.087538","126094.937319","126862.367568","127629.407648","128396.723195","139198.103134","Mapping"
"Blocked","m160","tile","18","m160greet.wav","None","723.29132352","142","136902.828018","129163.807176","129931.265559","130682.21594","131448.846991","132216.152026","132983.67317","133750.723143","137653.508804","138420.870727","139188.588502","139955.087538","140705.491001","126862.367568","127629.407648","128396.723195","139964.494888","Mapping"
"Blocked","m160","tile","18","m160tile.wav","None","736.050978303","142","136902.828018","129163.807176","129931.265559","130682.21594","131448.846991","132216.152026","132983.67317","133750.723143","137653.508804","138420.870727","139188.588502","139955.087538","140705.491001","141472.854779","127629.407648","128396.723195","140714.968224","Mapping"
"Blocked","m160","tile","18","m160gnash.wav","space","440.810489003","142","136902.828018","129163.807176","129931.265559","130682.21594","131448.846991","132216.152026","132983.67317","133750.723143","137653.508804","138420.870727","139188.588502","139955.087538","140705.491001","141472.854779","142240.605016","128396.723195","141482.472673","Mapping"
"Blocked","m160","tile","18","m160jaw.wav","None","726.965470705","142","136902.828018","129163.807176","129931.265559","130682.21594","131448.846991","132216.152026","132983.67317","133750.723143","137653.508804","138420.870727","139188.588502","139955.087538","140705.491001","141472.854779","142240.605016","143007.099724","142250.275159","Mapping"
"Blocked","m160","tile","18","m160done.wav","None","724.260563962","142","136902.828018","143758.214891","129931.265559","130682.21594","131448.846991","132216.152026","132983.67317","133750.723143","137653.508804","138420.870727","139188.588502","139955.087538","140705.491001","141472.854779","142240.605016","143007.099724","143016.181212","Mapping"
"Blocked","m160","tile","18","m160done.wav","None","735.850946512","142","136902.828018","143758.214891","144525.23302","130682.21594","131448.846991","132216.152026","132983.67317","133750.723143","137653.508804","138420.870727","139188.588502","139955.087538","140705.491001","141472.854779","142240.605016","143007.099724","143767.717465","Mapping"
"Blocked","m160","tile","18","m160romp.wav","None","731.922663283","142","136902.828018","143758.214891","144525.23302","145292.447469","131448.846991","132216.152026","132983.67317","133750.723143","137653.508804","138420.870727","139188.588502","139955.087538","140705.491001","141472.854779","142240.605016","143007.099724","144534.825562","Mapping"
"Blocked","m160","tile","18","m160tile.wav","None","730.805950239","142","136902.828018","143758.214891","144525.23302","145292.447469","146059.701802","132216.152026","132983.67317","133750.723143","137653.508804","138420.870727","139188.588502","139955.087538","140705.491001","141472.854779","142240.605016","143007.099724","145302.507473","Mapping"
"Blocked","m160","tile","18","m160park.wav","space","614.12735004","142","136902.828018","143758.214891","144525.23302","145292.447469","146059.701802","146826.435496","132983.67317","133750.723143","137653.508804","138420.870727","139188.588502","139955.087538","140705.491001","141472.854779","142240.605016","143007.099724","146068.971572","Mapping"
"Blocked","m160","tile","18","m160tile.wav","None","728.195339907","142","136902.828018","143758.214891","144525.23302","145292.447469","146059.701802","146826.435496","147594.090818","133750.723143","137653.508804","138420.870727","139188.588502","139955.087538","140705.491001","141472.854779","142240.605016","143007.099724","146835.553156","Mapping"
"Blocked","m160","tile","18","m160cad.wav","space","479.602670297","142","136902.828018","143758.214891","144525.23302","145292.447469","146059.701802","146826.435496","147594.090818","148344.462747","137653.508804","138420.870727","139188.588502","139955.087538","140705.491001","141472.854779","142240.605016","143007.099724","147603.428297","Mapping"
"Blocked","m160","tile","14","m160greet.wav","None","735.359061044","142","151463.393942","143758.214891","144525.23302","145292.447469","146059.701802","146826.435496","147594.090818","148344.462747","137653.508804","138420.870727","139188.588502","139955.087538","140705.491001","141472.854779","142240.605016","143007.099724","148354.263359","Mapping"
"Blocked","m160","tile","14","m160tile.wav","None","735.909688752","142","151463.393942","143758.214891","144525.23302","145292.447469","146059.701802","146826.435496","147594.090818","148344.462747","152230.92127","138420.870727","139188.588502","139955.087538","140705.491001","141472.854779","142240.605016","143007.099724","151472.638052","Mapping"
"Blocked","m160","tile","14","m160lash.wav","space","450.435802806","142","151463.393942","143758.214891","144525.23302","145292.447469","146059.701802","146826.435496","147594.090818","148344.462747","152230.92127","152998.097692","139188.588502","139955.087538","140705.491001","141472.854779","142240.605016","143007.099724","152240.442703","Mapping"
"Blocked","m160","tile","14","m160tile.wav","None","727.827738971","142","151463.393942","143758.214891","144525.23302","145292.447469","146059.701802","146826.435496","147594.090818","148344.462747","152230.92127","152998.097692","153765.143336","139955.087538","140705.491001","141472.854779","142240.605016","143007.099724","153007.525757","Mapping"
"Blocked","m160","tile","14","m160romp.wav","space","468.230250292","142","151463.393942","143758.214891","144525.23302","145292.447469","146059.701802","146826.435496","147594.090818","148344.462747","152230.92127","152998.097692","153765.143336","154515.874518","140705.491001","141472.854779","142240.605016","143007.099724","153774.590879","Mapping"
"Blocked","m160","tile","14","m160ball.wav","None","736.346851103","142","151463.393942","143758.214891","144525.23302","145292.447469","146059.701802","146826.435496","147594.090818","148344.462747","152230.92127","152998.097692","153765.143336","154515.874518","155283.11772","141472.854779","142240.605016","143007.099724","154525.1885","Mapping"
"Blocked","m160","tile","14","m160jaw.wav","None","732.049422339","142","151463.393942","143758.214891","144525.23302","145292.447469","146059.701802","146826.435496","147594.090818","148344.462747","152230.92127","152998.097692","153765.143336","154515.874518","155283.11772","156050.210667","142240.605016","143007.099724","155292.83362","Mapping"
"Blocked","m160","tile","14","m160greet.wav","None","728.489048779","142","151463.393942","143758.214891","144525.23302","145292.447469","146059.701802","146826.435496","147594.090818","148344.462747","152230.92127","152998.097692","153765.143336","154515.874518","155283.11772","156050.210667","156816.958892","143007.099724","156059.669648","Mapping"
"Blocked","m160","tile","14","m160romp.wav","None","725.973661058","142","151463.393942","143758.214891","144525.23302","145292.447469","146059.701802","146826.435496","147594.090818","148344.462747","152230.92127","152998.097692","153765.143336","154515.874518","155283.11772","156050.210667","156816.958892","157584.579588","156825.690711","Mapping"
"Blocked","m160","tile","14","m160cave.wav","None","720.634028781","142","151463.393942","158351.96408","144525.23302","145292.447469","146059.701802","146826.435496","147594.090818","148344.462747","152230.92127","152998.097692","153765.143336","154515.874518","155283.11772","156050.210667","156816.958892","157584.579588","157594.269208","Mapping"
"Blocked","m160","tile","14","m160bluff.wav","None","720.805307385","142","151463.393942","158351.96408","159119.030129","145292.447469","146059.701802","146826.435496","147594.090818","148344.462747","152230.92127","152998.097692","153765.143336","154515.874518","155283.11772","156050.210667","156816.958892","157584.579588","158361.399255","Mapping"
"Blocked","m160","tile","14","m160gnash.wav","None","722.489651758","142","151463.393942","158351.96408","159119.030129","159869.692366","146059.701802","146826.435496","147594.090818","148344.462747","152230.92127","152998.097692","153765.143336","154515.874518","155283.11772","156050.210667","156816.958892","157584.579588","159128.14779","Mapping"
"Blocked","m160","tile","14","m160tile.wav","None","734.865938779","142","151463.393942","158351.96408","159119.030129","159869.692366","160637.092934","146826.435496","147594.090818","148344.462747","152230.92127","152998.097692","153765.143336","154515.874518","155283.11772","156050.210667","156816.958892","157584.579588","159879.156912","Mapping"
"Blocked","m160","tile","14","m160dime.wav","space","523.991711903","142","151463.393942","158351.96408","159119.030129","159869.692366","160637.092934","161403.676992","147594.090818","148344.462747","152230.92127","152998.097692","153765.143336","154515.874518","155283.11772","156050.210667","156816.958892","157584.579588","160646.571394","Mapping"
"Blocked","m160","tile","14","m160tile.wav","None","731.040299404","142","151463.393942","158351.96408","159119.030129","159869.692366","160637.092934","161403.676992","162171.099511","148344.462747","152230.92127","152998.097692","153765.143336","154515.874518","155283.11772","156050.210667","156816.958892","157584.579588","161413.293958","Mapping"
"Blocked","m160","tile","14","m160greet.wav","space","606.225336436","142","151463.393942","158351.96408","159119.030129","159869.692366","160637.092934","161403.676992","162171.099511","162938.746796","152230.92127","152998.097692","153765.143336","154515.874518","155283.11772","156050.210667","156816.958892","157584.579588","162180.275604","Mapping"
"Blocked","m160","tile","13","m160ball.wav","None","722.378351726","142","166040.62369","158351.96408","159119.030129","159869.692366","160637.092934","161403.676992","162171.099511","162938.746796","152230.92127","152998.097692","153765.143336","154515.874518","155283.11772","156050.210667","156816.958892","157584.579588","162948.215361","Mapping"
"Blocked","m160","tile","13","m160depth.wav","None","735.918345395","142","166040.62369","158351.96408","159119.030129","159869.692366","160637.092934","161403.676992","162171.099511","162938.746796","166807.985922","152998.097692","153765.143336","154515.874518","155283.11772","156050.210667","156816.958892","157584.579588","166050.04959","Mapping"
"Blocked","m160","tile","13","m160depth.wav","None","731.77209869","142","166040.62369","158351.96408","159119.030129","159869.692366","160637.092934","161403.676992","162171.099511","162938.746796","166807.985922","167575.378761","153765.143336","154515.874518","155283.11772","156050.210667","156816.958892","157584.579588","166817.541054","Mapping"
"Blocked","m160","tile","13","m160gnash.wav","None","727.826811839","142","166040.62369","158351.96408","159119.030129","159869.692366","160637.092934","161403.676992","162171.099511","162938.746796","166807.985922","167575.378761","168342.608979","154515.874518","155283.11772","156050.210667","156816.958892","157584.579588","167584.866805","Mapping"
"Blocked","m160","tile","13","m160reek.wav","None","723.734979518","142","166040.62369","158351.96408","159119.030129","159869.692366","160637.092934","161403.676992","162171.099511","162938.746796","166807.985922","167575.378761","168342.608979","169109.727895","155283.11772","156050.210667","156816.958892","157584.579588","168352.308183","Mapping"
"Blocked","m160","tile","13","m160gnash.wav","None","723.684893921","142","166040.62369","158351.96408","159119.030129","159869.692366","160637.092934","161403.676992","162171.099511","162938.746796","166807.985922","167575.378761","168342.608979","169109.727895","169860.088694","156050.210667","156816.958892","157584.579588","169119.055171","Mapping"
"Blocked","m160","tile","13","m160tile.wav","None","737.257968169","142","166040.62369","158351.96408","159119.030129","159869.692366","160637.092934","161403.676992","162171.099511","162938.746796","166807.985922","167575.378761","168342.608979","169109.727895","169860.088694","170627.535638","156816.958892","157584.579588","169868.905225","Mapping"
"Blocked","m160","tile","13","m160priest.wav","space","442.245644983","142","166040.62369","158351.96408","159119.030129","159869.692366","160637.092934","161403.676992","162171.099511","162938.746796","166807.985922","167575.378761","168342.608979","169109.727895","169860.088694","170627.535638","171394.591485","157584.579588","170631.957352","Mapping"
"Blocked","m160","tile","13","m160lash.wav","None","728.812437505","142","166040.62369","158351.96408","159119.030129","159869.692366","160637.092934","161403.676992","162171.099511","162938.746796","166807.985922","167575.378761","168342.608979","169109.727895","169860.088694","170627.535638","171394.591485","172161.544997","171403.613303","Mapping"
"Blocked","m160","tile","13","m160romp.wav","None","725.144164637","142","166040.62369","172929.229691","159119.030129","159869.692366","160637.092934","161403.676992","162171.099511","162938.746796","166807.985922","167575.378761","168342.608979","169109.727895","169860.088694","170627.535638","171394.591485","172161.544997","172170.731293","Mapping"
"Blocked","m160","tile","13","m160tile.wav","None","720.68133112","142","166040.62369","172929.229691","173679.348102","159869.692366","160637.092934","161403.676992","162171.099511","162938.746796","166807.985922","167575.378761","168342.608979","169109.727895","169860.088694","170627.535638","171394.591485","172161.544997","172938.697947","Mapping"
"Blocked","m160","tile","13","m160reek.wav","space","465.74949054","142","166040.62369","172929.229691","173679.348102","174447.052891","160637.092934","161403.676992","162171.099511","162938.746796","166807.985922","167575.378761","168342.608979","169109.727895","169860.088694","170627.535638","171394.591485","172161.544997","173688.356626","Mapping"
"Blocked","m160","tile","13","m160tile.wav","None","729.397692252","142","166040.62369","172929.229691","173679.348102","174447.052891","175213.793078","161403.676992","162171.099511","162938.746796","166807.985922","167575.378761","168342.608979","169109.727895","169860.088694","170627.535638","171394.591485","172161.544997","174456.362545","Mapping"
"Blocked","m160","tile","13","m160romp.wav","space","507.269456983","142","166040.62369","172929.229691","173679.348102","174447.052891","175213.793078","175981.328444","162171.099511","162938.746796","166807.985922","167575.378761","168342.608979","169109.727895","169860.088694","170627.535638","171394.591485","172161.544997","175222.766048","Mapping"
"Blocked","m160","tile","13","m160tile.wav","None","721.21680947","142","166040.62369","172929.229691","173679.348102","174447.052891","175213.793078","175981.328444","176732.028399","162938.746796","166807.985922","167575.378761","168342.608979","169109.727895","169860.088694","170627.535638","171394.591485","172161.544997","175990.714462","Mapping"
"Blocked","m160","tile","13","m160ball.wav","space","540.470651817","142","166040.62369","172929.229691","173679.348102","174447.052891","175213.793078","175981.328444","176732.028399","177499.260471","166807.985922","167575.378761","168342.608979","169109.727895","169860.088694","170627.535638","171394.591485","172161.544997","176741.530973","Mapping"
"Blocked","m160","done","21","m160reek.wav","None","729.108929634","142","180617.973085","172929.229691","173679.348102","174447.052891","175213.793078","175981.328444","176732.028399","177499.260471","166807.985922","167575.378761","168342.608979","169109.727895","169860.088694","170627.535638","171394.591485","172161.544997","177509.041914","Mapping"
"Blocked","m160","done","21","m160done.wav","None","736.023152713","142","180617.973085","172929.229691","173679.348102","174447.052891","175213.793078","175981.328444","176732.028399","177499.260471","181385.036352","167575.378761","168342.608979","169109.727895","169860.088694","170627.535638","171394.591485","172161.544997","180627.225543","Mapping"
"Blocked","m160","done","21","m160tile.wav","space","526.781021617","142","180617.973085","172929.229691","173679.348102","174447.052891","175213.793078","175981.328444","176732.028399","177499.260471","181385.036352","182152.587794","168342.608979","169109.727895","169860.088694","170627.535638","171394.591485","172161.544997","181395.046579","Mapping"
"Blocked","m160","done","21","m160romp.wav","None","727.856182493","142","180617.973085","172929.229691","173679.348102","174447.052891","175213.793078","175981.328444","176732.028399","177499.260471","181385.036352","182152.587794","182919.776274","169109.727895","169860.088694","170627.535638","171394.591485","172161.544997","182161.903631","Mapping"
"Blocked","m160","done","21","m160done.wav","None","723.966545891","142","180617.973085","172929.229691","173679.348102","174447.052891","175213.793078","175981.328444","176732.028399","177499.260471","181385.036352","182152.587794","182919.776274","183687.001854","169860.088694","170627.535638","171394.591485","172161.544997","182929.106951","Mapping"
"Blocked","m160","done","21","m160ball.wav","space","489.338665735","142","180617.973085","172929.229691","173679.348102","174447.052891","175213.793078","175981.328444","176732.028399","177499.260471","181385.036352","182152.587794","182919.776274","183687.001854","184437.52682","170627.535638","171394.591485","172161.544997","183696.407968","Mapping"
"Blocked","m160","done","21","m160dime.wav","None","732.581808697","142","180617.973085","172929.229691","173679.348102","174447.052891","175213.793078","175981.328444","176732.028399","177499.260471","181385.036352","182152.587794","182919.776274","183687.001854","184437.52682","185204.74127","171394.591485","172161.544997","184447.019192","Mapping"
"Blocked","m160","done","21","m160greet.wav","None","728.844900616","142","180617.973085","172929.229691","173679.348102","174447.052891","175213.793078","175981.328444","176732.028399","177499.260471","181385.036352","182152.587794","182919.776274","183687.001854","184437.52682","185204.74127","185972.00024","172161.544997","185214.243535","Mapping"
"Blocked","m160","done","21","m160cling.wav","None","724.939805456","142","180617.973085","172929.229691","173679.348102","174447.052891","175213.793078","175981.328444","176732.028399","177499.260471","181385.036352","182152.587794","182919.776274","183687.001854","184437.52682","185204.74127","185972.00024","186739.176044","185981.458294","Mapping"
"Blocked","m160","done","21","m160jolt.wav","None","724.685669411","142","180617.973085","187506.503031","173679.348102","174447.052891","175213.793078","175981.328444","176732.028399","177499.260471","181385.036352","182152.587794","182919.776274","183687.001854","184437.52682","185204.74127","185972.00024","186739.176044","186748.435303","Mapping"
"Blocked","m160","done","21","m160done.wav","None","723.942121491","142","180617.973085","187506.503031","188273.795081","174447.052891","175213.793078","175981.328444","176732.028399","177499.260471","181385.036352","182152.587794","182919.776274","183687.001854","184437.52682","185204.74127","185972.00024","186739.176044","187515.822577","Mapping"
"Blocked","m160","done","21","m160bluff.wav","space","534.729410429","142","180617.973085","187506.503031","188273.795081","189023.771584","175213.793078","175981.328444","176732.028399","177499.260471","181385.036352","182152.587794","182919.776274","183687.001854","184437.52682","185204.74127","185972.00024","186739.176044","188282.848435","Mapping"
"Blocked","m160","done","21","m160ball.wav","None","734.44237886","142","180617.973085","187506.503031","188273.795081","189023.771584","189791.574689","175981.328444","176732.028399","177499.260471","181385.036352","182152.587794","182919.776274","183687.001854","184437.52682","185204.74127","185972.00024","186739.176044","189032.826793","Mapping"
"Blocked","m160","done","21","m160done.wav","None","729.929769412","142","180617.973085","187506.503031","188273.795081","189023.771584","189791.574689","190558.705973","176732.028399","177499.260471","181385.036352","182152.587794","182919.776274","183687.001854","184437.52682","185204.74127","185972.00024","186739.176044","189800.68864","Mapping"
"Blocked","m160","done","21","m160romp.wav","space","505.32417465","142","180617.973085","187506.503031","188273.795081","189023.771584","189791.574689","190558.705973","191325.55375","177499.260471","181385.036352","182152.587794","182919.776274","183687.001854","184437.52682","185204.74127","185972.00024","186739.176044","190568.151969","Mapping"
"Blocked","m160","done","21","m160cad.wav","None","722.305697389","142","180617.973085","187506.503031","188273.795081","189023.771584","189791.574689","190558.705973","191325.55375","192076.064186","181385.036352","182152.587794","182919.776274","183687.001854","184437.52682","185204.74127","185972.00024","186739.176044","191334.553927","Mapping"
"Blocked","m160","done","24","m160cad.wav","None","735.114509705","142","195195.377512","187506.503031","188273.795081","189023.771584","189791.574689","190558.705973","191325.55375","192076.064186","181385.036352","182152.587794","182919.776274","183687.001854","184437.52682","185204.74127","185972.00024","186739.176044","192085.161132","Mapping"
"Blocked","m160","done","24","m160jaw.wav","None","736.373749096","142","195195.377512","187506.503031","188273.795081","189023.771584","189791.574689","190558.705973","191325.55375","192076.064186","195962.427794","182152.587794","182919.776274","183687.001854","184437.52682","185204.74127","185972.00024","186739.176044","195204.485897","Mapping"
"Blocked","m160","done","24","m160reek.wav","None","732.801318169","142","195195.377512","187506.503031","188273.795081","189023.771584","189791.574689","190558.705973","191325.55375","192076.064186","195962.427794","196730.21915","182919.776274","183687.001854","184437.52682","185204.74127","185972.00024","186739.176044","195971.510518","Mapping"
"Blocked","m160","done","24","m160done.wav","None","728.125158232","142","195195.377512","187506.503031","188273.795081","189023.771584","189791.574689","190558.705973","191325.55375","192076.064186","195962.427794","196730.21915","197497.145456","183687.001854","184437.52682","185204.74127","185972.00024","186739.176044","196739.551992","Mapping"
"Blocked","m160","done","24","m160gnash.wav","space","358.478548937","142","195195.377512","187506.503031","188273.795081","189023.771584","189791.574689","190558.705973","191325.55375","192076.064186","195962.427794","196730.21915","197497.145456","198264.088766","184437.52682","185204.74127","185972.00024","186739.176044","197506.745109","Mapping"
"Blocked","m160","done","24","m160done.wav","None","720.796341542","142","195195.377512","187506.503031","188273.795081","189023.771584","189791.574689","190558.705973","191325.55375","192076.064186","195962.427794","196730.21915","197497.145456","198264.088766","199014.788103","185204.74127","185972.00024","186739.176044","198273.159433","Mapping"
"Blocked","m160","done","24","m160cave.wav","space","577.304256614","142","195195.377512","187506.503031","188273.795081","189023.771584","189791.574689","190558.705973","191325.55375","192076.064186","195962.427794","196730.21915","197497.145456","198264.088766","199014.788103","199782.165793","185972.00024","186739.176044","199023.872373","Mapping"
"Blocked","m160","done","24","m160tile.wav","None","729.037202429","142","195195.377512","187506.503031","188273.795081","189023.771584","189791.574689","190558.705973","191325.55375","192076.064186","195962.427794","196730.21915","197497.145456","198264.088766","199014.788103","199782.165793","200549.257194","186739.176044","199791.154222","Mapping"
"Blocked","m160","done","24","m160jaw.wav","None","724.893739447","142","195195.377512","187506.503031","188273.795081","189023.771584","189791.574689","190558.705973","191325.55375","192076.064186","195962.427794","196730.21915","197497.145456","198264.088766","199014.788103","199782.165793","200549.257194","201316.780502","200558.823766","Mapping"
"Blocked","m160","done","24","m160done.wav","None","720.96112743","142","195195.377512","202067.050096","188273.795081","189023.771584","189791.574689","190558.705973","191325.55375","192076.064186","195962.427794","196730.21915","197497.145456","198264.088766","199014.788103","199782.165793","200549.257194","201316.780502","201326.19249","Mapping"
"Blocked","m160","done","24","m160park.wav","space","396.606947761","142","195195.377512","202067.050096","202833.927554","189023.771584","189791.574689","190558.705973","191325.55375","192076.064186","195962.427794","196730.21915","197497.145456","198264.088766","199014.788103","199782.165793","200549.257194","201316.780502","202076.425912","Mapping"
"Blocked","m160","done","24","m160dime.wav","None","730.658786371","142","195195.377512","202067.050096","202833.927554","203601.528772","189791.574689","190558.705973","191325.55375","192076.064186","195962.427794","196730.21915","197497.145456","198264.088766","199014.788103","199782.165793","200549.257194","201316.780502","202842.723061","Mapping"
"Blocked","m160","done","24","m160reek.wav","None","725.906572305","142","195195.377512","202067.050096","202833.927554","203601.528772","204368.453532","190558.705973","191325.55375","192076.064186","195962.427794","196730.21915","197497.145456","198264.088766","199014.788103","199782.165793","200549.257194","201316.780502","203611.002284","Mapping"
"Blocked","m160","done","24","m160done.wav","None","722.672988195","142","195195.377512","202067.050096","202833.927554","203601.528772","204368.453532","205119.11515","191325.55375","192076.064186","195962.427794","196730.21915","197497.145456","198264.088766","199014.788103","199782.165793","200549.257194","201316.780502","204377.708772","Mapping"
"Blocked","m160","done","24","m160bluff.wav","space","352.384238504","142","195195.377512","202067.050096","202833.927554","203601.528772","204368.453532","205119.11515","205886.406274","192076.064186","195962.427794","196730.21915","197497.145456","198264.088766","199014.788103","199782.165793","200549.257194","201316.780502","205128.584953","Mapping"
"Blocked","m160","done","24","m160tile.wav","None","730.610556435","142","195195.377512","202067.050096","202833.927554","203601.528772","204368.453532","205119.11515","205886.406274","206653.264562","195962.427794","196730.21915","197497.145456","198264.088766","199014.788103","199782.165793","200549.257194","201316.780502","205895.990468","Mapping"
"Blocked","m160","done","19","m160depth.wav","None","727.595245","142","209755.475667","202067.050096","202833.927554","203601.528772","204368.453532","205119.11515","205886.406274","206653.264562","195962.427794","196730.21915","197497.145456","198264.088766","199014.788103","199782.165793","200549.257194","201316.780502","206662.342031","Mapping"
"Blocked","m160","done","19","m160cling.wav","None","736.681679729","142","209755.475667","202067.050096","202833.927554","203601.528772","204368.453532","205119.11515","205886.406274","206653.264562","210523.004849","196730.21915","197497.145456","198264.088766","199014.788103","199782.165793","200549.257194","201316.780502","209764.49563","Mapping"
"Blocked","m160","done","19","m160ball.wav","None","732.277897187","142","209755.475667","202067.050096","202833.927554","203601.528772","204368.453532","205119.11515","205886.406274","206653.264562","210523.004849","211290.325034","197497.145456","198264.088766","199014.788103","199782.165793","200549.257194","201316.780502","210532.44559","Mapping"
"Blocked","m160","done","19","m160cling.wav","None","728.351777885","142","209755.475667","202067.050096","202833.927554","203601.528772","204368.453532","205119.11515","205886.406274","206653.264562","210523.004849","211290.325034","212057.939856","198264.088766","199014.788103","199782.165793","200549.257194","201316.780502","211299.855743","Mapping"
"Blocked","m160","done","19","m160done.wav","None","724.376192782","142","209755.475667","202067.050096","202833.927554","203601.528772","204368.453532","205119.11515","205886.406274","206653.264562","210523.004849","211290.325034","212057.939856","212824.886257","199014.788103","199782.165793","200549.257194","201316.780502","212067.384616","Mapping"
"Blocked","m160","done","19","m160ball.wav","space","590.340924915","142","209755.475667","202067.050096","202833.927554","203601.528772","204368.453532","205119.11515","205886.406274","206653.264562","210523.004849","211290.325034","212057.939856","212824.886257","213575.254166","199782.165793","200549.257194","201316.780502","212834.333491","Mapping"
"Blocked","m160","done","19","m160dime.wav","None","733.468810562","142","209755.475667","202067.050096","202833.927554","203601.528772","204368.453532","205119.11515","205886.406274","206653.264562","210523.004849","211290.325034","212057.939856","212824.886257","213575.254166","214342.548691","200549.257194","201316.780502","213584.87608","Mapping"
"Blocked","m160","done","19","m160priest.wav","None","729.714588728","142","209755.475667","202067.050096","202833.927554","203601.528772","204368.453532","205119.11515","205886.406274","206653.264562","210523.004849","211290.325034","212057.939856","212824.886257","213575.254166","214342.548691","215109.79684","201316.780502","214352.063013","Mapping"
"Blocked","m160","done","19","m160tile.wav","None","726.231507026","142","209755.475667","202067.050096","202833.927554","203601.528772","204368.453532","205119.11515","205886.406274","206653.264562","210523.004849","211290.325034","212057.939856","212824.886257","213575.254166","214342.548691","215109.79684","215877.017164","215119.253348","Mapping"
"Blocked","m160","done","19","m160done.wav","None","722.479140852","142","209755.475667","216627.179477","202833.927554","203601.528772","204368.453532","205119.11515","205886.406274","206653.264562","210523.004849","211290.325034","212057.939856","212824.886257","213575.254166","214342.548691","215109.79684","215877.017164","215886.324653","Mapping"
"Blocked","m160","done","19","m160jaw.wav","space","587.771124672","142","209755.475667","216627.179477","217394.600141","203601.528772","204368.453532","205119.11515","205886.406274","206653.264562","210523.004849","211290.325034","212057.939856","212824.886257","213575.254166","214342.548691","215109.79684","215877.017164","216636.782221","Mapping"
"Blocked","m160","done","19","m160jolt.wav","None","732.020051219","142","209755.475667","216627.179477","217394.600141","218162.107682","204368.453532","205119.11515","205886.406274","206653.264562","210523.004849","211290.325034","212057.939856","212824.886257","213575.254166","214342.548691","215109.79684","215877.017164","217403.434295","Mapping"
"Blocked","m160","done","19","m160done.wav","None","727.630490437","142","209755.475667","216627.179477","217394.600141","218162.107682","218929.505777","205119.11515","205886.406274","206653.264562","210523.004849","211290.325034","212057.939856","212824.886257","213575.254166","214342.548691","215109.79684","215877.017164","218171.397239","Mapping"
"Blocked","m160","done","19","m160park.wav","space","469.381590374","142","209755.475667","216627.179477","217394.600141","218162.107682","218929.505777","219680.03198","205886.406274","206653.264562","210523.004849","211290.325034","212057.939856","212824.886257","213575.254166","214342.548691","215109.79684","215877.017164","218939.095228","Mapping"
"Blocked","m160","done","19","m160done.wav","None","735.596192535","142","209755.475667","216627.179477","217394.600141","218162.107682","218929.505777","219680.03198","220446.650974","206653.264562","210523.004849","211290.325034","212057.939856","212824.886257","213575.254166","214342.548691","215109.79684","215877.017164","219689.949766","Mapping"
"Blocked","m160","done","19","m160romp.wav","space","544.764679857","142","209755.475667","216627.179477","217394.600141","218162.107682","218929.505777","219680.03198","220446.650974","221213.988163","210523.004849","211290.325034","212057.939856","212824.886257","213575.254166","214342.548691","215109.79684","215877.017164","220455.689796","Mapping"
"Blocked","m160","ball","3","m160greet.wav","None","731.474061031","142","224333.363941","216627.179477","217394.600141","218162.107682","218929.505777","219680.03198","220446.650974","221213.988163","210523.004849","211290.325034","212057.939856","212824.886257","213575.254166","214342.548691","215109.79684","215877.017164","221222.938564","Mapping"
"Blocked","m160","ball","3","m160cave.wav","None","736.267086118","142","224333.363941","216627.179477","217394.600141","218162.107682","218929.505777","219680.03198","220446.650974","221213.988163","225100.335076","211290.325034","212057.939856","212824.886257","213575.254166","214342.548691","215109.79684","215877.017164","224342.6603","Mapping"
"Blocked","m160","ball","3","m160ball.wav","None","732.673631515","142","224333.363941","216627.179477","217394.600141","218162.107682","218929.505777","219680.03198","220446.650974","221213.988163","225100.335076","225867.673193","212057.939856","212824.886257","213575.254166","214342.548691","215109.79684","215877.017164","225109.929782","Mapping"
"Blocked","m160","ball","3","m160bluff.wav","space","506.753147114","142","224333.363941","216627.179477","217394.600141","218162.107682","218929.505777","219680.03198","220446.650974","221213.988163","225100.335076","225867.673193","226634.797675","212824.886257","213575.254166","214342.548691","215109.79684","215877.017164","225877.452163","Mapping"
"Blocked","m160","ball","3","m160gnash.wav","None","724.525829777","142","224333.363941","216627.179477","217394.600141","218162.107682","218929.505777","219680.03198","220446.650974","221213.988163","225100.335076","225867.673193","226634.797675","227401.571561","213575.254166","214342.548691","215109.79684","215877.017164","226644.238106","Mapping"
"Blocked","m160","ball","3","m160ball.wav","None","721.597703639","142","224333.363941","216627.179477","217394.600141","218162.107682","218929.505777","219680.03198","220446.650974","221213.988163","225100.335076","225867.673193","226634.797675","227401.571561","228152.270898","214342.548691","215109.79684","215877.017164","227410.783517","Mapping"
"Blocked","m160","ball","3","m160cave.wav","space","526.665393263","142","224333.363941","216627.179477","217394.600141","218162.107682","218929.505777","219680.03198","220446.650974","221213.988163","225100.335076","225867.673193","226634.797675","227401.571561","228152.270898","228919.803481","215109.79684","215877.017164","228161.457502","Mapping"
"Blocked","m160","ball","3","m160ball.wav","None","721.395198721","142","224333.363941","216627.179477","217394.600141","218162.107682","218929.505777","219680.03198","220446.650974","221213.988163","225100.335076","225867.673193","226634.797675","227401.571561","228152.270898","228919.803481","229687.127067","215877.017164","228937.328335","Mapping"
"Blocked","m160","ball","3","m160reek.wav","space","471.352224704","142","224333.363941","216627.179477","217394.600141","218162.107682","218929.505777","219680.03198","220446.650974","221213.988163","225100.335076","225867.673193","226634.797675","227401.571561","228152.270898","228919.803481","229687.127067","230453.952583","229696.725483","Mapping"
"Blocked","m160","ball","3","m160done.wav","None","722.09700942","142","224333.363941","231204.673253","217394.600141","218162.107682","218929.505777","219680.03198","220446.650974","221213.988163","225100.335076","225867.673193","226634.797675","227401.571561","228152.270898","228919.803481","229687.127067","230453.952583","230463.185873","Mapping"
"Blocked","m160","ball","3","m160cad.wav","None","734.727122821","142","224333.363941","231204.673253","231972.060218","218162.107682","218929.505777","219680.03198","220446.650974","221213.988163","225100.335076","225867.673193","226634.797675","227401.571561","228152.270898","228919.803481","229687.127067","230453.952583","231214.132853","Mapping"
"Blocked","m160","ball","3","m160knife.wav","None","730.936419219","142","224333.363941","231204.673253","231972.060218","232739.253336","218929.505777","219680.03198","220446.650974","221213.988163","225100.335076","225867.673193","226634.797675","227401.571561","228152.270898","228919.803481","229687.127067","230453.952583","231981.681513","Mapping"
"Blocked","m160","ball","3","m160dime.wav","None","726.542530116","142","224333.363941","231204.673253","231972.060218","232739.253336","233506.520962","219680.03198","220446.650974","221213.988163","225100.335076","225867.673193","226634.797675","227401.571561","228152.270898","228919.803481","229687.127067","230453.952583","232749.655587","Mapping"
"Blocked","m160","ball","3","m160ball.wav","None","723.802686669","142","224333.363941","231204.673253","231972.060218","232739.253336","233506.520962","234273.846094","220446.650974","221213.988163","225100.335076","225867.673193","226634.797675","227401.571561","228152.270898","228919.803481","229687.127067","230453.952583","233516.102683","Mapping"
"Blocked","m160","ball","3","m160bluff.wav","space","444.370553363","142","224333.363941","231204.673253","231972.060218","232739.253336","233506.520962","234273.846094","235023.993258","221213.988163","225100.335076","225867.673193","226634.797675","227401.571561","228152.270898","228919.803481","229687.127067","230453.952583","234283.547772","Mapping"
"Blocked","m160","ball","3","m160tile.wav","None","733.432947192","142","224333.363941","231204.673253","231972.060218","232739.253336","233506.520962","234273.846094","235023.993258","235791.119285","225100.335076","225867.673193","226634.797675","227401.571561","228152.270898","228919.803481","229687.127067","230453.952583","235033.421631","Mapping"
"Blocked","m160","cave","11","m160dime.wav","None","726.996078622","142","238910.141686","231204.673253","231972.060218","232739.253336","233506.520962","234273.846094","235023.993258","235791.119285","225100.335076","225867.673193","226634.797675","227401.571561","228152.270898","228919.803481","229687.127067","230453.952583","235803.888215","Mapping"
"Blocked","m160","cave","11","m160cave.wav","None","734.075088054","142","238910.141686","231204.673253","231972.060218","232739.253336","233506.520962","234273.846094","235023.993258","235791.119285","239677.716006","225867.673193","226634.797675","227401.571561","228152.270898","228919.803481","229687.127067","230453.952583","238921.079106","Mapping"
"Blocked","m160","cave","11","m160gnash.wav","space","456.441073213","142","238910.141686","231204.673253","231972.060218","232739.253336","233506.520962","234273.846094","235023.993258","235791.119285","239677.716006","240444.93262","226634.797675","227401.571561","228152.270898","228919.803481","229687.127067","230453.952583","239687.28907","Mapping"
"Blocked","m160","cave","11","m160bluff.wav","None","726.212647744","142","238910.141686","231204.673253","231972.060218","232739.253336","233506.520962","234273.846094","235023.993258","235791.119285","239677.716006","240444.93262","241211.960642","227401.571561","228152.270898","228919.803481","229687.127067","230453.952583","240455.429786","Mapping"
"Blocked","m160","cave","11","m160done.wav","None","723.880596925","142","238910.141686","231204.673253","231972.060218","232739.253336","233506.520962","234273.846094","235023.993258","235791.119285","239677.716006","240444.93262","241211.960642","241978.941979","228152.270898","228919.803481","229687.127067","230453.952583","241221.422715","Mapping"
"Blocked","m160","cave","11","m160cave.wav","None","719.476505183","142","238910.141686","231204.673253","231972.060218","232739.253336","233506.520962","234273.846094","235023.993258","235791.119285","239677.716006","240444.93262","241211.960642","241978.941979","242729.913075","228919.803481","229687.127067","230453.952583","241989.957001","Mapping"
"Blocked","m160","cave","11","m160park.wav","space","566.855939105","142","238910.141686","231204.673253","231972.060218","232739.253336","233506.520962","234273.846094","235023.993258","235791.119285","239677.716006","240444.93262","241211.960642","241978.941979","242729.913075","243497.190903","229687.127067","230453.952583","242744.750644","Mapping"
"Blocked","m160","cave","11","m160romp.wav","None","729.192714207","142","238910.141686","231204.673253","231972.060218","232739.253336","233506.520962","234273.846094","235023.993258","235791.119285","239677.716006","240444.93262","241211.960642","241978.941979","242729.913075","243497.190903","244264.08722","230453.952583","243506.907112","Mapping"
"Blocked","m160","cave","11","m160priest.wav","None","726.357338019","142","238910.141686","231204.673253","231972.060218","232739.253336","233506.520962","234273.846094","235023.993258","235791.119285","239677.716006","240444.93262","241211.960642","241978.941979","242729.913075","243497.190903","244264.08722","245031.404004","244273.413569","Mapping"
"Blocked","m160","cave","11","m160cave.wav","None","722.360110842","142","238910.141686","245781.905783","231972.060218","232739.253336","233506.520962","234273.846094","235023.993258","235791.119285","239677.716006","240444.93262","241211.960642","241978.941979","242729.913075","243497.190903","244264.08722","245031.404004","245041.131343","Mapping"
"Blocked","m160","cave","11","m160done.wav","space","551.924382802","142","238910.141686","245781.905783","246549.445477","232739.253336","233506.520962","234273.846094","235023.993258","235791.119285","239677.716006","240444.93262","241211.960642","241978.941979","242729.913075","243497.190903","244264.08722","245031.404004","245791.561086","Mapping"
"Blocked","m160","cave","11","m160cave.wav","None","730.847069994","142","238910.141686","245781.905783","246549.445477","247316.526985","233506.520962","234273.846094","235023.993258","235791.119285","239677.716006","240444.93262","241211.960642","241978.941979","242729.913075","243497.190903","244264.08722","245031.404004","246559.252581","Mapping"
"Blocked","m160","cave","11","m160gnash.wav","space","576.455900911","142","238910.141686","245781.905783","246549.445477","247316.526985","248083.779153","234273.846094","235023.993258","235791.119285","239677.716006","240444.93262","241211.960642","241978.941979","242729.913075","243497.190903","244264.08722","245031.404004","247326.987051","Mapping"
"Blocked","m160","cave","11","m160cad.wav","None","723.62336982","142","238910.141686","245781.905783","246549.445477","247316.526985","248083.779153","248850.924349","235023.993258","235791.119285","239677.716006","240444.93262","241211.960642","241978.941979","242729.913075","243497.190903","244264.08722","245031.404004","248093.661075","Mapping"
"Blocked","m160","cave","11","m160tile.wav","None","720.521491487","142","238910.141686","245781.905783","246549.445477","247316.526985","248083.779153","248850.924349","249601.459827","235791.119285","239677.716006","240444.93262","241211.960642","241978.941979","242729.913075","243497.190903","244264.08722","245031.404004","248860.566358","Mapping"
"Blocked","m160","cave","11","m160depth.wav","None","733.721400145","142","238910.141686","245781.905783","246549.445477","247316.526985","248083.779153","248850.924349","249601.459827","250368.634394","239677.716006","240444.93262","241211.960642","241978.941979","242729.913075","243497.190903","244264.08722","245031.404004","249611.013105","Mapping"
"Blocked","m160","cave","12","m160lash.wav","None","730.165973306","142","253487.493863","245781.905783","246549.445477","247316.526985","248083.779153","248850.924349","249601.459827","250368.634394","239677.716006","240444.93262","241211.960642","241978.941979","242729.913075","243497.190903","244264.08722","245031.404004","250378.337309","Mapping"
"Blocked","m160","cave","12","m160ball.wav","None","734.998571686","142","253487.493863","245781.905783","246549.445477","247316.526985","248083.779153","248850.924349","249601.459827","250368.634394","254254.797662","240444.93262","241211.960642","241978.941979","242729.913075","243497.190903","244264.08722","245031.404004","253497.565615","Mapping"
"Blocked","m160","cave","12","m160lash.wav","None","731.905659195","142","253487.493863","245781.905783","246549.445477","247316.526985","248083.779153","248850.924349","249601.459827","250368.634394","254254.797662","255021.743136","241211.960642","241978.941979","242729.913075","243497.190903","244264.08722","245031.404004","254264.387731","Mapping"
"Blocked","m160","cave","12","m160done.wav","None","729.662958067","142","253487.493863","245781.905783","246549.445477","247316.526985","248083.779153","248850.924349","249601.459827","250368.634394","254254.797662","255021.743136","255789.433086","241978.941979","242729.913075","243497.190903","244264.08722","245031.404004","255030.809784","Mapping"
"Blocked","m160","cave","12","m160jolt.wav","space","479.886795394","142","253487.493863","245781.905783","246549.445477","247316.526985","248083.779153","248850.924349","249601.459827","250368.634394","254254.797662","255021.743136","255789.433086","256556.569316","242729.913075","243497.190903","244264.08722","245031.404004","255799.24019","Mapping"
"Blocked","m160","cave","12","m160cave.wav","None","720.308165997","142","253487.493863","245781.905783","246549.445477","247316.526985","248083.779153","248850.924349","249601.459827","250368.634394","254254.797662","255021.743136","255789.433086","256556.569316","257307.111596","243497.190903","244264.08722","245031.404004","256566.717741","Mapping"
"Blocked","m160","cave","12","m160depth.wav","None","734.300780576","142","253487.493863","245781.905783","246549.445477","247316.526985","248083.779153","248850.924349","249601.459827","250368.634394","254254.797662","255021.743136","255789.433086","256556.569316","257307.111596","258074.17208","244264.08722","245031.404004","257316.931685","Mapping"
"Blocked","m160","cave","12","m160cave.wav","space","107.610097621","142","253487.493863","245781.905783","246549.445477","247316.526985","248083.779153","248850.924349","249601.459827","250368.634394","254254.797662","255021.743136","255789.433086","256556.569316","257307.111596","258074.17208","258841.594909","245031.404004","258083.446489","Mapping"
"Blocked","m160","cave","12","m160greet.wav","space","619.563443121","142","253487.493863","245781.905783","246549.445477","247316.526985","248083.779153","248850.924349","249601.459827","250368.634394","254254.797662","255021.743136","255789.433086","256556.569316","257307.111596","258074.17208","258841.594909","259608.877994","258851.434785","Mapping"
"Blocked","m160","cave","12","m160priest.wav","None","721.805464476","142","253487.493863","260359.052673","246549.445477","247316.526985","248083.779153","248850.924349","249601.459827","250368.634394","254254.797662","255021.743136","255789.433086","256556.569316","257307.111596","258074.17208","258841.594909","259608.877994","259618.917901","Mapping"
"Blocked","m160","cave","12","m160cave.wav","None","735.350095201","142","253487.493863","260359.052673","261126.527442","247316.526985","248083.779153","248850.924349","249601.459827","250368.634394","254254.797662","255021.743136","255789.433086","256556.569316","257307.111596","258074.17208","258841.594909","259608.877994","260369.236344","Mapping"
"Blocked","m160","cave","12","m160ball.wav","space","678.45924478","142","253487.493863","260359.052673","261126.527442","261893.926465","248083.779153","248850.924349","249601.459827","250368.634394","254254.797662","255021.743136","255789.433086","256556.569316","257307.111596","258074.17208","258841.594909","259608.877994","261136.446156","Mapping"
"Blocked","m160","cave","12","m160jolt.wav","None","727.282367647","142","253487.493863","260359.052673","261126.527442","261893.926465","262660.887397","248850.924349","249601.459827","250368.634394","254254.797662","255021.743136","255789.433086","256556.569316","257307.111596","258074.17208","258841.594909","259608.877994","261903.802823","Mapping"
"Blocked","m160","cave","12","m160cave.wav","None","724.301064853","142","253487.493863","260359.052673","261126.527442","261893.926465","262660.887397","263427.893777","249601.459827","250368.634394","254254.797662","255021.743136","255789.433086","256556.569316","257307.111596","258074.17208","258841.594909","259608.877994","262670.705013","Mapping"
"Blocked","m160","cave","12","m160cad.wav","space","649.706662167","142","253487.493863","260359.052673","261126.527442","261893.926465","262660.887397","263427.893777","264178.862399","250368.634394","254254.797662","255021.743136","255789.433086","256556.569316","257307.111596","258074.17208","258841.594909","259608.877994","263437.09615","Mapping"
"Blocked","m160","cave","12","m160depth.wav","None","733.053289354","142","253487.493863","260359.052673","261126.527442","261893.926465","262660.887397","263427.893777","264178.862399","264946.122606","254254.797662","255021.743136","255789.433086","256556.569316","257307.111596","258074.17208","258841.594909","259608.877994","264188.938789","Mapping"
"Blocked","m160","done","22","m160reek.wav","None","729.615655262","142","268064.765039","260359.052673","261126.527442","261893.926465","262660.887397","263427.893777","264178.862399","264946.122606","254254.797662","255021.743136","255789.433086","256556.569316","257307.111596","258074.17208","258841.594909","259608.877994","264956.2194","Mapping"
"Blocked","m160","done","22","m160park.wav","None","735.949262045","142","268064.765039","260359.052673","261126.527442","261893.926465","262660.887397","263427.893777","264178.862399","264946.122606","268832.259904","255021.743136","255789.433086","256556.569316","257307.111596","258074.17208","258841.594909","259608.877994","268074.420033","Mapping"
"Blocked","m160","done","22","m160cave.wav","None","732.465561945","142","268064.765039","260359.052673","261126.527442","261893.926465","262660.887397","263427.893777","264178.862399","264946.122606","268832.259904","269599.511453","255789.433086","256556.569316","257307.111596","258074.17208","258841.594909","259608.877994","268841.782883","Mapping"
"Blocked","m160","done","22","m160done.wav","None","728.86777902","142","268064.765039","260359.052673","261126.527442","261893.926465","262660.887397","263427.893777","264178.862399","264946.122606","268832.259904","269599.511453","270366.647993","256556.569316","257307.111596","258074.17208","258841.594909","259608.877994","269609.295679","Mapping"
"Blocked","m160","done","22","m160cad.wav","space","454.136847518","142","268064.765039","260359.052673","261126.527442","261893.926465","262660.887397","263427.893777","264178.862399","264946.122606","268832.259904","269599.511453","270366.647993","271133.869244","257307.111596","258074.17208","258841.594909","259608.877994","270376.471174","Mapping"
"Blocked","m160","done","22","m160knife.wav","None","721.746722702","142","268064.765039","260359.052673","261126.527442","261893.926465","262660.887397","263427.893777","264178.862399","264946.122606","268832.259904","269599.511453","270366.647993","271133.869244","271884.221077","258074.17208","258841.594909","259608.877994","271143.370582","Mapping"
"Blocked","m160","done","22","m160cave.wav","None","735.348549206","142","268064.765039","260359.052673","261126.527442","261893.926465","262660.887397","263427.893777","264178.862399","264946.122606","268832.259904","269599.511453","270366.647993","271133.869244","271884.221077","272651.210453","258841.594909","259608.877994","271893.695208","Mapping"
"Blocked","m160","done","22","m160park.wav","None","732.287790626","142","268064.765039","260359.052673","261126.527442","261893.926465","262660.887397","263427.893777","264178.862399","264946.122606","268832.259904","269599.511453","270366.647993","271133.869244","271884.221077","272651.210453","273418.877833","259608.877994","272660.636972","Mapping"
"Blocked","m160","done","22","m160done.wav","None","728.41392085","142","268064.765039","260359.052673","261126.527442","261893.926465","262660.887397","263427.893777","264178.862399","264946.122606","268832.259904","269599.511453","270366.647993","271133.869244","271884.221077","272651.210453","273418.877833","274186.084554","273428.948657","Mapping"
"Blocked","m160","done","22","m160tile.wav","space","578.861842863","142","268064.765039","274952.863077","261126.527442","261893.926465","262660.887397","263427.893777","264178.862399","264946.122606","268832.259904","269599.511453","270366.647993","271133.869244","271884.221077","272651.210453","273418.877833","274186.084554","274195.60877","Mapping"
"Blocked","m160","done","22","m160knife.wav","None","721.925730351","142","268064.765039","274952.863077","275703.653619","261893.926465","262660.887397","263427.893777","264178.862399","264946.122606","268832.259904","269599.511453","270366.647993","271133.869244","271884.221077","272651.210453","273418.877833","274186.084554","274962.171803","Mapping"
"Blocked","m160","done","22","m160done.wav","None","734.253477771","142","268064.765039","274952.863077","275703.653619","276470.812418","262660.887397","263427.893777","264178.862399","264946.122606","268832.259904","269599.511453","270366.647993","271133.869244","271884.221077","272651.210453","273418.877833","274186.084554","275713.730008","Mapping"
"Blocked","m160","done","22","m160lash.wav","space","605.578248389","142","268064.765039","274952.863077","275703.653619","276470.812418","277238.348711","263427.893777","264178.862399","264946.122606","268832.259904","269599.511453","270366.647993","271133.869244","271884.221077","272651.210453","273418.877833","274186.084554","276480.771942","Mapping"
"Blocked","m160","done","22","m160done.wav","None","726.559842937","142","268064.765039","274952.863077","275703.653619","276470.812418","277238.348711","278005.471029","264178.862399","264946.122606","268832.259904","269599.511453","270366.647993","271133.869244","271884.221077","272651.210453","273418.877833","274186.084554","277248.1688","Mapping"
"Blocked","m160","done","22","m160depth.wav","space","503.100950737","142","268064.765039","274952.863077","275703.653619","276470.812418","277238.348711","278005.471029","278756.380909","264946.122606","268832.259904","269599.511453","270366.647993","271133.869244","271884.221077","272651.210453","273418.877833","274186.084554","278015.239178","Mapping"
"Blocked","m160","done","22","m160priest.wav","None","735.752013046","142","268064.765039","274952.863077","275703.653619","276470.812418","277238.348711","278005.471029","278756.380909","279523.32391","268832.259904","269599.511453","270366.647993","271133.869244","271884.221077","272651.210453","273418.877833","274186.084554","278766.03343","Mapping"
"Blocked","m160","cave","8","m160gnash.wav","None","732.619527262","142","282642.192963","274952.863077","275703.653619","276470.812418","277238.348711","278005.471029","278756.380909","279523.32391","268832.259904","269599.511453","270366.647993","271133.869244","271884.221077","272651.210453","273418.877833","274186.084554","279533.197485","Mapping"
"Blocked","m160","cave","8","m160lash.wav","None","736.215764191","142","282642.192963","274952.863077","275703.653619","276470.812418","277238.348711","278005.471029","278756.380909","279523.32391","283409.068256","269599.511453","270366.647993","271133.869244","271884.221077","272651.210453","273418.877833","274186.084554","282651.598767","Mapping"
"Blocked","m160","cave","8","m160jaw.wav","None","739.686170127","142","282642.192963","274952.863077","275703.653619","276470.812418","277238.348711","278005.471029","278756.380909","279523.32391","283409.068256","284176.037226","270366.647993","271133.869244","271884.221077","272651.210453","273418.877833","274186.084554","283412.764663","Mapping"
"Blocked","m160","cave","8","m160bluff.wav","None","734.888817184","142","282642.192963","274952.863077","275703.653619","276470.812418","277238.348711","278005.471029","278756.380909","279523.32391","283409.068256","284176.037226","284943.969563","271133.869244","271884.221077","272651.210453","273418.877833","274186.084554","284184.821295","Mapping"
"Blocked","m160","cave","8","m160cave.wav","None","729.82465243","142","282642.192963","274952.863077","275703.653619","276470.812418","277238.348711","278005.471029","278756.380909","279523.32391","283409.068256","284176.037226","284943.969563","285711.053235","271884.221077","272651.210453","273418.877833","274186.084554","284953.694429","Mapping"
"Blocked","m160","cave","8","m160jolt.wav","space","605.329677928","142","282642.192963","274952.863077","275703.653619","276470.812418","277238.348711","278005.471029","278756.380909","279523.32391","283409.068256","284176.037226","284943.969563","285711.053235","286478.36229","272651.210453","273418.877833","274186.084554","285720.703282","Mapping"
"Blocked","m160","cave","8","m160cave.wav","None","722.238917369","142","282642.192963","274952.863077","275703.653619","276470.812418","277238.348711","278005.471029","278756.380909","279523.32391","283409.068256","284176.037226","284943.969563","285711.053235","286478.36229","287228.779975","273418.877833","274186.084554","286488.171249","Mapping"
"Blocked","m160","cave","8","m160jaw.wav","space","647.039164323","142","282642.192963","274952.863077","275703.653619","276470.812418","277238.348711","278005.471029","278756.380909","279523.32391","283409.068256","284176.037226","284943.969563","285711.053235","286478.36229","287228.779975","287996.048838","274186.084554","287238.936439","Mapping"
"Blocked","m160","cave","8","m160romp.wav","None","731.392750517","142","282642.192963","274952.863077","275703.653619","276470.812418","277238.348711","278005.471029","278756.380909","279523.32391","283409.068256","284176.037226","284943.969563","285711.053235","286478.36229","287228.779975","287996.048838","288763.285239","288005.774941","Mapping"
"Blocked","m160","cave","8","m160cave.wav","None","728.025606833","142","282642.192963","289530.12034","275703.653619","276470.812418","277238.348711","278005.471029","278756.380909","279523.32391","283409.068256","284176.037226","284943.969563","285711.053235","286478.36229","287228.779975","287996.048838","288763.285239","288773.212919","Mapping"
"Blocked","m160","cave","8","m160gnash.wav","space","682.403295301","142","282642.192963","289530.12034","290297.945705","276470.812418","277238.348711","278005.471029","278756.380909","279523.32391","283409.068256","284176.037226","284943.969563","285711.053235","286478.36229","287228.779975","287996.048838","288763.285239","289539.504813","Mapping"
"Blocked","m160","cave","8","m160cave.wav","None","720.369999763","142","282642.192963","289530.12034","290297.945705","291048.305576","277238.348711","278005.471029","278756.380909","279523.32391","283409.068256","284176.037226","284943.969563","285711.053235","286478.36229","287228.779975","287996.048838","288763.285239","290307.681391","Mapping"
"Blocked","m160","cave","8","m160reek.wav","space","483.74149669","142","282642.192963","289530.12034","290297.945705","291048.305576","291815.406561","278005.471029","278756.380909","279523.32391","283409.068256","284176.037226","284943.969563","285711.053235","286478.36229","287228.779975","287996.048838","288763.285239","291058.101859","Mapping"
"Blocked","m160","cave","8","m160jolt.wav","None","735.463868827","142","282642.192963","289530.12034","290297.945705","291048.305576","291815.406561","292582.376769","278756.380909","279523.32391","283409.068256","284176.037226","284943.969563","285711.053235","286478.36229","287228.779975","287996.048838","288763.285239","291819.543223","Mapping"
"Blocked","m160","cave","8","m160dime.wav","None","727.625852451","142","282642.192963","289530.12034","290297.945705","291048.305576","291815.406561","292582.376769","293349.841335","279523.32391","283409.068256","284176.037226","284943.969563","285711.053235","286478.36229","287228.779975","287996.048838","288763.285239","292591.506178","Mapping"
"Blocked","m160","cave","8","m160cling.wav","None","722.864363343","142","282642.192963","289530.12034","290297.945705","291048.305576","291815.406561","292582.376769","293349.841335","294117.176979","283409.068256","284176.037226","284943.969563","285711.053235","286478.36229","287228.779975","287996.048838","288763.285239","293360.241114","Mapping"
"Blocked","m160","done","20","m160greet.wav","None","719.888934866","142","297219.124054","289530.12034","290297.945705","291048.305576","291815.406561","292582.376769","293349.841335","294117.176979","283409.068256","284176.037226","284943.969563","285711.053235","286478.36229","287228.779975","287996.048838","288763.285239","294127.413207","Mapping"
"Blocked","m160","done","20","m160done.wav","None","735.37173681","142","297219.124054","289530.12034","290297.945705","291048.305576","291815.406561","292582.376769","293349.841335","294117.176979","297986.443311","284176.037226","284943.969563","285711.053235","286478.36229","287228.779975","287996.048838","288763.285239","297228.831606","Mapping"
"Blocked","m160","done","20","m160park.wav","space","418.076161295","142","297219.124054","289530.12034","290297.945705","291048.305576","291815.406561","292582.376769","293349.841335","294117.176979","297986.443311","298753.853464","284943.969563","285711.053235","286478.36229","287228.779975","287996.048838","288763.285239","297995.514288","Mapping"
"Blocked","m160","done","20","m160done.wav","None","727.681193966","142","297219.124054","289530.12034","290297.945705","291048.305576","291815.406561","292582.376769","293349.841335","294117.176979","297986.443311","298753.853464","299521.102232","285711.053235","286478.36229","287228.779975","287996.048838","288763.285239","298763.471049","Mapping"
"Blocked","m160","done","20","m160romp.wav","space","434.829333331","142","297219.124054","289530.12034","290297.945705","291048.305576","291815.406561","292582.376769","293349.841335","294117.176979","297986.443311","298753.853464","299521.102232","300287.968868","286478.36229","287228.779975","287996.048838","288763.285239","299530.717652","Mapping"
"Blocked","m160","done","20","m160done.wav","None","720.679785125","142","297219.124054","289530.12034","290297.945705","291048.305576","291815.406561","292582.376769","293349.841335","294117.176979","297986.443311","298753.853464","299521.102232","300287.968868","301038.652747","287228.779975","287996.048838","288763.285239","300297.467732","Mapping"
"Blocked","m160","done","20","m160priest.wav","space","477.483326569","142","297219.124054","289530.12034","290297.945705","291048.305576","291815.406561","292582.376769","293349.841335","294117.176979","297986.443311","298753.853464","299521.102232","300287.968868","301038.652747","301806.079594","287996.048838","288763.285239","301048.002592","Mapping"
"Blocked","m160","done","20","m160greet.wav","None","729.109856766","142","297219.124054","289530.12034","290297.945705","291048.305576","291815.406561","292582.376769","293349.841335","294117.176979","297986.443311","298753.853464","299521.102232","300287.968868","301038.652747","301806.079594","302573.421731","288763.285239","301815.779727","Mapping"
"Blocked","m160","done","20","m160ball.wav","None","725.932851434","142","297219.124054","289530.12034","290297.945705","291048.305576","291815.406561","292582.376769","293349.841335","294117.176979","297986.443311","298753.853464","299521.102232","300287.968868","301038.652747","301806.079594","302573.421731","303340.619176","302583.116607","Mapping"
"Blocked","m160","done","20","m160cling.wav","None","722.329194192","142","297219.124054","304107.783231","290297.945705","291048.305576","291815.406561","292582.376769","293349.841335","294117.176979","297986.443311","298753.853464","299521.102232","300287.968868","301038.652747","301806.079594","302573.421731","303340.619176","303350.641152","Mapping"
"Blocked","m160","done","20","m160park.wav","None","719.79618445","142","297219.124054","304107.783231","304858.51163","291048.305576","291815.406561","292582.376769","293349.841335","294117.176979","297986.443311","298753.853464","299521.102232","300287.968868","301038.652747","301806.079594","302573.421731","303340.619176","304117.241904","Mapping"
"Blocked","m160","done","20","m160cad.wav","None","732.598812785","142","297219.124054","304107.783231","304858.51163","305625.309631","291815.406561","292582.376769","293349.841335","294117.176979","297986.443311","298753.853464","299521.102232","300287.968868","301038.652747","301806.079594","302573.421731","303340.619176","304868.541026","Mapping"
"Blocked","m160","done","20","m160cling.wav","None","730.751537252","142","297219.124054","304107.783231","304858.51163","305625.309631","306392.900956","292582.376769","293349.841335","294117.176979","297986.443311","298753.853464","299521.102232","300287.968868","301038.652747","301806.079594","302573.421731","303340.619176","305634.649274","Mapping"
"Blocked","m160","done","20","m160done.wav","None","726.259641349","142","297219.124054","304107.783231","304858.51163","305625.309631","306392.900956","307160.319766","293349.841335","294117.176979","297986.443311","298753.853464","299521.102232","300287.968868","301038.652747","301806.079594","302573.421731","303340.619176","306403.392867","Mapping"
"Blocked","m160","done","20","m160cad.wav","space","523.435828276","142","297219.124054","304107.783231","304858.51163","305625.309631","306392.900956","307160.319766","307926.910006","294117.176979","297986.443311","298753.853464","299521.102232","300287.968868","301038.652747","301806.079594","302573.421731","303340.619176","307169.825123","Mapping"
"Blocked","m160","done","20","m160park.wav","None","720.780882984","142","297219.124054","304107.783231","304858.51163","305625.309631","306392.900956","307160.319766","307926.910006","308677.869044","297986.443311","298753.853464","299521.102232","300287.968868","301038.652747","301806.079594","302573.421731","303340.619176","307935.884213","Mapping"
"Blocked","m160","cave","7","m160cad.wav","None","733.419962227","142","311796.346691","304107.783231","304858.51163","305625.309631","306392.900956","307160.319766","307926.910006","308677.869044","297986.443311","298753.853464","299521.102232","300287.968868","301038.652747","301806.079594","302573.421731","303340.619176","308687.24455","Mapping"
"Blocked","m160","cave","7","m160tile.wav","None","735.303719994","142","311796.346691","304107.783231","304858.51163","305625.309631","306392.900956","307160.319766","307926.910006","308677.869044","312564.031694","298753.853464","299521.102232","300287.968868","301038.652747","301806.079594","302573.421731","303340.619176","311806.417205","Mapping"
"Blocked","m160","cave","7","m160ball.wav","None","732.152066194","142","311796.346691","304107.783231","304858.51163","305625.309631","306392.900956","307160.319766","307926.910006","308677.869044","312564.031694","313331.259747","299521.102232","300287.968868","301038.652747","301806.079594","302573.421731","303340.619176","312573.656389","Mapping"
"Blocked","m160","cave","7","m160depth.wav","None","729.31359848","142","311796.346691","304107.783231","304858.51163","305625.309631","306392.900956","307160.319766","307926.910006","308677.869044","312564.031694","313331.259747","314098.58426","300287.968868","301038.652747","301806.079594","302573.421731","303340.619176","313341.388694","Mapping"
"Blocked","m160","cave","7","m160reek.wav","None","732.38734249","142","311796.346691","304107.783231","304858.51163","305625.309631","306392.900956","307160.319766","307926.910006","308677.869044","312564.031694","313331.259747","314098.58426","314865.93227","301038.652747","301806.079594","302573.421731","303340.619176","314102.446072","Mapping"
"Blocked","m160","cave","7","m160cave.wav","None","723.475896753","142","311796.346691","304107.783231","304858.51163","305625.309631","306392.900956","307160.319766","307926.910006","308677.869044","312564.031694","313331.259747","314098.58426","314865.93227","315632.946997","301806.079594","302573.421731","303340.619176","314875.53656","Mapping"
"Blocked","m160","cave","7","m160priest.wav","space","577.382476069","142","311796.346691","304107.783231","304858.51163","305625.309631","306392.900956","307160.319766","307926.910006","308677.869044","312564.031694","313331.259747","314098.58426","314865.93227","315632.946997","316383.383233","302573.421731","303340.619176","315643.520219","Mapping"
"Blocked","m160","cave","7","m160depth.wav","None","733.268470038","142","311796.346691","304107.783231","304858.51163","305625.309631","306392.900956","307160.319766","307926.910006","308677.869044","312564.031694","313331.259747","314098.58426","314865.93227","315632.946997","316383.383233","317150.349421","303340.619176","316392.667535","Mapping"
"Blocked","m160","cave","7","m160reek.wav","None","730.736387428","142","311796.346691","304107.783231","304858.51163","305625.309631","306392.900956","307160.319766","307926.910006","308677.869044","312564.031694","313331.259747","314098.58426","314865.93227","315632.946997","316383.383233","317150.349421","317917.89468","317159.597241","Mapping"
"Blocked","m160","cave","7","m160cave.wav","None","726.997624151","142","311796.346691","318685.129226","304858.51163","305625.309631","306392.900956","307160.319766","307926.910006","308677.869044","312564.031694","313331.259747","314098.58426","314865.93227","315632.946997","316383.383233","317150.349421","317917.89468","317927.535143","Mapping"
"Blocked","m160","cave","7","m160greet.wav","space","509.909747634","142","311796.346691","318685.129226","319452.645423","305625.309631","306392.900956","307160.319766","307926.910006","308677.869044","312564.031694","313331.259747","314098.58426","314865.93227","315632.946997","316383.383233","317150.349421","317917.89468","318694.938494","Mapping"
"Blocked","m160","cave","7","m160cave.wav","None","718.442030251","142","311796.346691","318685.129226","319452.645423","320202.545253","306392.900956","307160.319766","307926.910006","308677.869044","312564.031694","313331.259747","314098.58426","314865.93227","315632.946997","316383.383233","317150.349421","317917.89468","319462.990479","Mapping"
"Blocked","m160","cave","7","m160lash.wav","space","689.161389135","142","311796.346691","318685.129226","319452.645423","320202.545253","320970.083092","307160.319766","307926.910006","308677.869044","312564.031694","313331.259747","314098.58426","314865.93227","315632.946997","316383.383233","317150.349421","317917.89468","320211.595515","Mapping"
"Blocked","m160","cave","7","m160tile.wav","None","728.666820098","142","311796.346691","318685.129226","319452.645423","320202.545253","320970.083092","321737.37236","307926.910006","308677.869044","312564.031694","313331.259747","314098.58426","314865.93227","315632.946997","316383.383233","317150.349421","317917.89468","320979.816305","Mapping"
"Blocked","m160","cave","7","m160cave.wav","None","725.741476752","142","311796.346691","318685.129226","319452.645423","320202.545253","320970.083092","321737.37236","322504.402237","308677.869044","312564.031694","313331.259747","314098.58426","314865.93227","315632.946997","316383.383233","317150.349421","317917.89468","321746.930894","Mapping"
"Blocked","m160","cave","7","m160jaw.wav","None","722.560142633","142","311796.346691","318685.129226","319452.645423","320202.545253","320970.083092","321737.37236","322504.402237","323271.794458","312564.031694","313331.259747","314098.58426","314865.93227","315632.946997","316383.383233","317150.349421","317917.89468","322514.275503","Mapping"
"Blocked","m160","ball","2","m160depth.wav","space","0.0333897769451","142","326373.642909","318685.129226","319452.645423","320202.545253","320970.083092","321737.37236","322504.402237","323271.794458","312564.031694","313331.259747","314098.58426","314865.93227","315632.946997","316383.383233","317150.349421","317917.89468","323281.383908","Mapping"
"Blocked","m160","ball","2","m160ball.wav","None","735.910925083","142","326373.642909","318685.129226","319452.645423","320202.545253","320970.083092","321737.37236","322504.402237","323271.794458","327141.050279","313331.259747","314098.58426","314865.93227","315632.946997","316383.383233","317150.349421","317917.89468","326383.251837","Mapping"
"Blocked","m160","ball","2","m160depth.wav","space","557.815261185","142","326373.642909","318685.129226","319452.645423","320202.545253","320970.083092","321737.37236","322504.402237","323271.794458","327141.050279","327908.340166","314098.58426","314865.93227","315632.946997","316383.383233","317150.349421","317917.89468","327150.719804","Mapping"
"Blocked","m160","ball","2","m160cad.wav","None","728.22501976","142","326373.642909","318685.129226","319452.645423","320202.545253","320970.083092","321737.37236","322504.402237","323271.794458","327141.050279","327908.340166","328675.75372","314865.93227","315632.946997","316383.383233","317150.349421","317917.89468","327918.091311","Mapping"
"Blocked","m160","ball","2","m160ball.wav","None","724.784293678","142","326373.642909","318685.129226","319452.645423","320202.545253","320970.083092","321737.37236","322504.402237","323271.794458","327141.050279","327908.340166","328675.75372","329442.961677","315632.946997","316383.383233","317150.349421","317917.89468","328685.943573","Mapping"
"Blocked","m160","ball","2","m160park.wav","space","575.706169475","142","326373.642909","318685.129226","319452.645423","320202.545253","320970.083092","321737.37236","322504.402237","323271.794458","327141.050279","327908.340166","328675.75372","329442.961677","330193.270844","316383.383233","317150.349421","317917.89468","329452.744357","Mapping"
"Blocked","m160","ball","2","m160gnash.wav","None","734.900874551","142","326373.642909","318685.129226","319452.645423","320202.545253","320970.083092","321737.37236","322504.402237","323271.794458","327141.050279","327908.340166","328675.75372","329442.961677","330193.270844","330960.688108","317150.349421","317917.89468","330203.1404","Mapping"
"Blocked","m160","ball","2","m160knife.wav","None","732.26676695","142","326373.642909","318685.129226","319452.645423","320202.545253","320970.083092","321737.37236","322504.402237","323271.794458","327141.050279","327908.340166","328675.75372","329442.961677","330193.270844","330960.688108","331727.867313","317917.89468","330970.038263","Mapping"
"Blocked","m160","ball","2","m160cling.wav","None","728.598803282","142","326373.642909","318685.129226","319452.645423","320202.545253","320970.083092","321737.37236","322504.402237","323271.794458","327141.050279","327908.340166","328675.75372","329442.961677","330193.270844","330960.688108","331727.867313","332494.933671","331737.902583","Mapping"
"Blocked","m160","ball","2","m160depth.wav","None","725.939034484","142","326373.642909","333262.369794","319452.645423","320202.545253","320970.083092","321737.37236","322504.402237","323271.794458","327141.050279","327908.340166","328675.75372","329442.961677","330193.270844","330960.688108","331727.867313","332494.933671","332504.779421","Mapping"
"Blocked","m160","ball","2","m160ball.wav","None","722.846431192","142","326373.642909","333262.369794","334029.595992","320202.545253","320970.083092","321737.37236","322504.402237","323271.794458","327141.050279","327908.340166","328675.75372","329442.961677","330193.270844","330960.688108","331727.867313","332494.933671","333272.203178","Mapping"
"Blocked","m160","ball","2","m160gnash.wav","space","452.896157745","142","326373.642909","333262.369794","334029.595992","334779.720278","320970.083092","321737.37236","322504.402237","323271.794458","327141.050279","327908.340166","328675.75372","329442.961677","330193.270844","330960.688108","331727.867313","332494.933671","334039.409898","Mapping"
"Blocked","m160","ball","2","m160ball.wav","None","733.25146595","142","326373.642909","333262.369794","334029.595992","334779.720278","335546.972755","321737.37236","322504.402237","323271.794458","327141.050279","327908.340166","328675.75372","329442.961677","330193.270844","330960.688108","331727.867313","332494.933671","334788.913066","Mapping"
"Blocked","m160","ball","2","m160gnash.wav","space","503.452474251","142","326373.642909","333262.369794","334029.595992","334779.720278","335546.972755","336314.492353","322504.402237","323271.794458","327141.050279","327908.340166","328675.75372","329442.961677","330193.270844","330960.688108","331727.867313","332494.933671","335556.801192","Mapping"
"Blocked","m160","ball","2","m160cling.wav","None","725.094079506","142","326373.642909","333262.369794","334029.595992","334779.720278","335546.972755","336314.492353","337081.742357","323271.794458","327141.050279","327908.340166","328675.75372","329442.961677","330193.270844","330960.688108","331727.867313","332494.933671","336324.296675","Mapping"
"Blocked","m160","ball","2","m160reek.wav","None","722.413287498","142","326373.642909","333262.369794","334029.595992","334779.720278","335546.972755","336314.492353","337081.742357","337832.463645","327141.050279","327908.340166","328675.75372","329442.961677","330193.270844","330960.688108","331727.867313","332494.933671","337091.346338","Mapping"
"Blocked","m160","ball","6","m160bluff.wav","None","735.881863162","142","340951.090001","333262.369794","334029.595992","334779.720278","335546.972755","336314.492353","337081.742357","337832.463645","327141.050279","327908.340166","328675.75372","329442.961677","330193.270844","330960.688108","331727.867313","332494.933671","337842.247871","Mapping"
"Blocked","m160","ball","6","m160ball.wav","None","735.019904096","142","340951.090001","333262.369794","334029.595992","334779.720278","335546.972755","336314.492353","337081.742357","337832.463645","341718.321146","327908.340166","328675.75372","329442.961677","330193.270844","330960.688108","331727.867313","332494.933671","340961.61592","Mapping"
"Blocked","m160","ball","6","m160park.wav","space","459.830786567","142","340951.090001","333262.369794","334029.595992","334779.720278","335546.972755","336314.492353","337081.742357","337832.463645","341718.321146","342485.616598","328675.75372","329442.961677","330193.270844","330960.688108","331727.867313","332494.933671","341728.21018","Mapping"
"Blocked","m160","ball","6","m160done.wav","None","729.283918627","142","340951.090001","333262.369794","334029.595992","334779.720278","335546.972755","336314.492353","337081.742357","337832.463645","341718.321146","342485.616598","343252.553415","329442.961677","330193.270844","330960.688108","331727.867313","332494.933671","342495.176986","Mapping"
"Blocked","m160","ball","6","m160priest.wav","None","726.977528539","142","340951.090001","333262.369794","334029.595992","334779.720278","335546.972755","336314.492353","337081.742357","337832.463645","341718.321146","342485.616598","343252.553415","344020.482969","330193.270844","330960.688108","331727.867313","332494.933671","343261.895531","Mapping"
"Blocked","m160","ball","6","m160park.wav","None","722.397211008","142","340951.090001","333262.369794","334029.595992","334779.720278","335546.972755","336314.492353","337081.742357","337832.463645","341718.321146","342485.616598","343252.553415","344020.482969","344787.868388","330960.688108","331727.867313","332494.933671","344030.777322","Mapping"
"Blocked","m160","ball","6","m160lash.wav","None","719.251740258","142","340951.090001","333262.369794","334029.595992","334779.720278","335546.972755","336314.492353","337081.742357","337832.463645","341718.321146","342485.616598","343252.553415","344020.482969","344787.868388","345537.48533","331727.867313","332494.933671","344798.175108","Mapping"
"Blocked","m160","ball","6","m160ball.wav","None","734.913859982","142","340951.090001","333262.369794","334029.595992","334779.720278","335546.972755","336314.492353","337081.742357","337832.463645","341718.321146","342485.616598","343252.553415","344020.482969","344787.868388","345537.48533","346305.155493","332494.933671","345546.812297","Mapping"
"Blocked","m160","ball","6","m160cling.wav","space","448.679422028","142","340951.090001","333262.369794","334029.595992","334779.720278","335546.972755","336314.492353","337081.742357","337832.463645","341718.321146","342485.616598","343252.553415","344020.482969","344787.868388","345537.48533","346305.155493","347071.909283","346315.178396","Mapping"
"Blocked","m160","ball","6","m160ball.wav","None","727.658933494","142","340951.090001","347839.088797","334029.595992","334779.720278","335546.972755","336314.492353","337081.742357","337832.463645","341718.321146","342485.616598","343252.553415","344020.482969","344787.868388","345537.48533","346305.155493","347071.909283","347081.387742","Mapping"
"Blocked","m160","ball","6","m160romp.wav","space","443.409351166","142","340951.090001","347839.088797","348606.994545","334779.720278","335546.972755","336314.492353","337081.742357","337832.463645","341718.321146","342485.616598","343252.553415","344020.482969","344787.868388","345537.48533","346305.155493","347071.909283","347848.381446","Mapping"
"Blocked","m160","ball","6","m160jolt.wav","None","723.729723599","142","340951.090001","347839.088797","348606.994545","349374.029059","335546.972755","336314.492353","337081.742357","337832.463645","341718.321146","342485.616598","343252.553415","344020.482969","344787.868388","345537.48533","346305.155493","347071.909283","348616.71199","Mapping"
"Blocked","m160","ball","6","m160ball.wav","None","720.717812888","142","340951.090001","347839.088797","348606.994545","349374.029059","350124.038334","336314.492353","337081.742357","337832.463645","341718.321146","342485.616598","343252.553415","344020.482969","344787.868388","345537.48533","346305.155493","347071.909283","349384.140075","Mapping"
"Blocked","m160","ball","6","m160knife.wav","space","638.439359143","142","340951.090001","347839.088797","348606.994545","349374.029059","350124.038334","350891.81887","337081.742357","337832.463645","341718.321146","342485.616598","343252.553415","344020.482969","344787.868388","345537.48533","346305.155493","347071.909283","350133.285227","Mapping"
"Blocked","m160","ball","6","m160lash.wav","None","730.715673417","142","340951.090001","347839.088797","348606.994545","349374.029059","350124.038334","350891.81887","351658.842872","337832.463645","341718.321146","342485.616598","343252.553415","344020.482969","344787.868388","345537.48533","346305.155493","347071.909283","350901.24477","Mapping"
"Blocked","m160","ball","6","m160reek.wav","None","728.050030768","142","340951.090001","347839.088797","348606.994545","349374.029059","350124.038334","350891.81887","351658.842872","352426.28085","341718.321146","342485.616598","343252.553415","344020.482969","344787.868388","345537.48533","346305.155493","347071.909283","351668.48179","Mapping"
"Blocked","m160","ball","4","m160priest.wav","None","723.53371093","142","355528.14445","347839.088797","348606.994545","349374.029059","350124.038334","350891.81887","351658.842872","352426.28085","341718.321146","342485.616598","343252.553415","344020.482969","344787.868388","345537.48533","346305.155493","347071.909283","352437.212088","Mapping"
"Blocked","m160","ball","4","m160dime.wav","None","736.433109269","142","355528.14445","347839.088797","348606.994545","349374.029059","350124.038334","350891.81887","351658.842872","352426.28085","356295.784933","342485.616598","343252.553415","344020.482969","344787.868388","345537.48533","346305.155493","347071.909283","355537.658464","Mapping"
"Blocked","m160","ball","4","m160gnash.wav","None","732.906434685","142","355528.14445","347839.088797","348606.994545","349374.029059","350124.038334","350891.81887","351658.842872","352426.28085","356295.784933","357063.506418","343252.553415","344020.482969","344787.868388","345537.48533","346305.155493","347071.909283","356305.699009","Mapping"
"Blocked","m160","ball","4","m160park.wav","None","729.214665014","142","355528.14445","347839.088797","348606.994545","349374.029059","350124.038334","350891.81887","351658.842872","352426.28085","356295.784933","357063.506418","357829.883023","344020.482969","344787.868388","345537.48533","346305.155493","347071.909283","357073.744811","Mapping"
"Blocked","m160","ball","4","m160ball.wav","None","728.393516038","142","355528.14445","347839.088797","348606.994545","349374.029059","350124.038334","350891.81887","351658.842872","352426.28085","356295.784933","357063.506418","357829.883023","358597.149104","344787.868388","345537.48533","346305.155493","347071.909283","357838.995737","Mapping"
"Blocked","m160","ball","4","m160priest.wav","space","596.452240366","142","355528.14445","347839.088797","348606.994545","349374.029059","350124.038334","350891.81887","351658.842872","352426.28085","356295.784933","357063.506418","357829.883023","358597.149104","359364.696218","345537.48533","346305.155493","347071.909283","358606.971667","Mapping"
"Blocked","m160","ball","4","m160knife.wav","None","719.976119697","142","355528.14445","347839.088797","348606.994545","349374.029059","350124.038334","350891.81887","351658.842872","352426.28085","356295.784933","357063.506418","357829.883023","358597.149104","359364.696218","360114.958701","346305.155493","347071.909283","359374.658215","Mapping"
"Blocked","m160","ball","4","m160ball.wav","None","733.97893738","142","355528.14445","347839.088797","348606.994545","349374.029059","350124.038334","350891.81887","351658.842872","352426.28085","356295.784933","357063.506418","357829.883023","358597.149104","359364.696218","360114.958701","360882.427596","347071.909283","360125.148555","Mapping"
"Blocked","m160","ball","4","m160jolt.wav","space","662.931303959","142","355528.14445","347839.088797","348606.994545","349374.029059","350124.038334","350891.81887","351658.842872","352426.28085","356295.784933","357063.506418","357829.883023","358597.149104","359364.696218","360114.958701","360882.427596","361649.576812","360892.404124","Mapping"
"Blocked","m160","ball","4","m160ball.wav","None","727.458593436","142","355528.14445","362416.744577","348606.994545","349374.029059","350124.038334","350891.81887","351658.842872","352426.28085","356295.784933","357063.506418","357829.883023","358597.149104","359364.696218","360114.958701","360882.427596","361649.576812","361659.083095","Mapping"
"Blocked","m160","ball","4","m160cling.wav","space","432.977728546","142","355528.14445","362416.744577","363183.86133","349374.029059","350124.038334","350891.81887","351658.842872","352426.28085","356295.784933","357063.506418","357829.883023","358597.149104","359364.696218","360114.958701","360882.427596","361649.576812","362426.307748","Mapping"
"Blocked","m160","ball","4","m160dime.wav","None","720.920317341","142","355528.14445","362416.744577","363183.86133","363934.279942","350124.038334","350891.81887","351658.842872","352426.28085","356295.784933","357063.506418","357829.883023","358597.149104","359364.696218","360114.958701","360882.427596","361649.576812","363193.436558","Mapping"
"Blocked","m160","ball","4","m160ball.wav","None","735.016503371","142","355528.14445","362416.744577","363183.86133","363934.279942","364701.79614","350891.81887","351658.842872","352426.28085","356295.784933","357063.506418","357829.883023","358597.149104","359364.696218","360114.958701","360882.427596","361649.576812","363943.626696","Mapping"
"Blocked","m160","ball","4","m160cave.wav","space","603.486420587","142","355528.14445","362416.744577","363183.86133","363934.279942","364701.79614","365469.105813","351658.842872","352426.28085","356295.784933","357063.506418","357829.883023","358597.149104","359364.696218","360114.958701","360882.427596","361649.576812","364711.687647","Mapping"
"Blocked","m160","ball","4","m160cave.wav","None","727.299990132","142","355528.14445","362416.744577","363183.86133","363934.279942","364701.79614","365469.105813","366236.257502","352426.28085","356295.784933","357063.506418","357829.883023","358597.149104","359364.696218","360114.958701","360882.427596","361649.576812","365478.728963","Mapping"
"Blocked","m160","ball","4","m160jaw.wav","None","724.38979568","142","355528.14445","362416.744577","363183.86133","363934.279942","364701.79614","365469.105813","366236.257502","367003.466696","356295.784933","357063.506418","357829.883023","358597.149104","359364.696218","360114.958701","360882.427596","361649.576812","366246.061515","Mapping"
"Blocked","m160","ball","5","m160cad.wav","None","721.251745243","142","370105.487662","362416.744577","363183.86133","363934.279942","364701.79614","365469.105813","366236.257502","367003.466696","356295.784933","357063.506418","357829.883023","358597.149104","359364.696218","360114.958701","360882.427596","361649.576812","367013.688394","Mapping"
"Blocked","m160","ball","5","m160cling.wav","None","735.472216271","142","370105.487662","362416.744577","363183.86133","363934.279942","364701.79614","365469.105813","366236.257502","367003.466696","370873.002314","357063.506418","357829.883023","358597.149104","359364.696218","360114.958701","360882.427596","361649.576812","370115.154405","Mapping"
"Blocked","m160","ball","5","m160greet.wav","None","731.742728036","142","370105.487662","362416.744577","363183.86133","363934.279942","364701.79614","365469.105813","366236.257502","367003.466696","370873.002314","371640.251699","357829.883023","358597.149104","359364.696218","360114.958701","360882.427596","361649.576812","370883.496079","Mapping"
"Blocked","m160","ball","5","m160ball.wav","None","730.09641096","142","370105.487662","362416.744577","363183.86133","363934.279942","364701.79614","365469.105813","366236.257502","367003.466696","370873.002314","371640.251699","372407.262408","358597.149104","359364.696218","360114.958701","360882.427596","361649.576812","371650.007482","Mapping"
"Blocked","m160","ball","5","m160greet.wav","space","449.36206378","142","370105.487662","362416.744577","363183.86133","363934.279942","364701.79614","365469.105813","366236.257502","367003.466696","370873.002314","371640.251699","372407.262408","373174.621857","359364.696218","360114.958701","360882.427596","361649.576812","372417.542538","Mapping"
"Blocked","m160","ball","5","m160jaw.wav","None","723.663870711","142","370105.487662","362416.744577","363183.86133","363934.279942","364701.79614","365469.105813","366236.257502","367003.466696","370873.002314","371640.251699","372407.262408","373174.621857","373942.006967","360114.958701","360882.427596","361649.576812","373184.458023","Mapping"
"Blocked","m160","ball","5","m160ball.wav","None","720.684113447","142","370105.487662","362416.744577","363183.86133","363934.279942","364701.79614","365469.105813","366236.257502","367003.466696","370873.002314","371640.251699","372407.262408","373174.621857","373942.006967","374692.072202","360882.427596","361649.576812","373951.992461","Mapping"
"Blocked","m160","ball","5","m160dime.wav","space","460.847329348","142","370105.487662","362416.744577","363183.86133","363934.279942","364701.79614","365469.105813","366236.257502","367003.466696","370873.002314","371640.251699","372407.262408","373174.621857","373942.006967","374692.072202","375459.690115","361649.576812","374701.979785","Mapping"
"Blocked","m160","ball","5","m160bluff.wav","None","730.554288253","142","370105.487662","362416.744577","363183.86133","363934.279942","364701.79614","365469.105813","366236.257502","367003.466696","370873.002314","371640.251699","372407.262408","373174.621857","373942.006967","374692.072202","375459.690115","376226.692476","375469.492272","Mapping"
"Blocked","m160","ball","5","m160romp.wav","None","728.076000698","142","370105.487662","376993.814485","363183.86133","363934.279942","364701.79614","365469.105813","366236.257502","367003.466696","370873.002314","371640.251699","372407.262408","373174.621857","373942.006967","374692.072202","375459.690115","376226.692476","376236.552757","Mapping"
"Blocked","m160","ball","5","m160knife.wav","None","726.113405544","142","370105.487662","376993.814485","377761.126941","363934.279942","364701.79614","365469.105813","366236.257502","367003.466696","370873.002314","371640.251699","372407.262408","373174.621857","373942.006967","374692.072202","375459.690115","376226.692476","377003.130012","Mapping"
"Blocked","m160","ball","5","m160cling.wav","None","722.967006732","142","370105.487662","376993.814485","377761.126941","378528.804214","364701.79614","365469.105813","366236.257502","367003.466696","370873.002314","371640.251699","372407.262408","373174.621857","373942.006967","374692.072202","375459.690115","376226.692476","377770.73154","Mapping"
"Blocked","m160","ball","5","m160ball.wav","None","719.989413861","142","370105.487662","376993.814485","377761.126941","378528.804214","379278.677146","365469.105813","366236.257502","367003.466696","370873.002314","371640.251699","372407.262408","373174.621857","373942.006967","374692.072202","375459.690115","376226.692476","378538.378206","Mapping"
