"Condition","Talker","Target","Trial","current_stimulus","response_response","response_time_response","subject_nr","time_Audio1","time_Audio10","time_Audio11","time_Audio12","time_Audio13","time_Audio14","time_Audio15","time_Audio16","time_Audio2","time_Audio3","time_Audio4","time_Audio5","time_Audio6","time_Audio7","time_Audio8","time_Audio9","time_response","title"
"Blocked","m160","ball","1","m160cad.wav","NA","NA","134","115234.350503","NA","NA","NA","NA","NA","NA","NA","NA","NA","NA","NA","NA","NA","NA","NA","NA","Mapping"
"Blocked","m160","ball","1","m160depth.wav","None","719.181692693","134","115234.350503","NA","NA","NA","NA","NA","NA","NA","116001.386333","NA","NA","NA","NA","NA","NA","NA","115248.167453","Mapping"
"Blocked","m160","ball","1","m160romp.wav","None","723.256904632","134","115234.350503","NA","NA","NA","NA","NA","NA","NA","116001.386333","116767.232464","NA","NA","NA","NA","NA","NA","116011.049541","Mapping"
"Blocked","m160","ball","1","m160ball.wav","None","724.633653183","134","115234.350503","NA","NA","NA","NA","NA","NA","NA","116001.386333","116767.232464","117533.715801","NA","NA","NA","NA","NA","116776.520336","Mapping"
"Blocked","m160","ball","1","m160tile.wav","space","533.016142435","134","115234.350503","NA","NA","NA","NA","NA","NA","NA","116001.386333","116767.232464","117533.715801","118300.836654","NA","NA","NA","NA","117542.600512","Mapping"
"Blocked","m160","ball","1","m160cave.wav","None","724.180405028","134","115234.350503","NA","NA","NA","NA","NA","NA","NA","116001.386333","116767.232464","117533.715801","118300.836654","119067.242389","NA","NA","NA","118310.574682","Mapping"
"Blocked","m160","ball","1","m160cling.wav","None","725.553133991","134","115234.350503","NA","NA","NA","NA","NA","NA","NA","116001.386333","116767.232464","117533.715801","118300.836654","119067.242389","119834.138472","NA","NA","119076.090925","Mapping"
"Blocked","m160","ball","1","m160ball.wav","None","725.21706298","134","115234.350503","NA","NA","NA","NA","NA","NA","NA","116001.386333","116767.232464","117533.715801","118300.836654","119067.242389","119834.138472","120600.867911","NA","119843.419542","Mapping"
"Blocked","m160","ball","1","m160cad.wav","space","457.085368689","134","115234.350503","NA","NA","NA","NA","NA","NA","NA","116001.386333","116767.232464","117533.715801","118300.836654","119067.242389","119834.138472","120600.867911","121350.462353","120610.461865","Mapping"
"Blocked","m160","ball","1","m160reek.wav","None","734.349111561","134","115234.350503","122117.804883","NA","NA","NA","NA","NA","NA","116001.386333","116767.232464","117533.715801","118300.836654","119067.242389","119834.138472","120600.867911","121350.462353","121361.305675","Mapping"
"Blocked","m160","ball","1","m160ball.wav","None","735.370928887","134","115234.350503","122117.804883","122884.135798","NA","NA","NA","NA","NA","116001.386333","116767.232464","117533.715801","118300.836654","119067.242389","119834.138472","120600.867911","121350.462353","122127.205912","Mapping"
"Blocked","m160","ball","1","m160jaw.wav","space","430.255936924","134","115234.350503","122117.804883","122884.135798","123650.840812","NA","NA","NA","NA","116001.386333","116767.232464","117533.715801","118300.836654","119067.242389","119834.138472","120600.867911","121350.462353","122893.298145","Mapping"
"Blocked","m160","ball","1","m160ball.wav","None","731.245322153","134","115234.350503","122117.804883","122884.135798","123650.840812","124417.40608","NA","NA","NA","116001.386333","116767.232464","117533.715801","118300.836654","119067.242389","119834.138472","120600.867911","121350.462353","123661.7942","Mapping"
"Blocked","m160","ball","1","m160tile.wav","space","617.119291332","134","115234.350503","122117.804883","122884.135798","123650.840812","124417.40608","125184.069047","NA","NA","116001.386333","116767.232464","117533.715801","118300.836654","119067.242389","119834.138472","120600.867911","121350.462353","124426.3956","Mapping"
"Blocked","m160","ball","1","m160romp.wav","None","725.364538375","134","115234.350503","122117.804883","122884.135798","123650.840812","124417.40608","125184.069047","125951.329646","NA","116001.386333","116767.232464","117533.715801","118300.836654","119067.242389","119834.138472","120600.867911","121350.462353","125194.988735","Mapping"
"Blocked","m160","ball","1","m160jolt.wav","None","723.491567187","134","115234.350503","122117.804883","122884.135798","123650.840812","124417.40608","125184.069047","125951.329646","126716.800132","116001.386333","116767.232464","117533.715801","118300.836654","119067.242389","119834.138472","120600.867911","121350.462353","125960.863929","Mapping"
"Blocked","m160","cave","8","m160cad.wav","None","731.540272944","134","129901.100131","122117.804883","122884.135798","123650.840812","124417.40608","125184.069047","125951.329646","126716.800132","116001.386333","116767.232464","117533.715801","118300.836654","119067.242389","119834.138472","120600.867911","121350.462353","126725.400093","Mapping"
"Blocked","m160","cave","8","m160cave.wav","None","717.206075788","134","129901.100131","122117.804883","122884.135798","123650.840812","124417.40608","125184.069047","125951.329646","126716.800132","130650.60213","116767.232464","117533.715801","118300.836654","119067.242389","119834.138472","120600.867911","121350.462353","129913.381109","Mapping"
"Blocked","m160","cave","8","m160cling.wav","space","623.523195274","134","129901.100131","122117.804883","122884.135798","123650.840812","124417.40608","125184.069047","125951.329646","126716.800132","130650.60213","131417.329405","117533.715801","118300.836654","119067.242389","119834.138472","120600.867911","121350.462353","130659.868051","Mapping"
"Blocked","m160","cave","8","m160tile.wav","None","728.366300929","134","129901.100131","122117.804883","122884.135798","123650.840812","124417.40608","125184.069047","125951.329646","126716.800132","130650.60213","131417.329405","132184.687703","118300.836654","119067.242389","119834.138472","120600.867911","121350.462353","131429.725086","Mapping"
"Blocked","m160","cave","8","m160cave.wav","None","728.230264969","134","129901.100131","122117.804883","122884.135798","123650.840812","124417.40608","125184.069047","125951.329646","126716.800132","130650.60213","131417.329405","132184.687703","132950.82693","119067.242389","119834.138472","120600.867911","121350.462353","132193.752042","Mapping"
"Blocked","m160","cave","8","m160park.wav","space","723.175592255","134","129901.100131","122117.804883","122884.135798","123650.840812","124417.40608","125184.069047","125951.329646","126716.800132","130650.60213","131417.329405","132184.687703","132950.82693","133716.941733","119834.138472","120600.867911","121350.462353","132960.18684","Mapping"
"Blocked","m160","cave","8","m160jaw.wav","None","726.747469977","134","129901.100131","122117.804883","122884.135798","123650.840812","124417.40608","125184.069047","125951.329646","126716.800132","130650.60213","131417.329405","132184.687703","132950.82693","133716.941733","134484.242215","120600.867911","121350.462353","133725.741421","Mapping"
"Blocked","m160","cave","8","m160cave.wav","None","722.686789464","134","129901.100131","122117.804883","122884.135798","123650.840812","124417.40608","125184.069047","125951.329646","126716.800132","130650.60213","131417.329405","132184.687703","132950.82693","133716.941733","134484.242215","135251.045546","121350.462353","134494.018272","Mapping"
"Blocked","m160","cave","8","m160bluff.wav","space","686.434376519","134","129901.100131","122117.804883","122884.135798","123650.840812","124417.40608","125184.069047","125951.329646","126716.800132","130650.60213","131417.329405","132184.687703","132950.82693","133716.941733","134484.242215","135251.045546","136017.390992","135260.85252","Mapping"
"Blocked","m160","cave","8","m160lash.wav","None","721.095784102","134","129901.100131","136784.041902","122884.135798","123650.840812","124417.40608","125184.069047","125951.329646","126716.800132","130650.60213","131417.329405","132184.687703","132950.82693","133716.941733","134484.242215","135251.045546","136017.390992","136026.165328","Mapping"
"Blocked","m160","cave","8","m160cave.wav","None","720.383448992","134","129901.100131","136784.041902","137533.715492","123650.840812","124417.40608","125184.069047","125951.329646","126716.800132","130650.60213","131417.329405","132184.687703","132950.82693","133716.941733","134484.242215","135251.045546","136017.390992","136793.846093","Mapping"
"Blocked","m160","cave","8","m160jaw.wav","space","684.011695441","134","129901.100131","136784.041902","137533.715492","138300.126792","124417.40608","125184.069047","125951.329646","126716.800132","130650.60213","131417.329405","132184.687703","132950.82693","133716.941733","134484.242215","135251.045546","136017.390992","137543.27049","Mapping"
"Blocked","m160","cave","8","m160park.wav","None","732.716058847","134","129901.100131","136784.041902","137533.715492","138300.126792","139066.820058","125184.069047","125951.329646","126716.800132","130650.60213","131417.329405","132184.687703","132950.82693","133716.941733","134484.242215","135251.045546","136017.390992","138308.812395","Mapping"
"Blocked","m160","cave","8","m160depth.wav","None","729.58042426","134","129901.100131","136784.041902","137533.715492","138300.126792","139066.820058","139833.717378","125951.329646","126716.800132","130650.60213","131417.329405","132184.687703","132950.82693","133716.941733","134484.242215","135251.045546","136017.390992","139075.598103","Mapping"
"Blocked","m160","cave","8","m160jolt.wav","None","725.762135349","134","129901.100131","136784.041902","137533.715492","138300.126792","139066.820058","139833.717378","140600.865128","126716.800132","130650.60213","131417.329405","132184.687703","132950.82693","133716.941733","134484.242215","135251.045546","136017.390992","139843.126137","Mapping"
"Blocked","m160","cave","8","m160bluff.wav","None","722.040617373","134","129901.100131","136784.041902","137533.715492","138300.126792","139066.820058","139833.717378","140600.865128","141367.512637","130650.60213","131417.329405","132184.687703","132950.82693","133716.941733","134484.242215","135251.045546","136017.390992","140610.439295","Mapping"
"Blocked","m160","done","21","m160greet.wav","None","718.943629414","134","144484.100614","136784.041902","137533.715492","138300.126792","139066.820058","139833.717378","140600.865128","141367.512637","130650.60213","131417.329405","132184.687703","132950.82693","133716.941733","134484.242215","135251.045546","136017.390992","141377.243245","Mapping"
"Blocked","m160","done","21","m160bluff.wav","None","723.15085819","134","144484.100614","136784.041902","137533.715492","138300.126792","139066.820058","139833.717378","140600.865128","141367.512637","145250.714422","131417.329405","132184.687703","132950.82693","133716.941733","134484.242215","135251.045546","136017.390992","144493.564715","Mapping"
"Blocked","m160","done","21","m160cad.wav","None","720.372009557","134","144484.100614","136784.041902","137533.715492","138300.126792","139066.820058","139833.717378","140600.865128","141367.512637","145250.714422","146000.042975","132184.687703","132950.82693","133716.941733","134484.242215","135251.045546","136017.390992","145260.186871","Mapping"
"Blocked","m160","done","21","m160done.wav","None","735.579621047","134","144484.100614","136784.041902","137533.715492","138300.126792","139066.820058","139833.717378","140600.865128","141367.512637","145250.714422","146000.042975","146766.79653","132950.82693","133716.941733","134484.242215","135251.045546","136017.390992","146008.820093","Mapping"
"Blocked","m160","done","21","m160tile.wav","space","514.786672313","134","144484.100614","136784.041902","137533.715492","138300.126792","139066.820058","139833.717378","140600.865128","141367.512637","145250.714422","146000.042975","146766.79653","147533.665406","133716.941733","134484.242215","135251.045546","136017.390992","146776.291548","Mapping"
"Blocked","m160","done","21","m160done.wav","None","732.162947766","134","144484.100614","136784.041902","137533.715492","138300.126792","139066.820058","139833.717378","140600.865128","141367.512637","145250.714422","146000.042975","146766.79653","147533.665406","148300.266847","134484.242215","135251.045546","136017.390992","147542.85156","Mapping"
"Blocked","m160","done","21","m160gnash.wav","None","729.461701587","134","144484.100614","136784.041902","137533.715492","138300.126792","139066.820058","139833.717378","140600.865128","141367.512637","145250.714422","146000.042975","146766.79653","147533.665406","148300.266847","149066.963514","135251.045546","136017.390992","148309.593366","Mapping"
"Blocked","m160","done","21","m160dime.wav","space","63.0119713023","134","144484.100614","136784.041902","137533.715492","138300.126792","139066.820058","139833.717378","140600.865128","141367.512637","145250.714422","146000.042975","146766.79653","147533.665406","148300.266847","149066.963514","149833.637302","136017.390992","149076.047641","Mapping"
"Blocked","m160","done","21","m160cave.wav","None","729.937209748","134","144484.100614","136784.041902","137533.715492","138300.126792","139066.820058","139833.717378","140600.865128","141367.512637","145250.714422","146000.042975","146766.79653","147533.665406","148300.266847","149066.963514","149833.637302","150600.423939","149843.029675","Mapping"
"Blocked","m160","done","21","m160greet.wav","None","727.422704455","134","144484.100614","151367.287868","137533.715492","138300.126792","139066.820058","139833.717378","140600.865128","141367.512637","145250.714422","146000.042975","146766.79653","147533.665406","148300.266847","149066.963514","149833.637302","150600.423939","150609.45025","Mapping"
"Blocked","m160","done","21","m160done.wav","None","723.778479733","134","144484.100614","151367.287868","152134.006486","138300.126792","139066.820058","139833.717378","140600.865128","141367.512637","145250.714422","146000.042975","146766.79653","147533.665406","148300.266847","149066.963514","149833.637302","150600.423939","151376.858015","Mapping"
"Blocked","m160","done","21","m160bluff.wav","space","635.140996892","134","144484.100614","151367.287868","152134.006486","152883.432738","139066.820058","139833.717378","140600.865128","141367.512637","145250.714422","146000.042975","146766.79653","147533.665406","148300.266847","149066.963514","149833.637302","150600.423939","152143.878696","Mapping"
"Blocked","m160","done","21","m160greet.wav","None","735.04351452","134","144484.100614","151367.287868","152134.006486","152883.432738","153650.531639","139833.717378","140600.865128","141367.512637","145250.714422","146000.042975","146766.79653","147533.665406","148300.266847","149066.963514","149833.637302","150600.423939","152892.876742","Mapping"
"Blocked","m160","done","21","m160done.wav","None","731.740617659","134","144484.100614","151367.287868","152134.006486","152883.432738","153650.531639","154416.657572","140600.865128","141367.512637","145250.714422","146000.042975","146766.79653","147533.665406","148300.266847","149066.963514","149833.637302","150600.423939","153659.875471","Mapping"
"Blocked","m160","done","21","m160romp.wav","space","609.452104662","134","144484.100614","151367.287868","152134.006486","152883.432738","153650.531639","154416.657572","155183.543143","141367.512637","145250.714422","146000.042975","146766.79653","147533.665406","148300.266847","149066.963514","149833.637302","150600.423939","154425.534862","Mapping"
"Blocked","m160","done","21","m160jolt.wav","None","726.37862619","134","144484.100614","151367.287868","152134.006486","152883.432738","153650.531639","154416.657572","155183.543143","155950.738198","145250.714422","146000.042975","146766.79653","147533.665406","148300.266847","149066.963514","149833.637302","150600.423939","155192.615522","Mapping"
"Blocked","m160","ball","6","m160reek.wav","None","722.734401934","134","159067.149946","151367.287868","152134.006486","152883.432738","153650.531639","154416.657572","155183.543143","155950.738198","145250.714422","146000.042975","146766.79653","147533.665406","148300.266847","149066.963514","149833.637302","150600.423939","155960.411918","Mapping"
"Blocked","m160","ball","6","m160jaw.wav","None","720.430443063","134","159067.149946","151367.287868","152134.006486","152883.432738","153650.531639","154416.657572","155183.543143","155950.738198","159816.598767","146000.042975","146766.79653","147533.665406","148300.266847","149066.963514","149833.637302","150600.423939","159076.794604","Mapping"
"Blocked","m160","ball","6","m160cave.wav","None","735.517477151","134","159067.149946","151367.287868","152134.006486","152883.432738","153650.531639","154416.657572","155183.543143","155950.738198","159816.598767","160583.451875","146766.79653","147533.665406","148300.266847","149066.963514","149833.637302","150600.423939","159825.570974","Mapping"
"Blocked","m160","ball","6","m160ball.wav","None","731.90911673","134","159067.149946","151367.287868","152134.006486","152883.432738","153650.531639","154416.657572","155183.543143","155950.738198","159816.598767","160583.451875","161350.100002","147533.665406","148300.266847","149066.963514","149833.637302","150600.423939","160593.107355","Mapping"
"Blocked","m160","ball","6","m160lash.wav","space","475.7074886","134","159067.149946","151367.287868","152134.006486","152883.432738","153650.531639","154416.657572","155183.543143","155950.738198","159816.598767","160583.451875","161350.100002","162116.733907","148300.266847","149066.963514","149833.637302","150600.423939","161359.157231","Mapping"
"Blocked","m160","ball","6","m160greet.wav","None","726.352346595","134","159067.149946","151367.287868","152134.006486","152883.432738","153650.531639","154416.657572","155183.543143","155950.738198","159816.598767","160583.451875","161350.100002","162116.733907","162883.767881","149066.963514","149833.637302","150600.423939","162126.207592","Mapping"
"Blocked","m160","ball","6","m160bluff.wav","None","723.191360012","134","159067.149946","151367.287868","152134.006486","152883.432738","153650.531639","154416.657572","155183.543143","155950.738198","159816.598767","160583.451875","161350.100002","162116.733907","162883.767881","163650.510924","149833.637302","150600.423939","162893.354415","Mapping"
"Blocked","m160","ball","6","m160ball.wav","None","720.083551016","134","159067.149946","151367.287868","152134.006486","152883.432738","153650.531639","154416.657572","155183.543143","155950.738198","159816.598767","160583.451875","161350.100002","162116.733907","162883.767881","163650.510924","164399.837932","150600.423939","163660.401993","Mapping"
"Blocked","m160","ball","6","m160romp.wav","space","594.024362043","134","159067.149946","151367.287868","152134.006486","152883.432738","153650.531639","154416.657572","155183.543143","155950.738198","159816.598767","160583.451875","161350.100002","162116.733907","162883.767881","163650.510924","164399.837932","165166.682074","164408.771491","Mapping"
"Blocked","m160","ball","6","m160ball.wav","None","731.863050256","134","159067.149946","165933.301757","152134.006486","152883.432738","153650.531639","154416.657572","155183.543143","155950.738198","159816.598767","160583.451875","161350.100002","162116.733907","162883.767881","163650.510924","164399.837932","165166.682074","165176.282211","Mapping"
"Blocked","m160","ball","6","m160priest.wav","space","628.043925855","134","159067.149946","165933.301757","166700.004607","152883.432738","153650.531639","154416.657572","155183.543143","155950.738198","159816.598767","160583.451875","161350.100002","162116.733907","162883.767881","163650.510924","164399.837932","165166.682074","165942.72752","Mapping"
"Blocked","m160","ball","6","m160priest.wav","None","729.928243905","134","159067.149946","165933.301757","166700.004607","167466.218036","153650.531639","154416.657572","155183.543143","155950.738198","159816.598767","160583.451875","161350.100002","162116.733907","162883.767881","163650.510924","164399.837932","165166.682074","166709.103883","Mapping"
"Blocked","m160","ball","6","m160cave.wav","None","727.993438486","134","159067.149946","165933.301757","166700.004607","167466.218036","168233.318483","154416.657572","155183.543143","155950.738198","159816.598767","160583.451875","161350.100002","162116.733907","162883.767881","163650.510924","164399.837932","165166.682074","167475.047404","Mapping"
"Blocked","m160","ball","6","m160cling.wav","None","724.643237423","134","159067.149946","165933.301757","166700.004607","167466.218036","168233.318483","169000.404399","155183.543143","155950.738198","159816.598767","160583.451875","161350.100002","162116.733907","162883.767881","163650.510924","164399.837932","165166.682074","168242.655204","Mapping"
"Blocked","m160","ball","6","m160ball.wav","None","720.973351505","134","159067.149946","165933.301757","166700.004607","167466.218036","168233.318483","169000.404399","169749.987092","155950.738198","159816.598767","160583.451875","161350.100002","162116.733907","162883.767881","163650.510924","164399.837932","165166.682074","169010.262077","Mapping"
"Blocked","m160","ball","6","m160dime.wav","space","627.865842544","134","159067.149946","165933.301757","166700.004607","167466.218036","168233.318483","169000.404399","169749.987092","170516.594717","159816.598767","160583.451875","161350.100002","162116.733907","162883.767881","163650.510924","164399.837932","165166.682074","169758.819243","Mapping"
"Blocked","m160","tile","13","m160greet.wav","None","733.007918578","134","173650.326966","165933.301757","166700.004607","167466.218036","168233.318483","169000.404399","169749.987092","170516.594717","159816.598767","160583.451875","161350.100002","162116.733907","162883.767881","163650.510924","164399.837932","165166.682074","170525.62412","Mapping"
"Blocked","m160","tile","13","m160tile.wav","None","719.54558976","134","173650.326966","165933.301757","166700.004607","167466.218036","168233.318483","169000.404399","169749.987092","170516.594717","174399.375408","160583.451875","161350.100002","162116.733907","162883.767881","163650.510924","164399.837932","165166.682074","173660.284198","Mapping"
"Blocked","m160","tile","13","m160knife.wav","None","735.759868752","134","173650.326966","165933.301757","166700.004607","167466.218036","168233.318483","169000.404399","169749.987092","170516.594717","174399.375408","175183.56324","161350.100002","162116.733907","162883.767881","163650.510924","164399.837932","165166.682074","174408.187772","Mapping"
"Blocked","m160","tile","13","m160knife.wav","None","719.821681269","134","173650.326966","165933.301757","166700.004607","167466.218036","168233.318483","169000.404399","169749.987092","170516.594717","174399.375408","175183.56324","175933.053182","162116.733907","162883.767881","163650.510924","164399.837932","165166.682074","175193.160285","Mapping"
"Blocked","m160","tile","13","m160tile.wav","None","732.837563846","134","173650.326966","165933.301757","166700.004607","167466.218036","168233.318483","169000.404399","169749.987092","170516.594717","174399.375408","175183.56324","175933.053182","176699.789113","162883.767881","163650.510924","164399.837932","165166.682074","175944.546386","Mapping"
"Blocked","m160","tile","13","m160jaw.wav","space","582.082547247","134","173650.326966","165933.301757","166700.004607","167466.218036","168233.318483","169000.404399","169749.987092","170516.594717","174399.375408","175183.56324","175933.053182","176699.789113","177466.524736","163650.510924","164399.837932","165166.682074","176708.498522","Mapping"
"Blocked","m160","tile","13","m160jolt.wav","None","729.231676552","134","173650.326966","165933.301757","166700.004607","167466.218036","168233.318483","169000.404399","169749.987092","170516.594717","174399.375408","175183.56324","175933.053182","176699.789113","177466.524736","178233.214291","164399.837932","165166.682074","177475.572071","Mapping"
"Blocked","m160","tile","13","m160tile.wav","None","726.441697683","134","173650.326966","165933.301757","166700.004607","167466.218036","168233.318483","169000.404399","169749.987092","170516.594717","174399.375408","175183.56324","175933.053182","176699.789113","177466.524736","178233.214291","179000.382756","165166.682074","178242.380659","Mapping"
"Blocked","m160","tile","13","m160bluff.wav","space","496.525974944","134","173650.326966","165933.301757","166700.004607","167466.218036","168233.318483","169000.404399","169749.987092","170516.594717","174399.375408","175183.56324","175933.053182","176699.789113","177466.524736","178233.214291","179000.382756","179766.74799","179010.011647","Mapping"
"Blocked","m160","tile","13","m160lash.wav","None","720.960056875","134","173650.326966","180516.536593","166700.004607","167466.218036","168233.318483","169000.404399","169749.987092","170516.594717","174399.375408","175183.56324","175933.053182","176699.789113","177466.524736","178233.214291","179000.382756","179766.74799","179776.482617","Mapping"
"Blocked","m160","tile","13","m160dime.wav","None","736.115417909","134","173650.326966","180516.536593","181283.035388","167466.218036","168233.318483","169000.404399","169749.987092","170516.594717","174399.375408","175183.56324","175933.053182","176699.789113","177466.524736","178233.214291","179000.382756","179766.74799","180525.561049","Mapping"
"Blocked","m160","tile","13","m160priest.wav","None","733.472605236","134","173650.326966","180516.536593","181283.035388","182049.792035","168233.318483","169000.404399","169749.987092","170516.594717","174399.375408","175183.56324","175933.053182","176699.789113","177466.524736","178233.214291","179000.382756","179766.74799","181292.174239","Mapping"
"Blocked","m160","tile","13","m160ball.wav","None","731.035393197","134","173650.326966","180516.536593","181283.035388","182049.792035","182816.422848","169000.404399","169749.987092","170516.594717","174399.375408","175183.56324","175933.053182","176699.789113","177466.524736","178233.214291","179000.382756","179766.74799","182058.777226","Mapping"
"Blocked","m160","tile","13","m160tile.wav","None","728.536345996","134","173650.326966","180516.536593","181283.035388","182049.792035","182816.422848","183582.601031","169749.987092","170516.594717","174399.375408","175183.56324","175933.053182","176699.789113","177466.524736","178233.214291","179000.382756","179766.74799","182825.365683","Mapping"
"Blocked","m160","tile","13","m160priest.wav","space","499.109426513","134","173650.326966","180516.536593","181283.035388","182049.792035","182816.422848","183582.601031","184349.690039","170516.594717","174399.375408","175183.56324","175933.053182","176699.789113","177466.524736","178233.214291","179000.382756","179766.74799","183591.337338","Mapping"
"Blocked","m160","tile","13","m160cad.wav","None","723.259996157","134","173650.326966","180516.536593","181283.035388","182049.792035","182816.422848","183582.601031","184349.690039","185116.623223","174399.375408","175183.56324","175933.053182","176699.789113","177466.524736","178233.214291","179000.382756","179766.74799","184358.736137","Mapping"
"Blocked","m160","done","23","m160reek.wav","None","720.151878428","134","188233.467195","180516.536593","181283.035388","182049.792035","182816.422848","183582.601031","184349.690039","185116.623223","174399.375408","175183.56324","175933.053182","176699.789113","177466.524736","178233.214291","179000.382756","179766.74799","185126.089178","Mapping"
"Blocked","m160","done","23","m160dime.wav","None","719.557029195","134","188233.467195","180516.536593","181283.035388","182049.792035","182816.422848","183582.601031","184349.690039","185116.623223","188982.830067","175183.56324","175933.053182","176699.789113","177466.524736","178233.214291","179000.382756","179766.74799","188243.207078","Mapping"
"Blocked","m160","done","23","m160gnash.wav","None","734.543272294","134","188233.467195","180516.536593","181283.035388","182049.792035","182816.422848","183582.601031","184349.690039","185116.623223","188982.830067","189749.730169","175933.053182","176699.789113","177466.524736","178233.214291","179000.382756","179766.74799","188992.30808","Mapping"
"Blocked","m160","done","23","m160done.wav","None","732.821177691","134","188233.467195","180516.536593","181283.035388","182049.792035","182816.422848","183582.601031","184349.690039","185116.623223","188982.830067","189749.730169","190515.933705","176699.789113","177466.524736","178233.214291","179000.382756","179766.74799","189759.029481","Mapping"
"Blocked","m160","done","23","m160cave.wav","space","493.683436885","134","188233.467195","180516.536593","181283.035388","182049.792035","182816.422848","183582.601031","184349.690039","185116.623223","188982.830067","189749.730169","190515.933705","191282.982211","177466.524736","178233.214291","179000.382756","179766.74799","190524.676814","Mapping"
"Blocked","m160","done","23","m160tile.wav","None","729.448407423","134","188233.467195","180516.536593","181283.035388","182049.792035","182816.422848","183582.601031","184349.690039","185116.623223","188982.830067","189749.730169","190515.933705","191282.982211","192049.213881","178233.214291","179000.382756","179766.74799","191292.254933","Mapping"
"Blocked","m160","done","23","m160done.wav","None","727.621811908","134","188233.467195","180516.536593","181283.035388","182049.792035","182816.422848","183582.601031","184349.690039","185116.623223","188982.830067","189749.730169","190515.933705","191282.982211","192049.213881","192816.731712","179000.382756","179766.74799","192058.209584","Mapping"
"Blocked","m160","done","23","m160park.wav","space","520.0092257","134","188233.467195","180516.536593","181283.035388","182049.792035","182816.422848","183582.601031","184349.690039","185116.623223","188982.830067","189749.730169","190515.933705","191282.982211","192049.213881","192816.731712","193583.152287","179766.74799","192826.240024","Mapping"
"Blocked","m160","done","23","m160done.wav","None","720.244629774","134","188233.467195","180516.536593","181283.035388","182049.792035","182816.422848","183582.601031","184349.690039","185116.623223","188982.830067","189749.730169","190515.933705","191282.982211","192049.213881","192816.731712","193583.152287","194332.588742","193593.163315","Mapping"
"Blocked","m160","done","23","m160romp.wav","space","492.486936506","134","188233.467195","195099.537693","181283.035388","182049.792035","182816.422848","183582.601031","184349.690039","185116.623223","188982.830067","189749.730169","190515.933705","191282.982211","192049.213881","192816.731712","193583.152287","194332.588742","194341.755418","Mapping"
"Blocked","m160","done","23","m160ball.wav","None","725.728744175","134","188233.467195","195099.537693","195866.132024","182049.792035","182816.422848","183582.601031","184349.690039","185116.623223","188982.830067","189749.730169","190515.933705","191282.982211","192049.213881","192816.731712","193583.152287","194332.588742","195115.151249","Mapping"
"Blocked","m160","done","23","m160done.wav","None","729.744904209","134","188233.467195","195099.537693","195866.132024","196632.846623","182816.422848","183582.601031","184349.690039","185116.623223","188982.830067","189749.730169","190515.933705","191282.982211","192049.213881","192816.731712","193583.152287","194332.588742","195875.19018","Mapping"
"Blocked","m160","done","23","m160depth.wav","space","487.795851659","134","188233.467195","195099.537693","195866.132024","196632.846623","197399.98819","183582.601031","184349.690039","185116.623223","188982.830067","189749.730169","190515.933705","191282.982211","192049.213881","192816.731712","193583.152287","194332.588742","196642.407804","Mapping"
"Blocked","m160","done","23","m160priest.wav","None","722.772120964","134","188233.467195","195099.537693","195866.132024","196632.846623","197399.98819","198166.552839","184349.690039","185116.623223","188982.830067","189749.730169","190515.933705","191282.982211","192049.213881","192816.731712","193583.152287","194332.588742","197409.744459","Mapping"
"Blocked","m160","done","23","m160priest.wav","None","720.700660255","134","188233.467195","195099.537693","195866.132024","196632.846623","197399.98819","198166.552839","198915.526462","185116.623223","188982.830067","189749.730169","190515.933705","191282.982211","192049.213881","192816.731712","193583.152287","194332.588742","198175.858953","Mapping"
"Blocked","m160","done","23","m160depth.wav","None","736.891133711","134","188233.467195","195099.537693","195866.132024","196632.846623","197399.98819","198166.552839","198915.526462","199682.290838","188982.830067","189749.730169","190515.933705","191282.982211","192049.213881","192816.731712","193583.152287","194332.588742","198924.221958","Mapping"
"Blocked","m160","tile","14","m160gnash.wav","None","734.010257758","134","202816.530131","195099.537693","195866.132024","196632.846623","197399.98819","198166.552839","198915.526462","199682.290838","188982.830067","189749.730169","190515.933705","191282.982211","192049.213881","192816.731712","193583.152287","194332.588742","199691.150814","Mapping"
"Blocked","m160","tile","14","m160tile.wav","None","720.536180306","134","202816.530131","195099.537693","195866.132024","196632.846623","197399.98819","198166.552839","198915.526462","199682.290838","203565.976788","189749.730169","190515.933705","191282.982211","192049.213881","192816.731712","193583.152287","194332.588742","202826.093167","Mapping"
"Blocked","m160","tile","14","m160gnash.wav","space","571.1668781","134","202816.530131","195099.537693","195866.132024","196632.846623","197399.98819","198166.552839","198915.526462","199682.290838","203565.976788","204332.57792","190515.933705","191282.982211","192049.213881","192816.731712","193583.152287","194332.588742","203574.910348","Mapping"
"Blocked","m160","tile","14","m160romp.wav","None","732.280433644","134","202816.530131","195099.537693","195866.132024","196632.846623","197399.98819","198166.552839","198915.526462","199682.290838","203565.976788","204332.57792","205099.213061","191282.982211","192049.213881","192816.731712","193583.152287","194332.588742","204342.013886","Mapping"
"Blocked","m160","tile","14","m160tile.wav","None","730.115602724","134","202816.530131","195099.537693","195866.132024","196632.846623","197399.98819","198166.552839","198915.526462","199682.290838","203565.976788","204332.57792","205099.213061","205865.567474","192049.213881","192816.731712","193583.152287","194332.588742","205108.51361","Mapping"
"Blocked","m160","tile","14","m160romp.wav","space","591.563652735","134","202816.530131","195099.537693","195866.132024","196632.846623","197399.98819","198166.552839","198915.526462","199682.290838","203565.976788","204332.57792","205099.213061","205865.567474","206632.872902","192816.731712","193583.152287","194332.588742","205874.476918","Mapping"
"Blocked","m160","tile","14","m160cave.wav","None","723.690983839","134","202816.530131","195099.537693","195866.132024","196632.846623","197399.98819","198166.552839","198915.526462","199682.290838","203565.976788","204332.57792","205099.213061","205865.567474","206632.872902","207399.168881","193583.152287","194332.588742","206642.669983","Mapping"
"Blocked","m160","tile","14","m160reek.wav","None","722.560028546","134","202816.530131","195099.537693","195866.132024","196632.846623","197399.98819","198166.552839","198915.526462","199682.290838","203565.976788","204332.57792","205099.213061","205865.567474","206632.872902","207399.168881","208166.243976","194332.588742","207407.975061","Mapping"
"Blocked","m160","tile","14","m160tile.wav","None","719.174272381","134","202816.530131","195099.537693","195866.132024","196632.846623","197399.98819","198166.552839","198915.526462","199682.290838","203565.976788","204332.57792","205099.213061","205865.567474","206632.872902","207399.168881","208166.243976","208915.865316","208175.730646","Mapping"
"Blocked","m160","tile","14","m160cling.wav","space","493.166190106","134","202816.530131","209682.138415","195866.132024","196632.846623","197399.98819","198166.552839","198915.526462","199682.290838","203565.976788","204332.57792","205099.213061","205865.567474","206632.872902","207399.168881","208166.243976","208915.865316","208924.823609","Mapping"
"Blocked","m160","tile","14","m160tile.wav","None","732.046699151","134","202816.530131","209682.138415","210449.289876","196632.846623","197399.98819","198166.552839","198915.526462","199682.290838","203565.976788","204332.57792","205099.213061","205865.567474","206632.872902","207399.168881","208166.243976","208915.865316","209690.870703","Mapping"
"Blocked","m160","tile","14","m160reek.wav","space","647.260586265","134","202816.530131","209682.138415","210449.289876","211215.885133","197399.98819","198166.552839","198915.526462","199682.290838","203565.976788","204332.57792","205099.213061","205865.567474","206632.872902","207399.168881","208166.243976","208915.865316","210458.716567","Mapping"
"Blocked","m160","tile","14","m160lash.wav","None","725.595800206","134","202816.530131","209682.138415","210449.289876","211215.885133","211982.924982","198166.552839","198915.526462","199682.290838","203565.976788","204332.57792","205099.213061","205865.567474","206632.872902","207399.168881","208166.243976","208915.865316","211225.135905","Mapping"
"Blocked","m160","tile","14","m160knife.wav","None","722.154392861","134","202816.530131","209682.138415","210449.289876","211215.885133","211982.924982","212749.739444","198915.526462","199682.290838","203565.976788","204332.57792","205099.213061","205865.567474","206632.872902","207399.168881","208166.243976","208915.865316","211993.009903","Mapping"
"Blocked","m160","tile","14","m160done.wav","None","720.134255011","134","202816.530131","209682.138415","210449.289876","211215.885133","211982.924982","212749.739444","213515.55033","199682.290838","203565.976788","204332.57792","205099.213061","205865.567474","206632.872902","207399.168881","208166.243976","208915.865316","212759.805815","Mapping"
"Blocked","m160","tile","14","m160dime.wav","None","720.474655274","134","202816.530131","209682.138415","210449.289876","211215.885133","211982.924982","212749.739444","213515.55033","214265.677168","203565.976788","204332.57792","205099.213061","205865.567474","206632.872902","207399.168881","208166.243976","208915.865316","213524.490073","Mapping"
"Blocked","m160","done","19","m160reek.wav","None","734.70218759","134","217399.549164","209682.138415","210449.289876","211215.885133","211982.924982","212749.739444","213515.55033","214265.677168","203565.976788","204332.57792","205099.213061","205865.567474","206632.872902","207399.168881","208166.243976","208915.865316","214274.518285","Mapping"
"Blocked","m160","done","19","m160jolt.wav","None","720.218659379","134","217399.549164","209682.138415","210449.289876","211215.885133","211982.924982","212749.739444","213515.55033","214265.677168","218148.920692","204332.57792","205099.213061","205865.567474","206632.872902","207399.168881","208166.243976","208915.865316","217408.922368","Mapping"
"Blocked","m160","done","19","m160cling.wav","None","734.884599689","134","217399.549164","209682.138415","210449.289876","211215.885133","211982.924982","212749.739444","213515.55033","214265.677168","218148.920692","218915.438038","205099.213061","205865.567474","206632.872902","207399.168881","208166.243976","208915.865316","218158.371189","Mapping"
"Blocked","m160","done","19","m160done.wav","None","733.096651267","134","217399.549164","209682.138415","210449.289876","211215.885133","211982.924982","212749.739444","213515.55033","214265.677168","218148.920692","218915.438038","219682.38699","205865.567474","206632.872902","207399.168881","208166.243976","208915.865316","218924.415191","Mapping"
"Blocked","m160","done","19","m160reek.wav","space","429.653048981","134","217399.549164","209682.138415","210449.289876","211215.885133","211982.924982","212749.739444","213515.55033","214265.677168","218148.920692","218915.438038","219682.38699","220449.066343","206632.872902","207399.168881","208166.243976","208915.865316","219692.141714","Mapping"
"Blocked","m160","done","19","m160jolt.wav","None","727.242456749","134","217399.549164","209682.138415","210449.289876","211215.885133","211982.924982","212749.739444","213515.55033","214265.677168","218148.920692","218915.438038","219682.38699","220449.066343","221216.023952","207399.168881","208166.243976","208915.865316","220458.179223","Mapping"
"Blocked","m160","done","19","m160jaw.wav","None","723.859792575","134","217399.549164","209682.138415","210449.289876","211215.885133","211982.924982","212749.739444","213515.55033","214265.677168","218148.920692","218915.438038","219682.38699","220449.066343","221216.023952","221982.807806","208166.243976","208915.865316","221225.638311","Mapping"
"Blocked","m160","done","19","m160dime.wav","None","721.45720711","134","217399.549164","209682.138415","210449.289876","211215.885133","211982.924982","212749.739444","213515.55033","214265.677168","218148.920692","218915.438038","219682.38699","220449.066343","221216.023952","221982.807806","222748.772041","208915.865316","221992.44288","Mapping"
"Blocked","m160","done","19","m160done.wav","None","721.233057324","134","217399.549164","209682.138415","210449.289876","211215.885133","211982.924982","212749.739444","213515.55033","214265.677168","218148.920692","218915.438038","219682.38699","220449.066343","221216.023952","221982.807806","222748.772041","223498.422753","222757.599554","Mapping"
"Blocked","m160","done","19","m160lash.wav","space","558.43450781","134","217399.549164","224265.770848","210449.289876","211215.885133","211982.924982","212749.739444","213515.55033","214265.677168","218148.920692","218915.438038","219682.38699","220449.066343","221216.023952","221982.807806","222748.772041","223498.422753","223507.299115","Mapping"
"Blocked","m160","done","19","m160done.wav","None","731.744945515","134","217399.549164","224265.770848","225032.311382","211215.885133","211982.924982","212749.739444","213515.55033","214265.677168","218148.920692","218915.438038","219682.38699","220449.066343","221216.023952","221982.807806","222748.772041","223498.422753","224274.70348","Mapping"
"Blocked","m160","done","19","m160knife.wav","space","615.994519088","134","217399.549164","224265.770848","225032.311382","225798.908186","211982.924982","212749.739444","213515.55033","214265.677168","218148.920692","218915.438038","219682.38699","220449.066343","221216.023952","221982.807806","222748.772041","223498.422753","225041.697262","Mapping"
"Blocked","m160","done","19","m160done.wav","None","725.610949099","134","217399.549164","224265.770848","225032.311382","225798.908186","226565.994411","212749.739444","213515.55033","214265.677168","218148.920692","218915.438038","219682.38699","220449.066343","221216.023952","221982.807806","222748.772041","223498.422753","225808.314162","Mapping"
"Blocked","m160","done","19","m160park.wav","space","649.902470876","134","217399.549164","224265.770848","225032.311382","225798.908186","226565.994411","227332.640682","213515.55033","214265.677168","218148.920692","218915.438038","219682.38699","220449.066343","221216.023952","221982.807806","222748.772041","223498.422753","226575.805713","Mapping"
"Blocked","m160","done","19","m160cad.wav","None","719.499832019","134","217399.549164","224265.770848","225032.311382","225798.908186","226565.994411","227332.640682","228082.147938","214265.677168","218148.920692","218915.438038","219682.38699","220449.066343","221216.023952","221982.807806","222748.772041","223498.422753","227342.138792","Mapping"
"Blocked","m160","done","19","m160reek.wav","None","734.014276881","134","217399.549164","224265.770848","225032.311382","225798.908186","226565.994411","227332.640682","228082.147938","228848.574696","218148.920692","218915.438038","219682.38699","220449.066343","221216.023952","221982.807806","222748.772041","223498.422753","228091.98923","Mapping"
"Blocked","m160","tile","18","m160bluff.wav","None","732.955976855","134","231982.77287","224265.770848","225032.311382","225798.908186","226565.994411","227332.640682","228082.147938","228848.574696","218148.920692","218915.438038","219682.38699","220449.066343","221216.023952","221982.807806","222748.772041","223498.422753","228857.25628","Mapping"
"Blocked","m160","tile","18","m160greet.wav","None","719.489010517","134","231982.77287","224265.770848","225032.311382","225798.908186","226565.994411","227332.640682","228082.147938","228848.574696","232731.853156","218915.438038","219682.38699","220449.066343","221216.023952","221982.807806","222748.772041","223498.422753","231992.46514","Mapping"
"Blocked","m160","tile","18","m160tile.wav","None","741.443090606","134","231982.77287","224265.770848","225032.311382","225798.908186","226565.994411","227332.640682","228082.147938","228848.574696","232731.853156","233498.790978","219682.38699","220449.066343","221216.023952","221982.807806","222748.772041","223498.422753","232735.56509","Mapping"
"Blocked","m160","tile","18","m160cling.wav","space","653.585960623","134","231982.77287","224265.770848","225032.311382","225798.908186","226565.994411","227332.640682","228082.147938","228848.574696","232731.853156","233498.790978","234265.440651","220449.066343","221216.023952","221982.807806","222748.772041","223498.422753","233507.960128","Mapping"
"Blocked","m160","tile","18","m160reek.wav","None","730.523093138","134","231982.77287","224265.770848","225032.311382","225798.908186","226565.994411","227332.640682","228082.147938","228848.574696","232731.853156","233498.790978","234265.440651","235032.090941","221216.023952","221982.807806","222748.772041","223498.422753","234274.377302","Mapping"
"Blocked","m160","tile","18","m160priest.wav","None","728.04105049","134","231982.77287","224265.770848","225032.311382","225798.908186","226565.994411","227332.640682","228082.147938","228848.574696","232731.853156","233498.790978","234265.440651","235032.090941","235798.803685","221982.807806","222748.772041","223498.422753","235041.227937","Mapping"
"Blocked","m160","tile","18","m160jolt.wav","None","725.675257854","134","231982.77287","224265.770848","225032.311382","225798.908186","226565.994411","227332.640682","228082.147938","228848.574696","232731.853156","233498.790978","234265.440651","235032.090941","235798.803685","236565.854664","222748.772041","223498.422753","235808.060022","Mapping"
"Blocked","m160","tile","18","m160reek.wav","None","723.040174227","134","231982.77287","224265.770848","225032.311382","225798.908186","226565.994411","227332.640682","228082.147938","228848.574696","232731.853156","233498.790978","234265.440651","235032.090941","235798.803685","236565.854664","237332.416841","223498.422753","236575.401933","Mapping"
"Blocked","m160","tile","18","m160tile.wav","None","720.727249514","134","231982.77287","224265.770848","225032.311382","225798.908186","226565.994411","227332.640682","228082.147938","228848.574696","232731.853156","233498.790978","234265.440651","235032.090941","235798.803685","236565.854664","237332.416841","238082.394967","237342.259988","Mapping"
"Blocked","m160","tile","18","m160greet.wav","space","726.06048733","134","231982.77287","238848.354565","225032.311382","225798.908186","226565.994411","227332.640682","228082.147938","228848.574696","232731.853156","233498.790978","234265.440651","235032.090941","235798.803685","236565.854664","237332.416841","238082.394967","238091.397163","Mapping"
"Blocked","m160","tile","18","m160bluff.wav","None","733.571231831","134","231982.77287","238848.354565","239615.4108","225798.908186","226565.994411","227332.640682","228082.147938","228848.574696","232731.853156","233498.790978","234265.440651","235032.090941","235798.803685","236565.854664","237332.416841","238082.394967","238857.344703","Mapping"
"Blocked","m160","tile","18","m160gnash.wav","None","730.972012971","134","231982.77287","238848.354565","239615.4108","240381.877442","226565.994411","227332.640682","228082.147938","228848.574696","232731.853156","233498.790978","234265.440651","235032.090941","235798.803685","236565.854664","237332.416841","238082.394967","239624.343741","Mapping"
"Blocked","m160","tile","18","m160tile.wav","None","729.180663358","134","231982.77287","238848.354565","239615.4108","240381.877442","241148.724985","227332.640682","228082.147938","228848.574696","232731.853156","233498.790978","234265.440651","235032.090941","235798.803685","236565.854664","237332.416841","238082.394967","240391.084311","Mapping"
"Blocked","m160","tile","18","m160dime.wav","space","595.579812769","134","231982.77287","238848.354565","239615.4108","240381.877442","241148.724985","241915.683522","228082.147938","228848.574696","232731.853156","233498.790978","234265.440651","235032.090941","235798.803685","236565.854664","237332.416841","238082.394967","241157.807257","Mapping"
"Blocked","m160","tile","18","m160tile.wav","None","722.913413309","134","231982.77287","238848.354565","239615.4108","240381.877442","241148.724985","241915.683522","242682.328557","228848.574696","232731.853156","233498.790978","234265.440651","235032.090941","235798.803685","236565.854664","237332.416841","238082.394967","241925.427733","Mapping"
"Blocked","m160","tile","18","m160ball.wav","None","720.855865628","134","231982.77287","238848.354565","239615.4108","240381.877442","241148.724985","241915.683522","242682.328557","243449.046866","232731.853156","233498.790978","234265.440651","235032.090941","235798.803685","236565.854664","237332.416841","238082.394967","242691.847381","Mapping"
"Blocked","m160","cave","9","m160depth.wav","space","83.574462682","134","246565.77768","238848.354565","239615.4108","240381.877442","241148.724985","241915.683522","242682.328557","243449.046866","232731.853156","233498.790978","234265.440651","235032.090941","235798.803685","236565.854664","237332.416841","238082.394967","243453.825137","Mapping"
"Blocked","m160","cave","9","m160jaw.wav","None","720.014605206","134","246565.77768","238848.354565","239615.4108","240381.877442","241148.724985","241915.683522","242682.328557","243449.046866","247314.967415","233498.790978","234265.440651","235032.090941","235798.803685","236565.854664","237332.416841","238082.394967","246575.749135","Mapping"
"Blocked","m160","cave","9","m160bluff.wav","None","736.095939763","134","246565.77768","238848.354565","239615.4108","240381.877442","241148.724985","241915.683522","242682.328557","243449.046866","247314.967415","248081.965526","234265.440651","235032.090941","235798.803685","236565.854664","237332.416841","238082.394967","247324.143366","Mapping"
"Blocked","m160","cave","9","m160jaw.wav","None","733.44168812","134","246565.77768","238848.354565","239615.4108","240381.877442","241148.724985","241915.683522","242682.328557","243449.046866","247314.967415","248081.965526","248848.634058","235032.090941","235798.803685","236565.854664","237332.416841","238082.394967","248091.100048","Mapping"
"Blocked","m160","cave","9","m160cave.wav","None","730.978814885","134","246565.77768","238848.354565","239615.4108","240381.877442","241148.724985","241915.683522","242682.328557","243449.046866","247314.967415","248081.965526","248848.634058","249615.131617","235798.803685","236565.854664","237332.416841","238082.394967","248857.836288","Mapping"
"Blocked","m160","cave","9","m160gnash.wav","space","657.27934381","134","246565.77768","238848.354565","239615.4108","240381.877442","241148.724985","241915.683522","242682.328557","243449.046866","247314.967415","248081.965526","248848.634058","249615.131617","250381.746971","236565.854664","237332.416841","238082.394967","249623.968405","Mapping"
"Blocked","m160","cave","9","m160cave.wav","None","726.367187221","134","246565.77768","238848.354565","239615.4108","240381.877442","241148.724985","241915.683522","242682.328557","243449.046866","247314.967415","248081.965526","248848.634058","249615.131617","250381.746971","251148.978816","237332.416841","238082.394967","250390.774828","Mapping"
"Blocked","m160","cave","9","m160done.wav","space","610.151145607","134","246565.77768","238848.354565","239615.4108","240381.877442","241148.724985","241915.683522","242682.328557","243449.046866","247314.967415","248081.965526","248848.634058","249615.131617","250381.746971","251148.978816","251915.471738","238082.394967","251159.099292","Mapping"
"Blocked","m160","cave","9","m160lash.wav","None","719.896810595","134","246565.77768","238848.354565","239615.4108","240381.877442","241148.724985","241915.683522","242682.328557","243449.046866","247314.967415","248081.965526","248848.634058","249615.131617","250381.746971","251148.978816","251915.471738","252664.922415","251925.07744","Mapping"
"Blocked","m160","cave","9","m160cling.wav","None","735.366909765","134","246565.77768","253431.350719","239615.4108","240381.877442","241148.724985","241915.683522","242682.328557","243449.046866","247314.967415","248081.965526","248848.634058","249615.131617","250381.746971","251148.978816","251915.471738","252664.922415","252674.028184","Mapping"
"Blocked","m160","cave","9","m160cave.wav","None","733.792290557","134","246565.77768","253431.350719","254198.067173","240381.877442","241148.724985","241915.683522","242682.328557","243449.046866","247314.967415","248081.965526","248848.634058","249615.131617","250381.746971","251148.978816","251915.471738","252664.922415","253440.124436","Mapping"
"Blocked","m160","cave","9","m160knife.wav","None","734.353440348","134","246565.77768","253431.350719","254198.067173","254964.783317","241148.724985","241915.683522","242682.328557","243449.046866","247314.967415","248081.965526","248848.634058","249615.131617","250381.746971","251148.978816","251915.471738","252664.922415","254206.794514","Mapping"
"Blocked","m160","cave","9","m160cave.wav","space","19.5697359741","134","246565.77768","253431.350719","254198.067173","254964.783317","255731.704753","241915.683522","242682.328557","243449.046866","247314.967415","248081.965526","248848.634058","249615.131617","250381.746971","251148.978816","251915.471738","252664.922415","254973.613304","Mapping"
"Blocked","m160","cave","9","m160depth.wav","None","728.364445735","134","246565.77768","253431.350719","254198.067173","254964.783317","255731.704753","256498.316397","242682.328557","243449.046866","247314.967415","248081.965526","248848.634058","249615.131617","250381.746971","251148.978816","251915.471738","252664.922415","255740.835875","Mapping"
"Blocked","m160","cave","9","m160gnash.wav","space","0.0352459028363","134","246565.77768","253431.350719","254198.067173","254964.783317","255731.704753","256498.316397","257265.411279","243449.046866","247314.967415","248081.965526","248848.634058","249615.131617","250381.746971","251148.978816","251915.471738","252664.922415","256507.862429","Mapping"
"Blocked","m160","cave","9","m160knife.wav","None","722.223957069","134","246565.77768","253431.350719","254198.067173","254964.783317","255731.704753","256498.316397","257265.411279","258032.224813","247314.967415","248081.965526","248848.634058","249615.131617","250381.746971","251148.978816","251915.471738","252664.922415","257274.837043","Mapping"
"Blocked","m160","done","22","m160jaw.wav","None","719.907940365","134","261148.691595","253431.350719","254198.067173","254964.783317","255731.704753","256498.316397","257265.411279","258032.224813","247314.967415","248081.965526","248848.634058","249615.131617","250381.746971","251148.978816","251915.471738","252664.922415","258041.673765","Mapping"
"Blocked","m160","done","22","m160cad.wav","None","719.53724185","134","261148.691595","253431.350719","254198.067173","254964.783317","255731.704753","256498.316397","257265.411279","258032.224813","261897.946564","248081.965526","248848.634058","249615.131617","250381.746971","251148.978816","251915.471738","252664.922415","261158.792901","Mapping"
"Blocked","m160","done","22","m160done.wav","None","735.288070515","134","261148.691595","253431.350719","254198.067173","254964.783317","255731.704753","256498.316397","257265.411279","258032.224813","261897.946564","262664.95055","248848.634058","249615.131617","250381.746971","251148.978816","251915.471738","252664.922415","261907.592768","Mapping"
"Blocked","m160","done","22","m160cave.wav","space","615.050613414","134","261148.691595","253431.350719","254198.067173","254964.783317","255731.704753","256498.316397","257265.411279","258032.224813","261897.946564","262664.95055","263431.519218","249615.131617","250381.746971","251148.978816","251915.471738","252664.922415","262673.960475","Mapping"
"Blocked","m160","done","22","m160done.wav","None","729.808284901","134","261148.691595","253431.350719","254198.067173","254964.783317","255731.704753","256498.316397","257265.411279","258032.224813","261897.946564","262664.95055","263431.519218","264198.222069","250381.746971","251148.978816","251915.471738","252664.922415","263440.915919","Mapping"
"Blocked","m160","done","22","m160cad.wav","space","609.670381527","134","261148.691595","253431.350719","254198.067173","254964.783317","255731.704753","256498.316397","257265.411279","258032.224813","261897.946564","262664.95055","263431.519218","264198.222069","264964.865867","251148.978816","251915.471738","252664.922415","264207.334021","Mapping"
"Blocked","m160","done","22","m160priest.wav","None","725.100813899","134","261148.691595","253431.350719","254198.067173","254964.783317","255731.704753","256498.316397","257265.411279","258032.224813","261897.946564","262664.95055","263431.519218","264198.222069","264964.865867","265731.968169","251915.471738","252664.922415","264973.702346","Mapping"
"Blocked","m160","done","22","m160depth.wav","None","721.925295889","134","261148.691595","253431.350719","254198.067173","254964.783317","255731.704753","256498.316397","257265.411279","258032.224813","261897.946564","262664.95055","263431.519218","264198.222069","264964.865867","265731.968169","266498.66329","252664.922415","265741.410318","Mapping"
"Blocked","m160","done","22","m160done.wav","None","719.361940864","134","261148.691595","253431.350719","254198.067173","254964.783317","255731.704753","256498.316397","257265.411279","258032.224813","261897.946564","262664.95055","263431.519218","264198.222069","264964.865867","265731.968169","266498.66329","267247.892907","266508.378748","Mapping"
"Blocked","m160","done","22","m160tile.wav","space","584.007768892","134","261148.691595","268014.829183","254198.067173","254964.783317","255731.704753","256498.316397","257265.411279","258032.224813","261897.946564","262664.95055","263431.519218","264198.222069","264964.865867","265731.968169","266498.66329","267247.892907","267256.950755","Mapping"
"Blocked","m160","done","22","m160lash.wav","None","732.093384024","134","261148.691595","268014.829183","268781.532343","254964.783317","255731.704753","256498.316397","257265.411279","258032.224813","261897.946564","262664.95055","263431.519218","264198.222069","264964.865867","265731.968169","266498.66329","267247.892907","268023.718222","Mapping"
"Blocked","m160","done","22","m160depth.wav","None","729.262903333","134","261148.691595","268014.829183","268781.532343","269548.257763","255731.704753","256498.316397","257265.411279","258032.224813","261897.946564","262664.95055","263431.519218","264198.222069","264964.865867","265731.968169","266498.66329","267247.892907","268790.941411","Mapping"
"Blocked","m160","done","22","m160greet.wav","None","727.231944446","134","261148.691595","268014.829183","268781.532343","269548.257763","270314.534882","256498.316397","257265.411279","258032.224813","261897.946564","262664.95055","263431.519218","264198.222069","264964.865867","265731.968169","266498.66329","267247.892907","269557.451337","Mapping"
"Blocked","m160","done","22","m160greet.wav","None","725.759661756","134","261148.691595","268014.829183","268781.532343","269548.257763","270314.534882","271082.134643","257265.411279","258032.224813","261897.946564","262664.95055","263431.519218","264198.222069","264964.865867","265731.968169","266498.66329","267247.892907","270323.65209","Mapping"
"Blocked","m160","done","22","m160done.wav","None","722.231377382","134","261148.691595","268014.829183","268781.532343","269548.257763","270314.534882","271082.134643","271847.897298","258032.224813","261897.946564","262664.95055","263431.519218","264198.222069","264964.865867","265731.968169","266498.66329","267247.892907","271091.792905","Mapping"
"Blocked","m160","done","22","m160tile.wav","space","488.107807469","134","261148.691595","268014.829183","268781.532343","269548.257763","270314.534882","271082.134643","271847.897298","272598.298682","261897.946564","262664.95055","263431.519218","264198.222069","264964.865867","265731.968169","266498.66329","267247.892907","271856.761603","Mapping"
"Blocked","m160","cave","7","m160dime.wav","None","735.926513094","134","275731.526051","268014.829183","268781.532343","269548.257763","270314.534882","271082.134643","271847.897298","272598.298682","261897.946564","262664.95055","263431.519218","264198.222069","264964.865867","265731.968169","266498.66329","267247.892907","272607.385282","Mapping"
"Blocked","m160","cave","7","m160romp.wav","None","719.470460434","134","275731.526051","268014.829183","268781.532343","269548.257763","270314.534882","271082.134643","271847.897298","272598.298682","276481.239525","262664.95055","263431.519218","264198.222069","264964.865867","265731.968169","266498.66329","267247.892907","275741.649928","Mapping"
"Blocked","m160","cave","7","m160cave.wav","None","735.26024539","134","275731.526051","268014.829183","268781.532343","269548.257763","270314.534882","271082.134643","271847.897298","272598.298682","276481.239525","277248.289886","263431.519218","264198.222069","264964.865867","265731.968169","266498.66329","267247.892907","276490.414239","Mapping"
"Blocked","m160","cave","7","m160knife.wav","space","631.124218926","134","275731.526051","268014.829183","268781.532343","269548.257763","270314.534882","271082.134643","271847.897298","272598.298682","276481.239525","277248.289886","278014.629148","264198.222069","264964.865867","265731.968169","266498.66329","267247.892907","277257.651032","Mapping"
"Blocked","m160","cave","7","m160knife.wav","None","729.896089993","134","275731.526051","268014.829183","268781.532343","269548.257763","270314.534882","271082.134643","271847.897298","272598.298682","276481.239525","277248.289886","278014.629148","278781.345293","264964.865867","265731.968169","266498.66329","267247.892907","278023.778511","Mapping"
"Blocked","m160","cave","7","m160cling.wav","None","727.670042776","134","275731.526051","268014.829183","268781.532343","269548.257763","270314.534882","271082.134643","271847.897298","272598.298682","276481.239525","277248.289886","278014.629148","278781.345293","279547.939933","265731.968169","266498.66329","267247.892907","278790.442405","Mapping"
"Blocked","m160","cave","7","m160cling.wav","None","725.827679504","134","275731.526051","268014.829183","268781.532343","269548.257763","270314.534882","271082.134643","271847.897298","272598.298682","276481.239525","277248.289886","278014.629148","278781.345293","279547.939933","280314.927222","266498.66329","267247.892907","279556.924506","Mapping"
"Blocked","m160","cave","7","m160cave.wav","None","722.620626446","134","275731.526051","268014.829183","268781.532343","269548.257763","270314.534882","271082.134643","271847.897298","272598.298682","276481.239525","277248.289886","278014.629148","278781.345293","279547.939933","280314.927222","281081.886996","267247.892907","280324.601561","Mapping"
"Blocked","m160","cave","7","m160done.wav","space","708.772758488","134","275731.526051","268014.829183","268781.532343","269548.257763","270314.534882","271082.134643","271847.897298","272598.298682","276481.239525","277248.289886","278014.629148","278781.345293","279547.939933","280314.927222","281081.886996","281830.681297","281091.890295","Mapping"
"Blocked","m160","cave","7","m160cave.wav","None","736.722015776","134","275731.526051","282597.836159","268781.532343","269548.257763","270314.534882","271082.134643","271847.897298","272598.298682","276481.239525","277248.289886","278014.629148","278781.345293","279547.939933","280314.927222","281081.886996","281830.681297","281839.341548","Mapping"
"Blocked","m160","cave","7","m160dime.wav","None","733.630902134","134","275731.526051","282597.836159","283364.544265","269548.257763","270314.534882","271082.134643","271847.897298","272598.298682","276481.239525","277248.289886","278014.629148","278781.345293","279547.939933","280314.927222","281081.886996","281830.681297","282606.942855","Mapping"
"Blocked","m160","cave","7","m160cad.wav","space","19.3270351738","134","275731.526051","282597.836159","283364.544265","284131.203831","270314.534882","271082.134643","271847.897298","272598.298682","276481.239525","277248.289886","278014.629148","278781.345293","279547.939933","280314.927222","281081.886996","281830.681297","283373.359411","Mapping"
"Blocked","m160","cave","7","m160cling.wav","None","727.361796889","134","275731.526051","282597.836159","283364.544265","284131.203831","284897.381705","271082.134643","271847.897298","272598.298682","276481.239525","277248.289886","278014.629148","278781.345293","279547.939933","280314.927222","281081.886996","281830.681297","284141.310394","Mapping"
"Blocked","m160","cave","7","m160reek.wav","None","727.443109732","134","275731.526051","282597.836159","283364.544265","284131.203831","284897.381705","285665.125232","271847.897298","272598.298682","276481.239525","277248.289886","278014.629148","278781.345293","279547.939933","280314.927222","281081.886996","281830.681297","284906.15264","Mapping"
"Blocked","m160","cave","7","m160cave.wav","None","724.139903672","134","275731.526051","282597.836159","283364.544265","284131.203831","284897.381705","285665.125232","286431.658346","272598.298682","276481.239525","277248.289886","278014.629148","278781.345293","279547.939933","280314.927222","281081.886996","281830.681297","285673.902659","Mapping"
"Blocked","m160","cave","7","m160romp.wav","space","655.33804521","134","275731.526051","282597.836159","283364.544265","284131.203831","284897.381705","285665.125232","286431.658346","287181.256189","276481.239525","277248.289886","278014.629148","278781.345293","279547.939933","280314.927222","281081.886996","281830.681297","286441.254155","Mapping"
"Blocked","m160","tile","17","m160dime.wav","None","735.765743535","134","290314.720385","282597.836159","283364.544265","284131.203831","284897.381705","285665.125232","286431.658346","287181.256189","276481.239525","277248.289886","278014.629148","278781.345293","279547.939933","280314.927222","281081.886996","281830.681297","287190.571578","Mapping"
"Blocked","m160","tile","17","m160tile.wav","None","720.498461276","134","290314.720385","282597.836159","283364.544265","284131.203831","284897.381705","285665.125232","286431.658346","287181.256189","291064.207235","277248.289886","278014.629148","278781.345293","279547.939933","280314.927222","281081.886996","281830.681297","290324.536944","Mapping"
"Blocked","m160","tile","17","m160cling.wav","space","551.332799252","134","290314.720385","282597.836159","283364.544265","284131.203831","284897.381705","285665.125232","286431.658346","287181.256189","291064.207235","291831.099918","278014.629148","278781.345293","279547.939933","280314.927222","281081.886996","281830.681297","291073.190572","Mapping"
"Blocked","m160","tile","17","m160dime.wav","None","733.216610271","134","290314.720385","282597.836159","283364.544265","284131.203831","284897.381705","285665.125232","286431.658346","287181.256189","291064.207235","291831.099918","292597.80957","278781.345293","279547.939933","280314.927222","281081.886996","281830.681297","291840.195484","Mapping"
"Blocked","m160","tile","17","m160cad.wav","None","730.976031628","134","290314.720385","282597.836159","283364.544265","284131.203831","284897.381705","285665.125232","286431.658346","287181.256189","291064.207235","291831.099918","292597.80957","293364.397717","279547.939933","280314.927222","281081.886996","281830.681297","292607.056322","Mapping"
"Blocked","m160","tile","17","m160tile.wav","None","729.432639666","134","290314.720385","282597.836159","283364.544265","284131.203831","284897.381705","285665.125232","286431.658346","287181.256189","291064.207235","291831.099918","292597.80957","293364.397717","294130.963604","280314.927222","281081.886996","281830.681297","293373.365904","Mapping"
"Blocked","m160","tile","17","m160bluff.wav","space","524.405050091","134","290314.720385","282597.836159","283364.544265","284131.203831","284897.381705","285665.125232","286431.658346","287181.256189","291064.207235","291831.099918","292597.80957","293364.397717","294130.963604","294898.125267","281081.886996","281830.681297","294140.063807","Mapping"
"Blocked","m160","tile","17","m160tile.wav","None","723.42478577","134","290314.720385","282597.836159","283364.544265","284131.203831","284897.381705","285665.125232","286431.658346","287181.256189","291064.207235","291831.099918","292597.80957","293364.397717","294130.963604","294898.125267","295664.622826","281830.681297","294907.733133","Mapping"
"Blocked","m160","tile","17","m160knife.wav","space","694.291704334","134","290314.720385","282597.836159","283364.544265","284131.203831","284897.381705","285665.125232","286431.658346","287181.256189","291064.207235","291831.099918","292597.80957","293364.397717","294130.963604","294898.125267","295664.622826","296414.39597","295674.151544","Mapping"
"Blocked","m160","tile","17","m160gnash.wav","None","735.703908373","134","290314.720385","297180.841897","283364.544265","284131.203831","284897.381705","285665.125232","286431.658346","287181.256189","291064.207235","291831.099918","292597.80957","293364.397717","294130.963604","294898.125267","295664.622826","296414.39597","296424.001672","Mapping"
"Blocked","m160","tile","17","m160done.wav","None","734.622729942","134","290314.720385","297180.841897","297947.70088","284131.203831","284897.381705","285665.125232","286431.658346","287181.256189","291064.207235","291831.099918","292597.80957","293364.397717","294130.963604","294898.125267","295664.622826","296414.39597","297189.9387","Mapping"
"Blocked","m160","tile","17","m160cave.wav","None","732.754396275","134","290314.720385","297180.841897","297947.70088","298714.263056","284897.381705","285665.125232","286431.658346","287181.256189","291064.207235","291831.099918","292597.80957","293364.397717","294130.963604","294898.125267","295664.622826","296414.39597","297956.587136","Mapping"
"Blocked","m160","tile","17","m160bluff.wav","None","730.908632278","134","290314.720385","297180.841897","297947.70088","298714.263056","299480.933134","285665.125232","286431.658346","287181.256189","291064.207235","291831.099918","292597.80957","293364.397717","294130.963604","294898.125267","295664.622826","296414.39597","298723.129835","Mapping"
"Blocked","m160","tile","17","m160tile.wav","None","728.150807321","134","290314.720385","297180.841897","297947.70088","298714.263056","299480.933134","300247.548179","286431.658346","287181.256189","291064.207235","291831.099918","292597.80957","293364.397717","294130.963604","294898.125267","295664.622826","296414.39597","299490.663124","Mapping"
"Blocked","m160","tile","17","m160cad.wav","space","567.855633795","134","290314.720385","297180.841897","297947.70088","298714.263056","299480.933134","300247.548179","301014.56113","287181.256189","291064.207235","291831.099918","292597.80957","293364.397717","294130.963604","294898.125267","295664.622826","296414.39597","300256.492869","Mapping"
"Blocked","m160","tile","17","m160bluff.wav","None","723.236808553","134","290314.720385","297180.841897","297947.70088","298714.263056","299480.933134","300247.548179","301014.56113","301781.449175","291064.207235","291831.099918","292597.80957","293364.397717","294130.963604","294898.125267","295664.622826","296414.39597","301024.174253","Mapping"
"Blocked","m160","cave","12","m160depth.wav","None","720.795267262","134","304897.963878","297180.841897","297947.70088","298714.263056","299480.933134","300247.548179","301014.56113","301781.449175","291064.207235","291831.099918","292597.80957","293364.397717","294130.963604","294898.125267","295664.622826","296414.39597","301791.334989","Mapping"
"Blocked","m160","cave","12","m160cave.wav","None","719.648544211","134","304897.963878","297180.841897","297947.70088","298714.263056","299480.933134","300247.548179","301014.56113","301781.449175","305647.166288","291831.099918","292597.80957","293364.397717","294130.963604","294898.125267","295664.622826","296414.39597","304907.849382","Mapping"
"Blocked","m160","cave","12","m160depth.wav","space","656.116234139","134","304897.963878","297180.841897","297947.70088","298714.263056","299480.933134","300247.548179","301014.56113","301781.449175","305647.166288","306414.185423","292597.80957","293364.397717","294130.963604","294898.125267","295664.622826","296414.39597","305656.138804","Mapping"
"Blocked","m160","cave","12","m160jaw.wav","None","732.42110759","134","304897.963878","297180.841897","297947.70088","298714.263056","299480.933134","300247.548179","301014.56113","301781.449175","305647.166288","306414.185423","307180.804797","293364.397717","294130.963604","294898.125267","295664.622826","296414.39597","306423.242652","Mapping"
"Blocked","m160","cave","12","m160cave.wav","None","730.125805363","134","304897.963878","297180.841897","297947.70088","298714.263056","299480.933134","300247.548179","301014.56113","301781.449175","305647.166288","306414.185423","307180.804797","307947.474256","294130.963604","294898.125267","295664.622826","296414.39597","307190.45873","Mapping"
"Blocked","m160","cave","12","m160gnash.wav","space","715.389993042","134","304897.963878","297180.841897","297947.70088","298714.263056","299480.933134","300247.548179","301014.56113","301781.449175","305647.166288","306414.185423","307180.804797","307947.474256","308714.094866","294898.125267","295664.622826","296414.39597","307956.855189","Mapping"
"Blocked","m160","cave","12","m160jolt.wav","None","726.078110281","134","304897.963878","297180.841897","297947.70088","298714.263056","299480.933134","300247.548179","301014.56113","301781.449175","305647.166288","306414.185423","307180.804797","307947.474256","308714.094866","309481.128223","295664.622826","296414.39597","308723.085932","Mapping"
"Blocked","m160","cave","12","m160done.wav","None","723.070164211","134","304897.963878","297180.841897","297947.70088","298714.263056","299480.933134","300247.548179","301014.56113","301781.449175","305647.166288","306414.185423","307180.804797","307947.474256","308714.094866","309481.128223","310247.999881","296414.39597","309491.136468","Mapping"
"Blocked","m160","cave","12","m160park.wav","None","721.062702592","134","304897.963878","297180.841897","297947.70088","298714.263056","299480.933134","300247.548179","301014.56113","301781.449175","305647.166288","306414.185423","307180.804797","307947.474256","308714.094866","309481.128223","310247.999881","311014.367279","310258.063469","Mapping"
"Blocked","m160","cave","12","m160priest.wav","None","719.748098403","134","304897.963878","311763.491778","297947.70088","298714.263056","299480.933134","300247.548179","301014.56113","301781.449175","305647.166288","306414.185423","307180.804797","307947.474256","308714.094866","309481.128223","310247.999881","311014.367279","311024.256183","Mapping"
"Blocked","m160","cave","12","m160cave.wav","None","736.611331813","134","304897.963878","311763.491778","312530.633035","298714.263056","299480.933134","300247.548179","301014.56113","301781.449175","305647.166288","306414.185423","307180.804797","307947.474256","308714.094866","309481.128223","310247.999881","311014.367279","311772.188819","Mapping"
"Blocked","m160","cave","12","m160ball.wav","space","628.110707272","134","304897.963878","311763.491778","312530.633035","313297.205415","299480.933134","300247.548179","301014.56113","301781.449175","305647.166288","306414.185423","307180.804797","307947.474256","308714.094866","309481.128223","310247.999881","311014.367279","312540.016442","Mapping"
"Blocked","m160","cave","12","m160cling.wav","None","731.195854023","134","304897.963878","311763.491778","312530.633035","313297.205415","314064.058832","300247.548179","301014.56113","301781.449175","305647.166288","306414.185423","307180.804797","307947.474256","308714.094866","309481.128223","310247.999881","311014.367279","313306.12197","Mapping"
"Blocked","m160","cave","12","m160cave.wav","None","728.409585543","134","304897.963878","311763.491778","312530.633035","313297.205415","314064.058832","314830.670785","301014.56113","301781.449175","305647.166288","306414.185423","307180.804797","307947.474256","308714.094866","309481.128223","310247.999881","311014.367279","314073.410703","Mapping"
"Blocked","m160","cave","12","m160park.wav","None","726.656263694","134","304897.963878","311763.491778","312530.633035","313297.205415","314064.058832","314830.670785","315597.291705","301781.449175","305647.166288","306414.185423","307180.804797","307947.474256","308714.094866","309481.128223","310247.999881","311014.367279","314840.082636","Mapping"
"Blocked","m160","cave","12","m160tile.wav","space","201.206208207","134","304897.963878","311763.491778","312530.633035","313297.205415","314064.058832","314830.670785","315597.291705","316364.065974","305647.166288","306414.185423","307180.804797","307947.474256","308714.094866","309481.128223","310247.999881","311014.367279","315606.849176","Mapping"
"Blocked","m160","tile","16","m160gnash.wav","None","721.447004937","134","319481.099779","311763.491778","312530.633035","313297.205415","314064.058832","314830.670785","315597.291705","316364.065974","305647.166288","306414.185423","307180.804797","307947.474256","308714.094866","309481.128223","310247.999881","311014.367279","316373.697956","Mapping"
"Blocked","m160","tile","16","m160tile.wav","None","719.715944026","134","319481.099779","311763.491778","312530.633035","313297.205415","314064.058832","314830.670785","315597.291705","316364.065974","320230.180066","306414.185423","307180.804797","307947.474256","308714.094866","309481.128223","310247.999881","311014.367279","319490.686621","Mapping"
"Blocked","m160","tile","16","m160dime.wav","space","597.957972903","134","319481.099779","311763.491778","312530.633035","313297.205415","314064.058832","314830.670785","315597.291705","316364.065974","320230.180066","320997.24063","307180.804797","307947.474256","308714.094866","309481.128223","310247.999881","311014.367279","320234.006702","Mapping"
"Blocked","m160","tile","16","m160dime.wav","None","732.198812068","134","319481.099779","311763.491778","312530.633035","313297.205415","314064.058832","314830.670785","315597.291705","316364.065974","320230.180066","320997.24063","321763.862476","307947.474256","308714.094866","309481.128223","310247.999881","311014.367279","321006.672576","Mapping"
"Blocked","m160","tile","16","m160tile.wav","None","730.839995667","134","319481.099779","311763.491778","312530.633035","313297.205415","314064.058832","314830.670785","315597.291705","316364.065974","320230.180066","320997.24063","321763.862476","322530.429909","308714.094866","309481.128223","310247.999881","311014.367279","321772.760172","Mapping"
"Blocked","m160","tile","16","m160greet.wav","None","728.58766932","134","319481.099779","311763.491778","312530.633035","313297.205415","314064.058832","314830.670785","315597.291705","316364.065974","320230.180066","320997.24063","321763.862476","322530.429909","323297.357837","309481.128223","310247.999881","311014.367279","322539.880406","Mapping"
"Blocked","m160","tile","16","m160cave.wav","space","101.306164172","134","319481.099779","311763.491778","312530.633035","313297.205415","314064.058832","314830.670785","315597.291705","316364.065974","320230.180066","320997.24063","321763.862476","322530.429909","323297.357837","324063.660308","310247.999881","311014.367279","323306.660549","Mapping"
"Blocked","m160","tile","16","m160cave.wav","None","724.502563477","134","319481.099779","311763.491778","312530.633035","313297.205415","314064.058832","314830.670785","315597.291705","316364.065974","320230.180066","320997.24063","321763.862476","322530.429909","323297.357837","324063.660308","324830.282154","311014.367279","324072.444846","Mapping"
"Blocked","m160","tile","16","m160ball.wav","None","722.735329531","134","319481.099779","311763.491778","312530.633035","313297.205415","314064.058832","314830.670785","315597.291705","316364.065974","320230.180066","320997.24063","321763.862476","322530.429909","323297.357837","324063.660308","324830.282154","325597.666423","324839.197164","Mapping"
"Blocked","m160","tile","16","m160jolt.wav","None","719.630302861","134","319481.099779","326346.790921","312530.633035","313297.205415","314064.058832","314830.670785","315597.291705","316364.065974","320230.180066","320997.24063","321763.862476","322530.429909","323297.357837","324063.660308","324830.282154","325597.666423","325607.367969","Mapping"
"Blocked","m160","tile","16","m160tile.wav","None","735.816756729","134","319481.099779","326346.790921","327113.74513","313297.205415","314064.058832","314830.670785","315597.291705","316364.065974","320230.180066","320997.24063","321763.862476","322530.429909","323297.357837","324063.660308","324830.282154","325597.666423","326356.08776","Mapping"
"Blocked","m160","tile","16","m160romp.wav","space","557.126086671","134","319481.099779","326346.790921","327113.74513","327880.523109","314064.058832","314830.670785","315597.291705","316364.065974","320230.180066","320997.24063","321763.862476","322530.429909","323297.357837","324063.660308","324830.282154","325597.666423","327122.758765","Mapping"
"Blocked","m160","tile","16","m160bluff.wav","None","730.579981115","134","319481.099779","326346.790921","327113.74513","327880.523109","328646.955432","314830.670785","315597.291705","316364.065974","320230.180066","320997.24063","321763.862476","322530.429909","323297.357837","324063.660308","324830.282154","325597.666423","327889.730287","Mapping"
"Blocked","m160","tile","16","m160done.wav","None","729.345143307","134","319481.099779","326346.790921","327113.74513","327880.523109","328646.955432","329413.732794","315597.291705","316364.065974","320230.180066","320997.24063","321763.862476","322530.429909","323297.357837","324063.660308","324830.282154","325597.666423","328655.84478","Mapping"
"Blocked","m160","tile","16","m160tile.wav","None","727.244002279","134","319481.099779","326346.790921","327113.74513","327880.523109","328646.955432","329413.732794","330180.335471","316364.065974","320230.180066","320997.24063","321763.862476","322530.429909","323297.357837","324063.660308","324830.282154","325597.666423","329422.971816","Mapping"
"Blocked","m160","tile","16","m160gnash.wav","space","602.031330112","134","319481.099779","326346.790921","327113.74513","327880.523109","328646.955432","329413.732794","330180.335471","330947.568245","320230.180066","320997.24063","321763.862476","322530.429909","323297.357837","324063.660308","324830.282154","325597.666423","330189.792152","Mapping"
"Blocked","m160","ball","4","m160romp.wav","None","721.472356934","134","334063.996688","326346.790921","327113.74513","327880.523109","328646.955432","329413.732794","330180.335471","330947.568245","320230.180066","320997.24063","321763.862476","322530.429909","323297.357837","324063.660308","324830.282154","325597.666423","330957.459314","Mapping"
"Blocked","m160","ball","4","m160tile.wav","None","720.506809186","134","334063.996688","326346.790921","327113.74513","327880.523109","328646.955432","329413.732794","330180.335471","330947.568245","334813.829503","320997.24063","321763.862476","322530.429909","323297.357837","324063.660308","324830.282154","325597.666423","334073.44904","Mapping"
"Blocked","m160","ball","4","m160ball.wav","None","736.189619638","134","334063.996688","326346.790921","327113.74513","327880.523109","328646.955432","329413.732794","330180.335471","330947.568245","334813.829503","335580.038603","321763.862476","322530.429909","323297.357837","324063.660308","324830.282154","325597.666423","334822.727198","Mapping"
"Blocked","m160","ball","4","m160jolt.wav","space","10.6312292628","134","334063.996688","326346.790921","327113.74513","327880.523109","328646.955432","329413.732794","330180.335471","330947.568245","334813.829503","335580.038603","336346.866669","322530.429909","323297.357837","324063.660308","324830.282154","325597.666423","335589.059659","Mapping"
"Blocked","m160","ball","4","m160ball.wav","None","731.351677328","134","334063.996688","326346.790921","327113.74513","327880.523109","328646.955432","329413.732794","330180.335471","330947.568245","334813.829503","335580.038603","336346.866669","337113.607238","323297.357837","324063.660308","324830.282154","325597.666423","336355.974293","Mapping"
"Blocked","m160","ball","4","m160dime.wav","space","556.548241992","134","334063.996688","326346.790921","327113.74513","327880.523109","328646.955432","329413.732794","330180.335471","330947.568245","334813.829503","335580.038603","336346.866669","337113.607238","337880.232177","324063.660308","324830.282154","325597.666423","337123.141212","Mapping"
"Blocked","m160","ball","4","m160lash.wav","None","726.545270532","134","334063.996688","326346.790921","327113.74513","327880.523109","328646.955432","329413.732794","330180.335471","330947.568245","334813.829503","335580.038603","336346.866669","337113.607238","337880.232177","338646.750141","324830.282154","325597.666423","337889.609091","Mapping"
"Blocked","m160","ball","4","m160cave.wav","None","730.626048055","134","334063.996688","326346.790921","327113.74513","327880.523109","328646.955432","329413.732794","330180.335471","330947.568245","334813.829503","335580.038603","336346.866669","337113.607238","337880.232177","338646.750141","339414.03331","325597.666423","338650.50134","Mapping"
"Blocked","m160","ball","4","m160ball.wav","None","722.615061328","134","334063.996688","326346.790921","327113.74513","327880.523109","328646.955432","329413.732794","330180.335471","330947.568245","334813.829503","335580.038603","336346.866669","337113.607238","337880.232177","338646.750141","339414.03331","340180.572917","339423.420426","Mapping"
"Blocked","m160","ball","4","m160priest.wav","None","721.018490847","134","334063.996688","340947.222589","327113.74513","327880.523109","328646.955432","329413.732794","330180.335471","330947.568245","334813.829503","335580.038603","336346.866669","337113.607238","337880.232177","338646.750141","339414.03331","340180.572917","340190.050312","Mapping"
"Blocked","m160","ball","4","m160jaw.wav","space","0.034318305552","134","334063.996688","340947.222589","341696.824142","327880.523109","328646.955432","329413.732794","330180.335471","330947.568245","334813.829503","335580.038603","336346.866669","337113.607238","337880.232177","338646.750141","339414.03331","340180.572917","340956.675869","Mapping"
"Blocked","m160","ball","4","m160tile.wav","None","733.770339284","134","334063.996688","340947.222589","341696.824142","342463.251519","328646.955432","329413.732794","330180.335471","330947.568245","334813.829503","335580.038603","336346.866669","337113.607238","337880.232177","338646.750141","339414.03331","340180.572917","341706.057909","Mapping"
"Blocked","m160","ball","4","m160park.wav","None","732.694107108","134","334063.996688","340947.222589","341696.824142","342463.251519","343230.084531","329413.732794","330180.335471","330947.568245","334813.829503","335580.038603","336346.866669","337113.607238","337880.232177","338646.750141","339414.03331","340180.572917","342472.160963","Mapping"
"Blocked","m160","ball","4","m160jolt.wav","None","730.288739782","134","334063.996688","340947.222589","341696.824142","342463.251519","343230.084531","343996.741933","330180.335471","330947.568245","334813.829503","335580.038603","336346.866669","337113.607238","337880.232177","338646.750141","339414.03331","340180.572917","343239.484943","Mapping"
"Blocked","m160","ball","4","m160ball.wav","None","729.184064083","134","334063.996688","340947.222589","341696.824142","342463.251519","343230.084531","343996.741933","344763.437363","330947.568245","334813.829503","335580.038603","336346.866669","337113.607238","337880.232177","338646.750141","339414.03331","340180.572917","344005.771336","Mapping"
"Blocked","m160","ball","4","m160greet.wav","None","726.902056951","134","334063.996688","340947.222589","341696.824142","342463.251519","343230.084531","343996.741933","344763.437363","345529.980062","334813.829503","335580.038603","336346.866669","337113.607238","337880.232177","338646.750141","339414.03331","340180.572917","344773.079238","Mapping"
"Blocked","m160","ball","2","m160reek.wav","space","0.0336999073625","134","348647.243891","340947.222589","341696.824142","342463.251519","343230.084531","343996.741933","344763.437363","345529.980062","334813.829503","335580.038603","336346.866669","337113.607238","337880.232177","338646.750141","339414.03331","340180.572917","345539.059551","Mapping"
"Blocked","m160","ball","2","m160bluff.wav","None","719.982142095","134","348647.243891","340947.222589","341696.824142","342463.251519","343230.084531","343996.741933","344763.437363","345529.980062","349413.137326","335580.038603","336346.866669","337113.607238","337880.232177","338646.750141","339414.03331","340180.572917","348656.822386","Mapping"
"Blocked","m160","ball","2","m160cad.wav","None","723.520629108","134","348647.243891","340947.222589","341696.824142","342463.251519","343230.084531","343996.741933","344763.437363","345529.980062","349413.137326","350180.508918","336346.866669","337113.607238","337880.232177","338646.750141","339414.03331","340180.572917","349421.899604","Mapping"
"Blocked","m160","ball","2","m160reek.wav","None","720.046450384","134","348647.243891","340947.222589","341696.824142","342463.251519","343230.084531","343996.741933","344763.437363","345529.980062","349413.137326","350180.508918","350946.988545","337113.607238","337880.232177","338646.750141","339414.03331","340180.572917","350190.326713","Mapping"
"Blocked","m160","ball","2","m160ball.wav","None","718.541704118","134","348647.243891","340947.222589","341696.824142","342463.251519","343230.084531","343996.741933","344763.437363","345529.980062","349413.137326","350180.508918","350946.988545","351696.536302","337880.232177","338646.750141","339414.03331","340180.572917","350957.058934","Mapping"
"Blocked","m160","ball","2","m160dime.wav","space","557.962091174","134","348647.243891","340947.222589","341696.824142","342463.251519","343230.084531","343996.741933","344763.437363","345529.980062","349413.137326","350180.508918","350946.988545","351696.536302","352463.313972","338646.750141","339414.03331","340180.572917","351705.455639","Mapping"
"Blocked","m160","ball","2","m160ball.wav","None","731.304682791","134","348647.243891","340947.222589","341696.824142","342463.251519","343230.084531","343996.741933","344763.437363","345529.980062","349413.137326","350180.508918","350946.988545","351696.536302","352463.313972","353229.857289","339414.03331","340180.572917","352472.759522","Mapping"
"Blocked","m160","ball","2","m160jaw.wav","space","656.153026037","134","348647.243891","340947.222589","341696.824142","342463.251519","343230.084531","343996.741933","344763.437363","345529.980062","349413.137326","350180.508918","350946.988545","351696.536302","352463.313972","353229.857289","353996.401533","340180.572917","353239.248425","Mapping"
"Blocked","m160","ball","2","m160depth.wav","None","727.237818763","134","348647.243891","340947.222589","341696.824142","342463.251519","343230.084531","343996.741933","344763.437363","345529.980062","349413.137326","350180.508918","350946.988545","351696.536302","352463.313972","353229.857289","353996.401533","354763.30009","354005.359827","Mapping"
"Blocked","m160","ball","2","m160ball.wav","None","725.307650398","134","348647.243891","355530.460208","341696.824142","342463.251519","343230.084531","343996.741933","344763.437363","345529.980062","349413.137326","350180.508918","350946.988545","351696.536302","352463.313972","353229.857289","353996.401533","354763.30009","354772.280953","Mapping"
"Blocked","m160","ball","2","m160dime.wav","None","722.422446124","134","348647.243891","355530.460208","356297.012181","342463.251519","343230.084531","343996.741933","344763.437363","345529.980062","349413.137326","350180.508918","350946.988545","351696.536302","352463.313972","353229.857289","353996.401533","354763.30009","355540.445265","Mapping"
"Blocked","m160","ball","2","m160knife.wav","space","20.9990437143","134","348647.243891","355530.460208","356297.012181","357046.400405","343230.084531","343996.741933","344763.437363","345529.980062","349413.137326","350180.508918","350946.988545","351696.536302","352463.313972","353229.857289","353996.401533","354763.30009","356306.390023","Mapping"
"Blocked","m160","ball","2","m160bluff.wav","None","736.237232573","134","348647.243891","355530.460208","356297.012181","357046.400405","357813.010194","343996.741933","344763.437363","345529.980062","349413.137326","350180.508918","350946.988545","351696.536302","352463.313972","353229.857289","353996.401533","354763.30009","357055.353751","Mapping"
"Blocked","m160","ball","2","m160ball.wav","None","734.329015482","134","348647.243891","355530.460208","356297.012181","357046.400405","357813.010194","358579.818163","344763.437363","345529.980062","349413.137326","350180.508918","350946.988545","351696.536302","352463.313972","353229.857289","353996.401533","354763.30009","357822.556844","Mapping"
"Blocked","m160","ball","2","m160done.wav","space","546.135597862","134","348647.243891","355530.460208","356297.012181","357046.400405","357813.010194","358579.818163","359346.655194","345529.980062","349413.137326","350180.508918","350946.988545","351696.536302","352463.313972","353229.857289","353996.401533","354763.30009","358589.198478","Mapping"
"Blocked","m160","ball","2","m160gnash.wav","None","729.690799024","134","348647.243891","355530.460208","356297.012181","357046.400405","357813.010194","358579.818163","359346.655194","360113.170686","349413.137326","350180.508918","350946.988545","351696.536302","352463.313972","353229.857289","353996.401533","354763.30009","359355.875976","Mapping"
"Blocked","m160","done","20","m160jolt.wav","None","728.785230778","134","363246.983629","355530.460208","356297.012181","357046.400405","357813.010194","358579.818163","359346.655194","360113.170686","349413.137326","350180.508918","350946.988545","351696.536302","352463.313972","353229.857289","353996.401533","354763.30009","360122.008092","Mapping"
"Blocked","m160","done","20","m160cad.wav","None","719.513435848","134","363246.983629","355530.460208","356297.012181","357046.400405","357813.010194","358579.818163","359346.655194","360113.170686","363996.67577","350180.508918","350946.988545","351696.536302","352463.313972","353229.857289","353996.401533","354763.30009","363256.995276","Mapping"
"Blocked","m160","done","20","m160gnash.wav","None","735.641764477","134","363246.983629","355530.460208","356297.012181","357046.400405","357813.010194","358579.818163","359346.655194","360113.170686","363996.67577","364763.049351","350946.988545","351696.536302","352463.313972","353229.857289","353996.401533","354763.30009","364006.096277","Mapping"
"Blocked","m160","done","20","m160dime.wav","None","734.750727657","134","363246.983629","355530.460208","356297.012181","357046.400405","357813.010194","358579.818163","359346.655194","360113.170686","363996.67577","364763.049351","365529.740143","351696.536302","352463.313972","353229.857289","353996.401533","354763.30009","364772.023412","Mapping"
"Blocked","m160","done","20","m160done.wav","None","733.207644429","134","363246.983629","355530.460208","356297.012181","357046.400405","357813.010194","358579.818163","359346.655194","360113.170686","363996.67577","364763.049351","365529.740143","366296.365082","352463.313972","353229.857289","353996.401533","354763.30009","365538.885486","Mapping"
"Blocked","m160","done","20","m160cad.wav","space","533.220505808","134","363246.983629","355530.460208","356297.012181","357046.400405","357813.010194","358579.818163","359346.655194","360113.170686","363996.67577","364763.049351","365529.740143","366296.365082","367063.051546","353229.857289","353996.401533","354763.30009","366305.965528","Mapping"
"Blocked","m160","done","20","m160romp.wav","None","728.767917026","134","363246.983629","355530.460208","356297.012181","357046.400405","357813.010194","358579.818163","359346.655194","360113.170686","363996.67577","364763.049351","365529.740143","366296.365082","367063.051546","367829.291255","353996.401533","354763.30009","367072.021588","Mapping"
"Blocked","m160","done","20","m160done.wav","None","727.764340583","134","363246.983629","355530.460208","356297.012181","357046.400405","357813.010194","358579.818163","359346.655194","360113.170686","363996.67577","364763.049351","365529.740143","366296.365082","367063.051546","367829.291255","368596.340379","354763.30009","367838.113203","Mapping"
"Blocked","m160","done","20","m160cave.wav","space","617.494936567","134","363246.983629","355530.460208","356297.012181","357046.400405","357813.010194","358579.818163","359346.655194","360113.170686","363996.67577","364763.049351","365529.740143","366296.365082","367063.051546","367829.291255","368596.340379","369363.594176","368605.644019","Mapping"
"Blocked","m160","done","20","m160done.wav","None","721.443604212","134","363246.983629","370130.107503","356297.012181","357046.400405","357813.010194","358579.818163","359346.655194","360113.170686","363996.67577","364763.049351","365529.740143","366296.365082","367063.051546","367829.291255","368596.340379","369363.594176","369373.053948","Mapping"
"Blocked","m160","done","20","m160dime.wav","space","675.144298933","134","363246.983629","370130.107503","370879.555088","357046.400405","357813.010194","358579.818163","359346.655194","360113.170686","363996.67577","364763.049351","365529.740143","366296.365082","367063.051546","367829.291255","368596.340379","369363.594176","370139.963017","Mapping"
"Blocked","m160","done","20","m160done.wav","None","734.554711729","134","363246.983629","370130.107503","370879.555088","371646.419636","357813.010194","358579.818163","359346.655194","360113.170686","363996.67577","364763.049351","365529.740143","366296.365082","367063.051546","367829.291255","368596.340379","369363.594176","370888.625302","Mapping"
