"Condition","Talker","Target","Trial","current_stimulus","response_response","response_time_response","subject_nr","time_Audio1","time_Audio10","time_Audio11","time_Audio12","time_Audio13","time_Audio14","time_Audio15","time_Audio16","time_Audio2","time_Audio3","time_Audio4","time_Audio5","time_Audio6","time_Audio7","time_Audio8","time_Audio9","time_response","title"
"Mixed","Both","done","44","m150bluff.wav","NA","NA","123","391234.187316","NA","NA","NA","NA","NA","NA","NA","NA","NA","NA","NA","NA","NA","NA","NA","NA","Mapping"
"Mixed","Both","done","44","m160cave.wav","None","720.60032934","123","391234.187316","NA","NA","NA","NA","NA","NA","NA","392001.641989","NA","NA","NA","NA","NA","NA","NA","391248.48075","Mapping"
"Mixed","Both","done","44","m160priest.wav","None","726.536655566","123","391234.187316","NA","NA","NA","NA","NA","NA","NA","392001.641989","392768.512954","NA","NA","NA","NA","NA","NA","392011.360671","Mapping"
"Mixed","Both","done","44","m160romp.wav","None","728.538206313","123","391234.187316","NA","NA","NA","NA","NA","NA","NA","392001.641989","392768.512954","393535.753064","NA","NA","NA","NA","NA","392778.463202","Mapping"
"Mixed","Both","done","44","m150done.wav","None","730.992996832","123","391234.187316","NA","NA","NA","NA","NA","NA","NA","392001.641989","392768.512954","393535.753064","394303.206191","NA","NA","NA","NA","393544.978624","Mapping"
"Mixed","Both","done","44","m150depth.wav","space","401.37493005","123","391234.187316","NA","NA","NA","NA","NA","NA","NA","392001.641989","392768.512954","393535.753064","394303.206191","395070.311814","NA","NA","NA","394312.748339","Mapping"
"Mixed","Both","done","44","m160done.wav","None","734.266462969","123","391234.187316","NA","NA","NA","NA","NA","NA","NA","392001.641989","392768.512954","393535.753064","394303.206191","395070.311814","395854.410832","NA","NA","395079.744207","Mapping"
"Mixed","Both","done","44","m150cave.wav","space","426.351649687","123","391234.187316","NA","NA","NA","NA","NA","NA","NA","392001.641989","392768.512954","393535.753064","394303.206191","395070.311814","395854.410832","396621.473171","NA","395863.724814","Mapping"
"Mixed","Both","done","44","m150priest.wav","None","726.822944824","123","391234.187316","NA","NA","NA","NA","NA","NA","NA","392001.641989","392768.512954","393535.753064","394303.206191","395070.311814","395854.410832","396621.473171","397388.64712","396625.718042","Mapping"
"Mixed","Both","done","44","m150done.wav","None","722.958041122","123","391234.187316","398156.086643","NA","NA","NA","NA","NA","NA","392001.641989","392768.512954","393535.753064","394303.206191","395070.311814","395854.410832","396621.473171","397388.64712","397398.524714","Mapping"
"Mixed","Both","done","44","m160greet.wav","space","396.400733152","123","391234.187316","398156.086643","398923.145582","NA","NA","NA","NA","NA","392001.641989","392768.512954","393535.753064","394303.206191","395070.311814","395854.410832","396621.473171","397388.64712","398165.586126","Mapping"
"Mixed","Both","done","44","m160done.wav","None","723.145705648","123","391234.187316","398156.086643","398923.145582","399690.480298","NA","NA","NA","NA","392001.641989","392768.512954","393535.753064","394303.206191","395070.311814","395854.410832","396621.473171","397388.64712","398932.631152","Mapping"
"Mixed","Both","done","44","m160park.wav","space","477.741790703","123","391234.187316","398156.086643","398923.145582","399690.480298","400457.573554","NA","NA","NA","392001.641989","392768.512954","393535.753064","394303.206191","395070.311814","395854.410832","396621.473171","397388.64712","399700.158479","Mapping"
"Mixed","Both","done","44","m150bluff.wav","None","723.002870334","123","391234.187316","398156.086643","398923.145582","399690.480298","400457.573554","401224.951244","NA","NA","392001.641989","392768.512954","393535.753064","394303.206191","395070.311814","395854.410832","396621.473171","397388.64712","400467.195467","Mapping"
"Mixed","Both","done","44","m150romp.wav","None","721.457032487","123","391234.187316","398156.086643","398923.145582","399690.480298","400457.573554","401224.951244","401992.140342","NA","392001.641989","392768.512954","393535.753064","394303.206191","395070.311814","395854.410832","396621.473171","397388.64712","401234.409298","Mapping"
"Mixed","Both","done","44","m160gnash.wav","None","723.297507036","123","391234.187316","398156.086643","398923.145582","399690.480298","400457.573554","401224.951244","401992.140342","402758.993684","392001.641989","392768.512954","393535.753064","394303.206191","395070.311814","395854.410832","396621.473171","397388.64712","402001.686509","Mapping"
"Mixed","Both","done","42","m160reek.wav","None","725.900079357","123","405961.675898","398156.086643","398923.145582","399690.480298","400457.573554","401224.951244","401992.140342","402758.993684","392001.641989","392768.512954","393535.753064","394303.206191","395070.311814","395854.410832","396621.473171","397388.64712","402768.030961","Mapping"
"Mixed","Both","done","42","m160done.wav","None","725.511146709","123","405961.675898","398156.086643","398923.145582","399690.480298","400457.573554","401224.951244","401992.140342","402758.993684","406728.548409","392768.512954","393535.753064","394303.206191","395070.311814","395854.410832","396621.473171","397388.64712","405971.025125","Mapping"
"Mixed","Both","done","42","m160jolt.wav","space","589.838218875","123","405961.675898","398156.086643","398923.145582","399690.480298","400457.573554","401224.951244","401992.140342","402758.993684","406728.548409","407495.751419","393535.753064","394303.206191","395070.311814","395854.410832","396621.473171","397388.64712","406731.822493","Mapping"
"Mixed","Both","done","42","m150done.wav","None","726.840567309","123","405961.675898","398156.086643","398923.145582","399690.480298","400457.573554","401224.951244","401992.140342","402758.993684","406728.548409","407495.751419","408264.168222","394303.206191","395070.311814","395854.410832","396621.473171","397388.64712","407504.763654","Mapping"
"Mixed","Both","done","42","m150lash.wav","space","496.229083277","123","405961.675898","398156.086643","398923.145582","399690.480298","400457.573554","401224.951244","401992.140342","402758.993684","406728.548409","407495.751419","408264.168222","409030.190831","395070.311814","395854.410832","396621.473171","397388.64712","408273.389763","Mapping"
"Mixed","Both","done","42","m150park.wav","None","727.645639563","123","405961.675898","398156.086643","398923.145582","399690.480298","400457.573554","401224.951244","401992.140342","402758.993684","406728.548409","407495.751419","408264.168222","409030.190831","409797.420739","395854.410832","396621.473171","397388.64712","409038.98201","Mapping"
"Mixed","Both","done","42","m150priest.wav","None","729.600506136","123","405961.675898","398156.086643","398923.145582","399690.480298","400457.573554","401224.951244","401992.140342","402758.993684","406728.548409","407495.751419","408264.168222","409030.190831","409797.420739","410564.962288","396621.473171","397388.64712","409806.211918","Mapping"
"Mixed","Both","done","42","m160done.wav","None","727.345128544","123","405961.675898","398156.086643","398923.145582","399690.480298","400457.573554","401224.951244","401992.140342","402758.993684","406728.548409","407495.751419","408264.168222","409030.190831","409797.420739","410564.962288","411331.777911","397388.64712","410574.351397","Mapping"
"Mixed","Both","done","42","m150romp.wav","space","444.531938992","123","405961.675898","398156.086643","398923.145582","399690.480298","400457.573554","401224.951244","401992.140342","402758.993684","406728.548409","407495.751419","408264.168222","409030.190831","409797.420739","410564.962288","411331.777911","412099.086966","411340.963898","Mapping"
"Mixed","Both","done","42","m150done.wav","None","724.928674987","123","405961.675898","412866.326459","398923.145582","399690.480298","400457.573554","401224.951244","401992.140342","402758.993684","406728.548409","407495.751419","408264.168222","409030.190831","409797.420739","410564.962288","411331.777911","412099.086966","412108.095491","Mapping"
"Mixed","Both","done","42","m160tile.wav","space","517.811143072","123","405961.675898","412866.326459","413633.765055","399690.480298","400457.573554","401224.951244","401992.140342","402758.993684","406728.548409","407495.751419","408264.168222","409030.190831","409797.420739","410564.962288","411331.777911","412099.086966","412875.636421","Mapping"
"Mixed","Both","done","42","m160jaw.wav","None","724.298591493","123","405961.675898","412866.326459","413633.765055","414401.046903","400457.573554","401224.951244","401992.140342","402758.993684","406728.548409","407495.751419","408264.168222","409030.190831","409797.420739","410564.962288","411331.777911","412099.086966","413643.117992","Mapping"
"Mixed","Both","done","42","m160reek.wav","None","725.51331087","123","405961.675898","412866.326459","413633.765055","414401.046903","415168.603292","401224.951244","401992.140342","402758.993684","406728.548409","407495.751419","408264.168222","409030.190831","409797.420739","410564.962288","411331.777911","412099.086966","414410.920788","Mapping"
"Mixed","Both","done","42","m150gnash.wav","None","723.653358873","123","405961.675898","412866.326459","413633.765055","414401.046903","415168.603292","415935.671506","401992.140342","402758.993684","406728.548409","407495.751419","408264.168222","409030.190831","409797.420739","410564.962288","411331.777911","412099.086966","415178.35722","Mapping"
"Mixed","Both","done","42","m160knife.wav","None","725.739930756","123","405961.675898","412866.326459","413633.765055","414401.046903","415168.603292","415935.671506","416703.360837","402758.993684","406728.548409","407495.751419","408264.168222","409030.190831","409797.420739","410564.962288","411331.777911","412099.086966","415945.373493","Mapping"
"Mixed","Both","done","42","m150jolt.wav","None","726.970726624","123","405961.675898","412866.326459","413633.765055","414401.046903","415168.603292","415935.671506","416703.360837","417469.900065","406728.548409","407495.751419","408264.168222","409030.190831","409797.420739","410564.962288","411331.777911","412099.086966","416713.2947","Mapping"
"Mixed","Both","done","37","m160park.wav","None","730.369714787","123","420605.483025","412866.326459","413633.765055","414401.046903","415168.603292","415935.671506","416703.360837","417469.900065","406728.548409","407495.751419","408264.168222","409030.190831","409797.420739","410564.962288","411331.777911","412099.086966","417479.371413","Mapping"
"Mixed","Both","done","37","m150gnash.wav","None","721.552874427","123","420605.483025","412866.326459","413633.765055","414401.046903","415168.603292","415935.671506","416703.360837","417469.900065","421356.553363","407495.751419","408264.168222","409030.190831","409797.420739","410564.962288","411331.777911","412099.086966","420614.74012","Mapping"
"Mixed","Both","done","37","m160greet.wav","None","742.130448809","123","420605.483025","412866.326459","413633.765055","414401.046903","415168.603292","415935.671506","416703.360837","417469.900065","421356.553363","422123.22677","408264.168222","409030.190831","409797.420739","410564.962288","411331.777911","412099.086966","421359.899483","Mapping"
"Mixed","Both","done","37","m150reek.wav","None","739.961329382","123","420605.483025","412866.326459","413633.765055","414401.046903","415168.603292","415935.671506","416703.360837","417469.900065","421356.553363","422123.22677","422907.349593","409030.190831","409797.420739","410564.962288","411331.777911","412099.086966","422127.795957","Mapping"
"Mixed","Both","done","37","m160greet.wav","None","720.248496626","123","420605.483025","412866.326459","413633.765055","414401.046903","415168.603292","415935.671506","416703.360837","417469.900065","421356.553363","422123.22677","422907.349593","423657.613931","409797.420739","410564.962288","411331.777911","412099.086966","422916.801154","Mapping"
"Mixed","Both","done","37","m160done.wav","None","736.140636494","123","420605.483025","412866.326459","413633.765055","414401.046903","415168.603292","415935.671506","416703.360837","417469.900065","421356.553363","422123.22677","422907.349593","423657.613931","424425.153934","410564.962288","411331.777911","412099.086966","423666.715824","Mapping"
"Mixed","Both","done","37","m150jolt.wav","space","382.872488117","123","420605.483025","412866.326459","413633.765055","414401.046903","415168.603292","415935.671506","416703.360837","417469.900065","421356.553363","422123.22677","422907.349593","423657.613931","424425.153934","425191.763962","411331.777911","412099.086966","424434.125977","Mapping"
"Mixed","Both","done","37","m160greet.wav","None","732.352097286","123","420605.483025","412866.326459","413633.765055","414401.046903","415168.603292","415935.671506","416703.360837","417469.900065","421356.553363","422123.22677","422907.349593","423657.613931","424425.153934","425191.763962","425959.566757","412099.086966","425201.568593","Mapping"
"Mixed","Both","done","37","m150done.wav","space","239.779229742","123","420605.483025","412866.326459","413633.765055","414401.046903","415168.603292","415935.671506","416703.360837","417469.900065","421356.553363","422123.22677","422907.349593","423657.613931","424425.153934","425191.763962","425959.566757","426726.648883","425969.192071","Mapping"
"Mixed","Both","done","37","m150cling.wav","space","576.68406656","123","420605.483025","427494.030593","413633.765055","414401.046903","415168.603292","415935.671506","416703.360837","417469.900065","421356.553363","422123.22677","422907.349593","423657.613931","424425.153934","425191.763962","425959.566757","426726.648883","426736.214528","Mapping"
"Mixed","Both","done","37","m150done.wav","None","730.260269484","123","420605.483025","427494.030593","428261.252153","414401.046903","415168.603292","415935.671506","416703.360837","417469.900065","421356.553363","422123.22677","422907.349593","423657.613931","424425.153934","425191.763962","425959.566757","426726.648883","427503.544915","Mapping"
"Mixed","Both","done","37","m150greet.wav","space","698.280595476","123","420605.483025","427494.030593","428261.252153","429028.214941","415168.603292","415935.671506","416703.360837","417469.900065","421356.553363","422123.22677","422907.349593","423657.613931","424425.153934","425191.763962","425959.566757","426726.648883","428270.596743","Mapping"
"Mixed","Both","done","37","m160done.wav","None","730.353638297","123","420605.483025","427494.030593","428261.252153","429028.214941","429795.747833","415935.671506","416703.360837","417469.900065","421356.553363","422123.22677","422907.349593","423657.613931","424425.153934","425191.763962","425959.566757","426726.648883","429037.713186","Mapping"
"Mixed","Both","done","37","m160ball.wav","space","499.441334046","123","420605.483025","427494.030593","428261.252153","429028.214941","429795.747833","430562.794096","416703.360837","417469.900065","421356.553363","422123.22677","422907.349593","423657.613931","424425.153934","425191.763962","425959.566757","426726.648883","429805.380258","Mapping"
"Mixed","Both","done","37","m160depth.wav","None","731.207868084","123","420605.483025","427494.030593","428261.252153","429028.214941","429795.747833","430562.794096","431330.4117","417469.900065","421356.553363","422123.22677","422907.349593","423657.613931","424425.153934","425191.763962","425959.566757","426726.648883","430572.173312","Mapping"
"Mixed","Both","done","37","m150cad.wav","None","733.321646694","123","420605.483025","427494.030593","428261.252153","429028.214941","429795.747833","430562.794096","431330.4117","432096.802527","421356.553363","422123.22677","422907.349593","423657.613931","424425.153934","425191.763962","425959.566757","426726.648883","431339.437228","Mapping"
"Mixed","Both","cave","21","m150jolt.wav","None","736.296457006","123","435232.877991","427494.030593","428261.252153","429028.214941","429795.747833","430562.794096","431330.4117","432096.802527","421356.553363","422123.22677","422907.349593","423657.613931","424425.153934","425191.763962","425959.566757","426726.648883","432105.862373","Mapping"
"Mixed","Both","cave","21","m150cave.wav","None","721.027907915","123","435232.877991","427494.030593","428261.252153","429028.214941","429795.747833","430562.794096","431330.4117","432096.802527","436000.142217","422123.22677","422907.349593","423657.613931","424425.153934","425191.763962","425959.566757","426726.648883","435242.733635","Mapping"
"Mixed","Both","cave","21","m160jaw.wav","None","719.271527138","123","435232.877991","427494.030593","428261.252153","429028.214941","429795.747833","430562.794096","431330.4117","432096.802527","436000.142217","436750.607514","422907.349593","423657.613931","424425.153934","425191.763962","425959.566757","426726.648883","436010.446153","Mapping"
"Mixed","Both","cave","21","m160dime.wav","space","0.0333900097758","123","435232.877991","427494.030593","428261.252153","429028.214941","429795.747833","430562.794096","431330.4117","432096.802527","436000.142217","436750.607514","437534.613472","423657.613931","424425.153934","425191.763962","425959.566757","426726.648883","436759.884396","Mapping"
"Mixed","Both","cave","21","m160jaw.wav","None","720.678548561","123","435232.877991","427494.030593","428261.252153","429028.214941","429795.747833","430562.794096","431330.4117","432096.802527","436000.142217","436750.607514","437534.613472","438284.91893","424425.153934","425191.763962","425959.566757","426726.648883","437543.588916","Mapping"
"Mixed","Both","cave","21","m150cave.wav","None","735.291044228","123","435232.877991","427494.030593","428261.252153","429028.214941","429795.747833","430562.794096","431330.4117","432096.802527","436000.142217","436750.607514","437534.613472","438284.91893","439052.087623","425191.763962","425959.566757","426726.648883","438294.726034","Mapping"
"Mixed","Both","cave","21","m160park.wav","space","426.89578468","123","435232.877991","427494.030593","428261.252153","429028.214941","429795.747833","430562.794096","431330.4117","432096.802527","436000.142217","436750.607514","437534.613472","438284.91893","439052.087623","439819.251678","425959.566757","426726.648883","439061.576903","Mapping"
"Mixed","Both","cave","21","m150done.wav","None","733.338651014","123","435232.877991","427494.030593","428261.252153","429028.214941","429795.747833","430562.794096","431330.4117","432096.802527","436000.142217","436750.607514","437534.613472","438284.91893","439052.087623","439819.251678","440586.771895","426726.648883","439828.022453","Mapping"
"Mixed","Both","cave","21","m160cave.wav","None","730.99516076","123","435232.877991","427494.030593","428261.252153","429028.214941","429795.747833","430562.794096","431330.4117","432096.802527","436000.142217","436750.607514","437534.613472","438284.91893","439052.087623","439819.251678","440586.771895","441353.922656","440596.158222","Mapping"
"Mixed","Both","cave","21","m150dime.wav","space","540.827740449","123","435232.877991","442121.296945","428261.252153","429028.214941","429795.747833","430562.794096","431330.4117","432096.802527","436000.142217","436750.607514","437534.613472","438284.91893","439052.087623","439819.251678","440586.771895","441353.922656","441363.587543","Mapping"
"Mixed","Both","cave","21","m160cave.wav","None","731.279285857","123","435232.877991","442121.296945","442888.198827","429028.214941","429795.747833","430562.794096","431330.4117","432096.802527","436000.142217","436750.607514","437534.613472","438284.91893","439052.087623","439819.251678","440586.771895","441353.922656","442130.637207","Mapping"
"Mixed","Both","cave","21","m150reek.wav","space","511.116737965","123","435232.877991","442121.296945","442888.198827","443655.316507","429795.747833","430562.794096","431330.4117","432096.802527","436000.142217","436750.607514","437534.613472","438284.91893","439052.087623","439819.251678","440586.771895","441353.922656","442897.212916","Mapping"
"Mixed","Both","cave","21","m160romp.wav","None","731.190554798","123","435232.877991","442121.296945","442888.198827","443655.316507","444422.591863","430562.794096","431330.4117","432096.802527","436000.142217","436750.607514","437534.613472","438284.91893","439052.087623","439819.251678","440586.771895","441353.922656","443664.094083","Mapping"
"Mixed","Both","cave","21","m150depth.wav","None","729.76931138","123","435232.877991","442121.296945","442888.198827","443655.316507","444422.591863","445190.232964","431330.4117","432096.802527","436000.142217","436750.607514","437534.613472","438284.91893","439052.087623","439819.251678","440586.771895","441353.922656","444431.722818","Mapping"
"Mixed","Both","cave","21","m160jolt.wav","None","727.751065744","123","435232.877991","442121.296945","442888.198827","443655.316507","444422.591863","445190.232964","445957.339514","432096.802527","436000.142217","436750.607514","437534.613472","438284.91893","439052.087623","439819.251678","440586.771895","441353.922656","445199.474291","Mapping"
"Mixed","Both","cave","21","m150cad.wav","None","726.321474882","123","435232.877991","442121.296945","442888.198827","443655.316507","444422.591863","445190.232964","445957.339514","446724.578079","436000.142217","436750.607514","437534.613472","438284.91893","439052.087623","439819.251678","440586.771895","441353.922656","445966.825084","Mapping"
"Mixed","Both","tile","36","m150gnash.wav","None","724.713185336","123","449860.178971","442121.296945","442888.198827","443655.316507","444422.591863","445190.232964","445957.339514","446724.578079","436000.142217","436750.607514","437534.613472","438284.91893","439052.087623","439819.251678","440586.771895","441353.922656","446734.107551","Mapping"
"Mixed","Both","tile","36","m160tile.wav","None","721.674068132","123","449860.178971","442121.296945","442888.198827","443655.316507","444422.591863","445190.232964","445957.339514","446724.578079","450627.450926","436750.607514","437534.613472","438284.91893","439052.087623","439819.251678","440586.771895","441353.922656","449869.583539","Mapping"
"Mixed","Both","tile","36","m160romp.wav","space","479.884631","123","449860.178971","442121.296945","442888.198827","443655.316507","444422.591863","445190.232964","445957.339514","446724.578079","450627.450926","451377.725157","437534.613472","438284.91893","439052.087623","439819.251678","440586.771895","441353.922656","450632.189846","Mapping"
"Mixed","Both","tile","36","m160priest.wav","None","735.439753626","123","449860.178971","442121.296945","442888.198827","443655.316507","444422.591863","445190.232964","445957.339514","446724.578079","450627.450926","451377.725157","452145.29886","438284.91893","439052.087623","439819.251678","440586.771895","441353.922656","451387.244427","Mapping"
"Mixed","Both","tile","36","m160bluff.wav","None","733.491998166","123","449860.178971","442121.296945","442888.198827","443655.316507","444422.591863","445190.232964","445957.339514","446724.578079","450627.450926","451377.725157","452145.29886","452929.069851","439052.087623","439819.251678","440586.771895","441353.922656","452154.993427","Mapping"
"Mixed","Both","tile","36","m160ball.wav","None","721.272768686","123","449860.178971","442121.296945","442888.198827","443655.316507","444422.591863","445190.232964","445957.339514","446724.578079","450627.450926","451377.725157","452145.29886","452929.069851","453696.358501","439819.251678","440586.771895","441353.922656","452938.492351","Mapping"
"Mixed","Both","tile","36","m150cad.wav","None","719.818753656","123","449860.178971","442121.296945","442888.198827","443655.316507","444422.591863","445190.232964","445957.339514","446724.578079","450627.450926","451377.725157","452145.29886","452929.069851","453696.358501","454446.504737","440586.771895","441353.922656","453706.153547","Mapping"
"Mixed","Both","tile","36","m150reek.wav","None","735.961319413","123","449860.178971","442121.296945","442888.198827","443655.316507","444422.591863","445190.232964","445957.339514","446724.578079","450627.450926","451377.725157","452145.29886","452929.069851","453696.358501","454446.504737","455213.718568","441353.922656","454456.039465","Mapping"
"Mixed","Both","tile","36","m150tile.wav","None","735.346694477","123","449860.178971","442121.296945","442888.198827","443655.316507","444422.591863","445190.232964","445957.339514","446724.578079","450627.450926","451377.725157","452145.29886","452929.069851","453696.358501","454446.504737","455213.718568","455997.953929","455222.649492","Mapping"
"Mixed","Both","tile","36","m160done.wav","space","608.122388367","123","449860.178971","456748.236508","442888.198827","443655.316507","444422.591863","445190.232964","445957.339514","446724.578079","450627.450926","451377.725157","452145.29886","452929.069851","453696.358501","454446.504737","455213.718568","455997.953929","456007.705383","Mapping"
"Mixed","Both","tile","36","m150park.wav","None","735.046801856","123","449860.178971","456748.236508","457515.776511","443655.316507","444422.591863","445190.232964","445957.339514","446724.578079","450627.450926","451377.725157","452145.29886","452929.069851","453696.358501","454446.504737","455213.718568","455997.953929","456757.94066","Mapping"
"Mixed","Both","tile","36","m150park.wav","None","734.198136954","123","449860.178971","456748.236508","457515.776511","458283.007347","444422.591863","445190.232964","445957.339514","446724.578079","450627.450926","451377.725157","452145.29886","452929.069851","453696.358501","454446.504737","455213.718568","455997.953929","457525.181079","Mapping"
"Mixed","Both","tile","36","m150tile.wav","None","733.049888629","123","449860.178971","456748.236508","457515.776511","458283.007347","459050.388747","445190.232964","445957.339514","446724.578079","450627.450926","451377.725157","452145.29886","452929.069851","453696.358501","454446.504737","455213.718568","455997.953929","458292.40635","Mapping"
"Mixed","Both","tile","36","m150priest.wav","space","476.029620739","123","449860.178971","456748.236508","457515.776511","458283.007347","459050.388747","459817.29372","445957.339514","446724.578079","450627.450926","451377.725157","452145.29886","452929.069851","453696.358501","454446.504737","455213.718568","455997.953929","459059.722207","Mapping"
"Mixed","Both","tile","36","m160tile.wav","None","730.72680342","123","449860.178971","456748.236508","457515.776511","458283.007347","459050.388747","459817.29372","460584.800952","446724.578079","450627.450926","451377.725157","452145.29886","452929.069851","453696.358501","454446.504737","455213.718568","455997.953929","459826.624088","Mapping"
"Mixed","Both","tile","36","m160cad.wav","space","541.477919789","123","449860.178971","456748.236508","457515.776511","458283.007347","459050.388747","459817.29372","460584.800952","461351.433548","450627.450926","451377.725157","452145.29886","452929.069851","453696.358501","454446.504737","455213.718568","455997.953929","460594.244475","Mapping"
"Mixed","Both","cave","22","m160jolt.wav","None","731.960691046","123","464487.524471","456748.236508","457515.776511","458283.007347","459050.388747","459817.29372","460584.800952","461351.433548","450627.450926","451377.725157","452145.29886","452929.069851","453696.358501","454446.504737","455213.718568","455997.953929","461360.40219","Mapping"
"Mixed","Both","cave","22","m160cave.wav","None","721.681179013","123","464487.524471","456748.236508","457515.776511","458283.007347","459050.388747","459817.29372","460584.800952","461351.433548","465254.772929","451377.725157","452145.29886","452929.069851","453696.358501","454446.504737","455213.718568","455997.953929","464496.844327","Mapping"
"Mixed","Both","cave","22","m150depth.wav","space","639.299154282","123","464487.524471","456748.236508","457515.776511","458283.007347","459050.388747","459817.29372","460584.800952","461351.433548","465254.772929","466004.848675","452145.29886","452929.069851","453696.358501","454446.504737","455213.718568","455997.953929","465264.234693","Mapping"
"Mixed","Both","cave","22","m160cling.wav","None","736.039229669","123","464487.524471","456748.236508","457515.776511","458283.007347","459050.388747","459817.29372","460584.800952","461351.433548","465254.772929","466004.848675","466789.044462","452929.069851","453696.358501","454446.504737","455213.718568","455997.953929","466013.941911","Mapping"
"Mixed","Both","cave","22","m150romp.wav","None","720.649796072","123","464487.524471","456748.236508","457515.776511","458283.007347","459050.388747","459817.29372","460584.800952","461351.433548","465254.772929","466004.848675","466789.044462","467539.290559","453696.358501","454446.504737","455213.718568","455997.953929","466798.46758","Mapping"
"Mixed","Both","cave","22","m150cad.wav","None","736.775357742","123","464487.524471","456748.236508","457515.776511","458283.007347","459050.388747","459817.29372","460584.800952","461351.433548","465254.772929","466004.848675","466789.044462","467539.290559","468306.824379","454446.504737","455213.718568","455997.953929","467548.350715","Mapping"
"Mixed","Both","cave","22","m160cave.wav","None","734.665907221","123","464487.524471","456748.236508","457515.776511","458283.007347","459050.388747","459817.29372","460584.800952","461351.433548","465254.772929","466004.848675","466789.044462","467539.290559","468306.824379","469074.022752","455213.718568","455997.953929","468316.360343","Mapping"
"Mixed","Both","cave","22","m150bluff.wav","space","580.178896664","123","464487.524471","456748.236508","457515.776511","458283.007347","459050.388747","459817.29372","460584.800952","461351.433548","465254.772929","466004.848675","466789.044462","467539.290559","468306.824379","469074.022752","469841.352212","455997.953929","469083.228216","Mapping"
"Mixed","Both","cave","22","m150dime.wav","None","731.185917277","123","464487.524471","456748.236508","457515.776511","458283.007347","459050.388747","459817.29372","460584.800952","461351.433548","465254.772929","466004.848675","466789.044462","467539.290559","468306.824379","469074.022752","469841.352212","470608.967034","469851.385009","Mapping"
"Mixed","Both","cave","22","m160reek.wav","None","730.298915412","123","464487.524471","471375.867988","457515.776511","458283.007347","459050.388747","459817.29372","460584.800952","461351.433548","465254.772929","466004.848675","466789.044462","467539.290559","468306.824379","469074.022752","469841.352212","470608.967034","470618.35027","Mapping"
"Mixed","Both","cave","22","m150cave.wav","None","729.344206164","123","464487.524471","471375.867988","472142.870039","458283.007347","459050.388747","459817.29372","460584.800952","461351.433548","465254.772929","466004.848675","466789.044462","467539.290559","468306.824379","469074.022752","469841.352212","470608.967034","471385.268227","Mapping"
"Mixed","Both","cave","22","m150reek.wav","space","471.306158695","123","464487.524471","471375.867988","472142.870039","472910.413753","459050.388747","459817.29372","460584.800952","461351.433548","465254.772929","466004.848675","466789.044462","467539.290559","468306.824379","469074.022752","469841.352212","470608.967034","472151.996666","Mapping"
"Mixed","Both","cave","22","m160romp.wav","None","725.929450477","123","464487.524471","471375.867988","472142.870039","472910.413753","473677.532051","459817.29372","460584.800952","461351.433548","465254.772929","466004.848675","466789.044462","467539.290559","468306.824379","469074.022752","469841.352212","470608.967034","472920.27929","Mapping"
"Mixed","Both","cave","22","m150cave.wav","None","725.307405461","123","464487.524471","471375.867988","472142.870039","472910.413753","473677.532051","474444.155063","460584.800952","461351.433548","465254.772929","466004.848675","466789.044462","467539.290559","468306.824379","469074.022752","469841.352212","470608.967034","473686.941566","Mapping"
"Mixed","Both","cave","22","m160reek.wav","space","554.359695408","123","464487.524471","471375.867988","472142.870039","472910.413753","473677.532051","474444.155063","475211.926015","461351.433548","465254.772929","466004.848675","466789.044462","467539.290559","468306.824379","469074.022752","469841.352212","470608.967034","474452.836798","Mapping"
"Mixed","Both","cave","22","m160lash.wav","None","726.027147379","123","464487.524471","471375.867988","472142.870039","472910.413753","473677.532051","474444.155063","475211.926015","475979.220848","465254.772929","466004.848675","466789.044462","467539.290559","468306.824379","469074.022752","469841.352212","470608.967034","475221.349133","Mapping"
"Mixed","Both","ball","2","m150depth.wav","None","727.490746649","123","479114.68818","471375.867988","472142.870039","472910.413753","473677.532051","474444.155063","475211.926015","475979.220848","465254.772929","466004.848675","466789.044462","467539.290559","468306.824379","469074.022752","469841.352212","470608.967034","475989.093805","Mapping"
"Mixed","Both","ball","2","m150jaw.wav","None","721.82772425","123","479114.68818","471375.867988","472142.870039","472910.413753","473677.532051","474444.155063","475211.926015","475979.220848","479882.129868","466004.848675","466789.044462","467539.290559","468306.824379","469074.022752","469841.352212","470608.967034","479124.17375","Mapping"
"Mixed","Both","ball","2","m150reek.wav","None","724.025905831","123","479114.68818","471375.867988","472142.870039","472910.413753","473677.532051","474444.155063","475211.926015","475979.220848","479882.129868","480649.110587","466789.044462","467539.290559","468306.824379","469074.022752","469841.352212","470608.967034","479891.575864","Mapping"
"Mixed","Both","ball","2","m160depth.wav","None","723.276174394","123","479114.68818","471375.867988","472142.870039","472910.413753","473677.532051","474444.155063","475211.926015","475979.220848","479882.129868","480649.110587","481416.485494","467539.290559","468306.824379","469074.022752","469841.352212","470608.967034","480658.393034","Mapping"
"Mixed","Both","ball","2","m160park.wav","None","721.516392659","123","479114.68818","471375.867988","472142.870039","472910.413753","473677.532051","474444.155063","475211.926015","475979.220848","479882.129868","480649.110587","481416.485494","482183.54196","468306.824379","469074.022752","469841.352212","470608.967034","481426.115755","Mapping"
"Mixed","Both","ball","2","m160gnash.wav","None","721.222065156","123","479114.68818","471375.867988","472142.870039","472910.413753","473677.532051","474444.155063","475211.926015","475979.220848","479882.129868","480649.110587","481416.485494","482183.54196","482950.587295","469074.022752","469841.352212","470608.967034","482192.686209","Mapping"
"Mixed","Both","ball","2","m160ball.wav","None","719.961280003","123","479114.68818","471375.867988","472142.870039","472910.413753","473677.532051","474444.155063","475211.926015","475979.220848","479882.129868","480649.110587","481416.485494","482183.54196","482950.587295","483701.068669","469841.352212","470608.967034","482960.124805","Mapping"
"Mixed","Both","ball","2","m160knife.wav","space","480.152370175","123","479114.68818","471375.867988","472142.870039","472910.413753","473677.532051","474444.155063","475211.926015","475979.220848","479882.129868","480649.110587","481416.485494","482183.54196","482950.587295","483701.068669","484468.788298","470608.967034","483710.676051","Mapping"
"Mixed","Both","ball","2","m160jaw.wav","None","732.934569009","123","479114.68818","471375.867988","472142.870039","472910.413753","473677.532051","474444.155063","475211.926015","475979.220848","479882.129868","480649.110587","481416.485494","482183.54196","482950.587295","483701.068669","484468.788298","485235.921127","484478.883237","Mapping"
"Mixed","Both","ball","2","m150knife.wav","None","732.576243812","123","479114.68818","486002.849597","472142.870039","472910.413753","473677.532051","474444.155063","475211.926015","475979.220848","479882.129868","480649.110587","481416.485494","482183.54196","482950.587295","483701.068669","484468.788298","485235.921127","485245.320749","Mapping"
"Mixed","Both","ball","2","m160ball.wav","None","735.75572297","123","479114.68818","486002.849597","486769.724272","472910.413753","473677.532051","474444.155063","475211.926015","475979.220848","479882.129868","480649.110587","481416.485494","482183.54196","482950.587295","483701.068669","484468.788298","485235.921127","486012.373504","Mapping"
"Mixed","Both","ball","2","m160dime.wav","space","531.999151688","123","479114.68818","486002.849597","486769.724272","487537.587974","473677.532051","474444.155063","475211.926015","475979.220848","479882.129868","480649.110587","481416.485494","482183.54196","482950.587295","483701.068669","484468.788298","485235.921127","486778.756602","Mapping"
"Mixed","Both","ball","2","m150ball.wav","None","732.079720823","123","479114.68818","486002.849597","486769.724272","487537.587974","488304.667008","474444.155063","475211.926015","475979.220848","479882.129868","480649.110587","481416.485494","482183.54196","482950.587295","483701.068669","484468.788298","485235.921127","487547.44238","Mapping"
"Mixed","Both","ball","2","m150done.wav","space","516.621775459","123","479114.68818","486002.849597","486769.724272","487537.587974","488304.667008","489071.964933","475211.926015","475979.220848","479882.129868","480649.110587","481416.485494","482183.54196","482950.587295","483701.068669","484468.788298","485235.921127","488314.099401","Mapping"
"Mixed","Both","ball","2","m150ball.wav","None","733.652146999","123","479114.68818","486002.849597","486769.724272","487537.587974","488304.667008","489071.964933","489839.205044","475979.220848","479882.129868","480649.110587","481416.485494","482183.54196","482950.587295","483701.068669","484468.788298","485235.921127","489081.339821","Mapping"
"Mixed","Both","ball","2","m150gnash.wav","space","550.374525599","123","479114.68818","486002.849597","486769.724272","487537.587974","488304.667008","489071.964933","489839.205044","490606.551508","479882.129868","480649.110587","481416.485494","482183.54196","482950.587295","483701.068669","484468.788298","485235.921127","489848.240775","Mapping"
"Mixed","Both","cave","14","m150knife.wav","None","735.927311005","123","493742.079127","486002.849597","486769.724272","487537.587974","488304.667008","489071.964933","489839.205044","490606.551508","479882.129868","480649.110587","481416.485494","482183.54196","482950.587295","483701.068669","484468.788298","485235.921127","490610.673948","Mapping"
"Mixed","Both","cave","14","m160cave.wav","None","722.056199331","123","493742.079127","486002.849597","486769.724272","487537.587974","488304.667008","489071.964933","489839.205044","490606.551508","494509.233908","480649.110587","481416.485494","482183.54196","482950.587295","483701.068669","484468.788298","485235.921127","493751.265423","Mapping"
"Mixed","Both","cave","14","m150priest.wav","space","471.893576905","123","493742.079127","486002.849597","486769.724272","487537.587974","488304.667008","489071.964933","489839.205044","490606.551508","494509.233908","495259.690548","481416.485494","482183.54196","482950.587295","483701.068669","484468.788298","485235.921127","494518.606631","Mapping"
"Mixed","Both","cave","14","m160jaw.wav","None","735.59773853","123","493742.079127","486002.849597","486769.724272","487537.587974","488304.667008","489071.964933","489839.205044","490606.551508","494509.233908","495259.690548","496026.888612","482183.54196","482950.587295","483701.068669","484468.788298","485235.921127","495269.143346","Mapping"
"Mixed","Both","cave","14","m150cave.wav","None","734.396004118","123","493742.079127","486002.849597","486769.724272","487537.587974","488304.667008","489071.964933","489839.205044","490606.551508","494509.233908","495259.690548","496026.888612","496794.011548","482950.587295","483701.068669","484468.788298","485235.921127","496036.51949","Mapping"
"Mixed","Both","cave","14","m160greet.wav","None","733.905355213","123","493742.079127","486002.849597","486769.724272","487537.587974","488304.667008","489071.964933","489839.205044","490606.551508","494509.233908","495259.690548","496026.888612","496794.011548","497561.463129","483701.068669","484468.788298","485235.921127","496803.090253","Mapping"
"Mixed","Both","cave","14","m160romp.wav","None","732.569751097","123","493742.079127","486002.849597","486769.724272","487537.587974","488304.667008","489071.964933","489839.205044","490606.551508","494509.233908","495259.690548","496026.888612","496794.011548","497561.463129","498328.618528","484468.788298","485235.921127","497570.855021","Mapping"
"Mixed","Both","cave","14","m150cave.wav","space","116.259369301","123","493742.079127","486002.849597","486769.724272","487537.587974","488304.667008","489071.964933","489839.205044","490606.551508","494509.233908","495259.690548","496026.888612","496794.011548","497561.463129","498328.618528","499095.918308","485235.921127","498338.086166","Mapping"
"Mixed","Both","cave","14","m150romp.wav","space","636.482019443","123","493742.079127","486002.849597","486769.724272","487537.587974","488304.667008","489071.964933","489839.205044","490606.551508","494509.233908","495259.690548","496026.888612","496794.011548","497561.463129","498328.618528","499095.918308","499862.754646","499105.815071","Mapping"
"Mixed","Both","cave","14","m160cling.wav","None","728.773482842","123","493742.079127","500630.258786","486769.724272","487537.587974","488304.667008","489071.964933","489839.205044","490606.551508","494509.233908","495259.690548","496026.888612","496794.011548","497561.463129","498328.618528","499095.918308","499862.754646","499871.799343","Mapping"
"Mixed","Both","cave","14","m160cave.wav","None","727.152517298","123","493742.079127","500630.258786","501397.533214","487537.587974","488304.667008","489071.964933","489839.205044","490606.551508","494509.233908","495259.690548","496026.888612","496794.011548","497561.463129","498328.618528","499095.918308","499862.754646","500639.82443","Mapping"
"Mixed","Both","cave","14","m160depth.wav","space","463.213079609","123","493742.079127","500630.258786","501397.533214","502164.747973","488304.667008","489071.964933","489839.205044","490606.551508","494509.233908","495259.690548","496026.888612","496794.011548","497561.463129","498328.618528","499095.918308","499862.754646","501407.002398","Mapping"
"Mixed","Both","cave","14","m160ball.wav","None","724.717204459","123","493742.079127","500630.258786","501397.533214","502164.747973","502932.176057","489071.964933","489839.205044","490606.551508","494509.233908","495259.690548","496026.888612","496794.011548","497561.463129","498328.618528","499095.918308","499862.754646","502174.06752","Mapping"
"Mixed","Both","cave","14","m150jolt.wav","None","723.833603552","123","493742.079127","500630.258786","501397.533214","502164.747973","502932.176057","503699.33362","489839.205044","490606.551508","494509.233908","495259.690548","496026.888612","496794.011548","497561.463129","498328.618528","499095.918308","499862.754646","502941.142844","Mapping"
"Mixed","Both","cave","14","m150greet.wav","None","722.197179683","123","493742.079127","500630.258786","501397.533214","502164.747973","502932.176057","503699.33362","504466.208604","490606.551508","494509.233908","495259.690548","496026.888612","496794.011548","497561.463129","498328.618528","499095.918308","499862.754646","503708.857527","Mapping"
"Mixed","Both","cave","14","m150romp.wav","None","721.914291382","123","493742.079127","500630.258786","501397.533214","502164.747973","502932.176057","503699.33362","504466.208604","505233.43573","494509.233908","495259.690548","496026.888612","496794.011548","497561.463129","498328.618528","499095.918308","499862.754646","504475.311424","Mapping"
"Mixed","Both","tile","28","m150cling.wav","None","720.802215626","123","508352.594472","500630.258786","501397.533214","502164.747973","502932.176057","503699.33362","504466.208604","505233.43573","494509.233908","495259.690548","496026.888612","496794.011548","497561.463129","498328.618528","499095.918308","499862.754646","505242.569776","Mapping"
"Mixed","Both","tile","28","m160tile.wav","None","722.364439396","123","508352.594472","500630.258786","501397.533214","502164.747973","502932.176057","503699.33362","504466.208604","505233.43573","509120.113452","495259.690548","496026.888612","496794.011548","497561.463129","498328.618528","499095.918308","499862.754646","508361.652154","Mapping"
"Mixed","Both","tile","28","m160cling.wav","space","500.222600531","123","508352.594472","500630.258786","501397.533214","502164.747973","502932.176057","503699.33362","504466.208604","505233.43573","509120.113452","509887.168371","496026.888612","496794.011548","497561.463129","498328.618528","499095.918308","499862.754646","509129.731346","Mapping"
"Mixed","Both","tile","28","m150jolt.wav","None","719.671589788","123","508352.594472","500630.258786","501397.533214","502164.747973","502932.176057","503699.33362","504466.208604","505233.43573","509120.113452","509887.168371","510637.368093","496794.011548","497561.463129","498328.618528","499095.918308","499862.754646","509897.045038","Mapping"
"Mixed","Both","tile","28","m160romp.wav","None","736.863161204","123","508352.594472","500630.258786","501397.533214","502164.747973","502932.176057","503699.33362","504466.208604","505233.43573","509120.113452","509887.168371","510637.368093","511404.827404","497561.463129","498328.618528","499095.918308","499862.754646","510646.529965","Mapping"
"Mixed","Both","tile","28","m150greet.wav","None","735.184999648","123","508352.594472","500630.258786","501397.533214","502164.747973","502932.176057","503699.33362","504466.208604","505233.43573","509120.113452","509887.168371","510637.368093","511404.827404","512172.110489","498328.618528","499095.918308","499862.754646","511414.556289","Mapping"
"Mixed","Both","tile","28","m150reek.wav","None","734.44330669","123","508352.594472","500630.258786","501397.533214","502164.747973","502932.176057","503699.33362","504466.208604","505233.43573","509120.113452","509887.168371","510637.368093","511404.827404","512172.110489","512939.240536","499095.918308","499862.754646","512181.633159","Mapping"
"Mixed","Both","tile","28","m160knife.wav","None","733.854651684","123","508352.594472","500630.258786","501397.533214","502164.747973","502932.176057","503699.33362","504466.208604","505233.43573","509120.113452","509887.168371","510637.368093","511404.827404","512172.110489","512939.240536","513706.394389","499862.754646","512948.526693","Mapping"
"Mixed","Both","tile","28","m160tile.wav","None","733.559396584","123","508352.594472","500630.258786","501397.533214","502164.747973","502932.176057","503699.33362","504466.208604","505233.43573","509120.113452","509887.168371","510637.368093","511404.827404","512172.110489","512939.240536","513706.394389","514473.80887","513715.482678","Mapping"
"Mixed","Both","tile","28","m150depth.wav","space","434.506562306","123","508352.594472","515241.025484","501397.533214","502164.747973","502932.176057","503699.33362","504466.208604","505233.43573","509120.113452","509887.168371","510637.368093","511404.827404","512172.110489","512939.240536","513706.394389","514473.80887","514483.26476","Mapping"
"Mixed","Both","tile","28","m150depth.wav","None","730.427529197","123","508352.594472","515241.025484","516008.166043","502164.747973","502932.176057","503699.33362","504466.208604","505233.43573","509120.113452","509887.168371","510637.368093","511404.827404","512172.110489","512939.240536","513706.394389","514473.80887","515250.314423","Mapping"
"Mixed","Both","tile","28","m150tile.wav","None","729.333385359","123","508352.594472","515241.025484","516008.166043","516775.311239","502932.176057","503699.33362","504466.208604","505233.43573","509120.113452","509887.168371","510637.368093","511404.827404","512172.110489","512939.240536","513706.394389","514473.80887","516017.675728","Mapping"
"Mixed","Both","tile","28","m160reek.wav","space","566.383840283","123","508352.594472","515241.025484","516008.166043","516775.311239","517542.832692","503699.33362","504466.208604","505233.43573","509120.113452","509887.168371","510637.368093","511404.827404","512172.110489","512939.240536","513706.394389","514473.80887","516783.276323","Mapping"
"Mixed","Both","tile","28","m160lash.wav","None","726.428446826","123","508352.594472","515241.025484","516008.166043","516775.311239","517542.832692","518309.651098","504466.208604","505233.43573","509120.113452","509887.168371","510637.368093","511404.827404","512172.110489","512939.240536","513706.394389","514473.80887","517552.323827","Mapping"
"Mixed","Both","tile","28","m150tile.wav","None","726.494608913","123","508352.594472","515241.025484","516008.166043","516775.311239","517542.832692","518309.651098","519077.182754","505233.43573","509120.113452","509887.168371","510637.368093","511404.827404","512172.110489","512939.240536","513706.394389","514473.80887","518319.102041","Mapping"
"Mixed","Both","tile","28","m160lash.wav","space","462.990169879","123","508352.594472","515241.025484","516008.166043","516775.311239","517542.832692","518309.651098","519077.182754","519843.944582","509120.113452","509887.168371","510637.368093","511404.827404","512172.110489","512939.240536","513706.394389","514473.80887","519086.590104","Mapping"
"Mixed","Both","cave","24","m150cad.wav","None","724.268911406","123","522979.767766","515241.025484","516008.166043","516775.311239","517542.832692","518309.651098","519077.182754","519843.944582","509120.113452","509887.168371","510637.368093","511404.827404","512172.110489","512939.240536","513706.394389","514473.80887","519853.343276","Mapping"
"Mixed","Both","cave","24","m150jolt.wav","None","721.401073271","123","522979.767766","515241.025484","516008.166043","516775.311239","517542.832692","518309.651098","519077.182754","519843.944582","523746.976341","509887.168371","510637.368093","511404.827404","512172.110489","512939.240536","513706.394389","514473.80887","522989.129359","Mapping"
"Mixed","Both","cave","24","m160ball.wav","None","720.754294656","123","522979.767766","515241.025484","516008.166043","516775.311239","517542.832692","518309.651098","519077.182754","519843.944582","523746.976341","524497.48183","510637.368093","511404.827404","512172.110489","512939.240536","513706.394389","514473.80887","523755.963842","Mapping"
"Mixed","Both","cave","24","m160cave.wav","None","735.979560297","123","522979.767766","515241.025484","516008.166043","516775.311239","517542.832692","518309.651098","519077.182754","519843.944582","523746.976341","524497.48183","525264.790885","511404.827404","512172.110489","512939.240536","513706.394389","514473.80887","524507.015012","Mapping"
"Mixed","Both","cave","24","m160lash.wav","space","427.253800677","123","522979.767766","515241.025484","516008.166043","516775.311239","517542.832692","518309.651098","519077.182754","519843.944582","523746.976341","524497.48183","525264.790885","526031.999461","512172.110489","512939.240536","513706.394389","514473.80887","525274.122799","Mapping"
"Mixed","Both","cave","24","m150bluff.wav","None","733.110794565","123","522979.767766","515241.025484","516008.166043","516775.311239","517542.832692","518309.651098","519077.182754","519843.944582","523746.976341","524497.48183","525264.790885","526031.999461","526799.321501","512939.240536","513706.394389","514473.80887","526041.404956","Mapping"
"Mixed","Both","cave","24","m160dime.wav","None","728.064252529","123","522979.767766","515241.025484","516008.166043","516775.311239","517542.832692","518309.651098","519077.182754","519843.944582","523746.976341","524497.48183","525264.790885","526031.999461","526799.321501","527566.56594","513706.394389","514473.80887","526812.51028","Mapping"
"Mixed","Both","cave","24","m150cave.wav","None","730.829447042","123","522979.767766","515241.025484","516008.166043","516775.311239","517542.832692","518309.651098","519077.182754","519843.944582","523746.976341","524497.48183","525264.790885","526031.999461","526799.321501","527566.56594","528333.771424","514473.80887","527575.939591","Mapping"
"Mixed","Both","cave","24","m150done.wav","space","438.329419354","123","522979.767766","515241.025484","516008.166043","516775.311239","517542.832692","518309.651098","519077.182754","519843.944582","523746.976341","524497.48183","525264.790885","526031.999461","526799.321501","527566.56594","528333.771424","529101.212184","528342.92031","Mapping"
"Mixed","Both","cave","24","m150cave.wav","None","723.834840115","123","522979.767766","529868.246698","516008.166043","516775.311239","517542.832692","518309.651098","519077.182754","519843.944582","523746.976341","524497.48183","525264.790885","526031.999461","526799.321501","527566.56594","528333.771424","529101.212184","529114.760216","Mapping"
"Mixed","Both","cave","24","m160jolt.wav","space","559.7794028","123","522979.767766","529868.246698","530635.471351","516775.311239","517542.832692","518309.651098","519077.182754","519843.944582","523746.976341","524497.48183","525264.790885","526031.999461","526799.321501","527566.56594","528333.771424","529101.212184","529877.411352","Mapping"
"Mixed","Both","cave","24","m160cave.wav","None","722.137510311","123","522979.767766","529868.246698","530635.471351","531402.751962","517542.832692","518309.651098","519077.182754","519843.944582","523746.976341","524497.48183","525264.790885","526031.999461","526799.321501","527566.56594","528333.771424","529101.212184","530648.845012","Mapping"
"Mixed","Both","cave","24","m160priest.wav","space","633.306559408","123","522979.767766","529868.246698","530635.471351","531402.751962","532169.759579","518309.651098","519077.182754","519843.944582","523746.976341","524497.48183","525264.790885","526031.999461","526799.321501","527566.56594","528333.771424","529101.212184","531411.841798","Mapping"
"Mixed","Both","cave","24","m150lash.wav","None","723.059447948","123","522979.767766","529868.246698","530635.471351","531402.751962","532169.759579","532937.127067","519077.182754","519843.944582","523746.976341","524497.48183","525264.790885","526031.999461","526799.321501","527566.56594","528333.771424","529101.212184","532179.592344","Mapping"
"Mixed","Both","cave","24","m160gnash.wav","None","720.818601316","123","522979.767766","529868.246698","530635.471351","531402.751962","532169.759579","532937.127067","533704.259278","519843.944582","523746.976341","524497.48183","525264.790885","526031.999461","526799.321501","527566.56594","528333.771424","529101.212184","532948.139924","Mapping"
"Mixed","Both","cave","24","m150dime.wav","None","722.058981657","123","522979.767766","529868.246698","530635.471351","531402.751962","532169.759579","532937.127067","533704.259278","534471.681797","523746.976341","524497.48183","525264.790885","526031.999461","526799.321501","527566.56594","528333.771424","529101.212184","533713.428878","Mapping"
"Mixed","Both","ball","3","m150cave.wav","None","721.440337365","123","537590.56569","529868.246698","530635.471351","531402.751962","532169.759579","532937.127067","533704.259278","534471.681797","523746.976341","524497.48183","525264.790885","526031.999461","526799.321501","527566.56594","528333.771424","529101.212184","534480.704234","Mapping"
"Mixed","Both","ball","3","m160knife.wav","None","720.601565903","123","537590.56569","529868.246698","530635.471351","531402.751962","532169.759579","532937.127067","533704.259278","534471.681797","538357.28238","524497.48183","525264.790885","526031.999461","526799.321501","527566.56594","528333.771424","529101.212184","537601.197035","Mapping"
"Mixed","Both","ball","3","m160cling.wav","None","723.995607346","123","537590.56569","529868.246698","530635.471351","531402.751962","532169.759579","532937.127067","533704.259278","534471.681797","538357.28238","539124.869686","525264.790885","526031.999461","526799.321501","527566.56594","528333.771424","529101.212184","538366.071395","Mapping"
"Mixed","Both","ball","3","m150ball.wav","None","721.176308347","123","537590.56569","529868.246698","530635.471351","531402.751962","532169.759579","532937.127067","533704.259278","534471.681797","538357.28238","539124.869686","539892.283858","526031.999461","526799.321501","527566.56594","528333.771424","529101.212184","539135.663653","Mapping"
"Mixed","Both","ball","3","m150bluff.wav","space","430.994109716","123","537590.56569","529868.246698","530635.471351","531402.751962","532169.759579","532937.127067","533704.259278","534471.681797","538357.28238","539124.869686","539892.283858","540659.47883","526799.321501","527566.56594","528333.771424","529101.212184","539901.841155","Mapping"
"Mixed","Both","ball","3","m160dime.wav","None","717.971168458","123","537590.56569","529868.246698","530635.471351","531402.751962","532169.759579","532937.127067","533704.259278","534471.681797","538357.28238","539124.869686","539892.283858","540659.47883","541409.587966","527566.56594","528333.771424","529101.212184","540670.501581","Mapping"
"Mixed","Both","ball","3","m150ball.wav","None","736.481339438","123","537590.56569","529868.246698","530635.471351","531402.751962","532169.759579","532937.127067","533704.259278","534471.681797","538357.28238","539124.869686","539892.283858","540659.47883","541409.587966","542176.974931","528333.771424","529101.212184","541418.472205","Mapping"
"Mixed","Both","ball","3","m150dime.wav","space","490.013269475","123","537590.56569","529868.246698","530635.471351","531402.751962","532169.759579","532937.127067","533704.259278","534471.681797","538357.28238","539124.869686","539892.283858","540659.47883","541409.587966","542176.974931","542944.308411","529101.212184","542186.744626","Mapping"
"Mixed","Both","ball","3","m150reek.wav","None","731.386567","123","537590.56569","529868.246698","530635.471351","531402.751962","532169.759579","532937.127067","533704.259278","534471.681797","538357.28238","539124.869686","539892.283858","540659.47883","541409.587966","542176.974931","542944.308411","543711.353437","542955.364552","Mapping"
"Mixed","Both","ball","3","m150cad.wav","None","733.086988563","123","537590.56569","544478.794506","530635.471351","531402.751962","532169.759579","532937.127067","533704.259278","534471.681797","538357.28238","539124.869686","539892.283858","540659.47883","541409.587966","542176.974931","542944.308411","543711.353437","543720.295181","Mapping"
"Mixed","Both","ball","3","m160ball.wav","None","731.777354842","123","537590.56569","544478.794506","545246.246706","531402.751962","532169.759579","532937.127067","533704.259278","534471.681797","538357.28238","539124.869686","539892.283858","540659.47883","541409.587966","542176.974931","542944.308411","543711.353437","544488.385193","Mapping"
"Mixed","Both","ball","3","m160romp.wav","space","458.854126045","123","537590.56569","544478.794506","545246.246706","546013.230207","532169.759579","532937.127067","533704.259278","534471.681797","538357.28238","539124.869686","539892.283858","540659.47883","541409.587966","542176.974931","542944.308411","543711.353437","545257.814828","Mapping"
"Mixed","Both","ball","3","m160park.wav","None","730.241410434","123","537590.56569","544478.794506","545246.246706","546013.230207","546780.617173","532937.127067","533704.259278","534471.681797","538357.28238","539124.869686","539892.283858","540659.47883","541409.587966","542176.974931","542944.308411","543711.353437","546022.337047","Mapping"
"Mixed","Both","ball","3","m160ball.wav","None","728.388260119","123","537590.56569","544478.794506","545246.246706","546013.230207","546780.617173","547547.775045","533704.259278","534471.681797","538357.28238","539124.869686","539892.283858","540659.47883","541409.587966","542176.974931","542944.308411","543711.353437","546790.655534","Mapping"
"Mixed","Both","ball","3","m150reek.wav","space","398.960640654","123","537590.56569","544478.794506","545246.246706","546013.230207","546780.617173","547547.775045","548315.059985","534471.681797","538357.28238","539124.869686","539892.283858","540659.47883","541409.587966","542176.974931","542944.308411","543711.353437","547557.61152","Mapping"
"Mixed","Both","ball","3","m160reek.wav","None","726.246656384","123","537590.56569","544478.794506","545246.246706","546013.230207","546780.617173","547547.775045","548315.059985","549082.142111","538357.28238","539124.869686","539892.283858","540659.47883","541409.587966","542176.974931","542944.308411","543711.353437","548324.689008","Mapping"
"Mixed","Both","ball","4","m160cave.wav","None","725.982936332","123","552217.775156","544478.794506","545246.246706","546013.230207","546780.617173","547547.775045","548315.059985","549082.142111","538357.28238","539124.869686","539892.283858","540659.47883","541409.587966","542176.974931","542944.308411","543711.353437","549091.647467","Mapping"
"Mixed","Both","ball","4","m150dime.wav","None","721.696946537","123","552217.775156","544478.794506","545246.246706","546013.230207","546780.617173","547547.775045","548315.059985","549082.142111","552984.72434","539124.869686","539892.283858","540659.47883","541409.587966","542176.974931","542944.308411","543711.353437","552227.428295","Mapping"
"Mixed","Both","ball","4","m150lash.wav","None","721.466307528","123","552217.775156","544478.794506","545246.246706","546013.230207","546780.617173","547547.775045","548315.059985","549082.142111","552984.72434","553752.845887","539892.283858","540659.47883","541409.587966","542176.974931","542944.308411","543711.353437","552993.945262","Mapping"
"Mixed","Both","ball","4","m150tile.wav","None","719.980757451","123","552217.775156","544478.794506","545246.246706","546013.230207","546780.617173","547547.775045","548315.059985","549082.142111","552984.72434","553752.845887","554502.203437","540659.47883","541409.587966","542176.974931","542944.308411","543711.353437","553761.974678","Mapping"
"Mixed","Both","ball","4","m150ball.wav","None","737.420899561","123","552217.775156","544478.794506","545246.246706","546013.230207","546780.617173","547547.775045","548315.059985","549082.142111","552984.72434","553752.845887","554502.203437","555269.853504","541409.587966","542176.974931","542944.308411","543711.353437","554510.988433","Mapping"
"Mixed","Both","ball","4","m150reek.wav","space","565.363896312","123","552217.775156","544478.794506","545246.246706","546013.230207","546780.617173","547547.775045","548315.059985","549082.142111","552984.72434","553752.845887","554502.203437","555269.853504","556037.3663","542176.974931","542944.308411","543711.353437","555278.903457","Mapping"
"Mixed","Both","ball","4","m160lash.wav","None","733.436966315","123","552217.775156","544478.794506","545246.246706","546013.230207","546780.617173","547547.775045","548315.059985","549082.142111","552984.72434","553752.845887","554502.203437","555269.853504","556037.3663","556804.501294","542944.308411","543711.353437","556046.991305","Mapping"
"Mixed","Both","ball","4","m160jolt.wav","None","733.057617676","123","552217.775156","544478.794506","545246.246706","546013.230207","546780.617173","547547.775045","548315.059985","549082.142111","552984.72434","553752.845887","554502.203437","555269.853504","556037.3663","556804.501294","557571.737386","543711.353437","556813.905244","Mapping"
"Mixed","Both","ball","4","m150ball.wav","None","732.954046456","123","552217.775156","544478.794506","545246.246706","546013.230207","546780.617173","547547.775045","548315.059985","549082.142111","552984.72434","553752.845887","554502.203437","555269.853504","556037.3663","556804.501294","557571.737386","558338.820439","557581.034982","Mapping"
"Mixed","Both","ball","4","m150park.wav","space","383.917474421","123","552217.775156","559106.329835","545246.246706","546013.230207","546780.617173","547547.775045","548315.059985","549082.142111","552984.72434","553752.845887","554502.203437","555269.853504","556037.3663","556804.501294","557571.737386","558338.820439","558348.239538","Mapping"
"Mixed","Both","ball","4","m160romp.wav","None","729.812904261","123","552217.775156","559106.329835","559873.442878","546013.230207","546780.617173","547547.775045","548315.059985","549082.142111","552984.72434","553752.845887","554502.203437","555269.853504","556037.3663","556804.501294","557571.737386","558338.820439","559116.109423","Mapping"
"Mixed","Both","ball","4","m150knife.wav","None","729.656465352","123","552217.775156","559106.329835","559873.442878","560640.36671","546780.617173","547547.775045","548315.059985","549082.142111","552984.72434","553752.845887","554502.203437","555269.853504","556037.3663","556804.501294","557571.737386","558338.820439","559882.810036","Mapping"
"Mixed","Both","ball","4","m160ball.wav","None","729.787861696","123","552217.775156","559106.329835","559873.442878","560640.36671","561408.122821","547547.775045","548315.059985","549082.142111","552984.72434","553752.845887","554502.203437","555269.853504","556037.3663","556804.501294","557571.737386","558338.820439","560649.240746","Mapping"
"Mixed","Both","ball","4","m160tile.wav","space","450.449406169","123","552217.775156","559106.329835","559873.442878","560640.36671","561408.122821","562175.098903","548315.059985","549082.142111","552984.72434","553752.845887","554502.203437","555269.853504","556037.3663","556804.501294","557571.737386","558338.820439","561417.622922","Mapping"
"Mixed","Both","ball","4","m160ball.wav","None","726.106603397","123","552217.775156","559106.329835","559873.442878","560640.36671","561408.122821","562175.098903","562942.363128","549082.142111","552984.72434","553752.845887","554502.203437","555269.853504","556037.3663","556804.501294","557571.737386","558338.820439","562184.903843","Mapping"
"Mixed","Both","ball","4","m160bluff.wav","space","492.133540567","123","552217.775156","559106.329835","559873.442878","560640.36671","561408.122821","562175.098903","562942.363128","563709.451747","552984.72434","553752.845887","554502.203437","555269.853504","556037.3663","556804.501294","557571.737386","558338.820439","562951.869103","Mapping"
"Mixed","Both","tile","34","m150priest.wav","None","724.3573335","123","566845.185272","559106.329835","559873.442878","560640.36671","561408.122821","562175.098903","562942.363128","563709.451747","552984.72434","553752.845887","554502.203437","555269.853504","556037.3663","556804.501294","557571.737386","558338.820439","563718.603107","Mapping"
"Mixed","Both","tile","34","m160priest.wav","None","719.169501681","123","566845.185272","559106.329835","559873.442878","560640.36671","561408.122821","562175.098903","562942.363128","563709.451747","567612.387046","553752.845887","554502.203437","555269.853504","556037.3663","556804.501294","557571.737386","558338.820439","566856.668992","Mapping"
"Mixed","Both","tile","34","m160tile.wav","None","720.939176856","123","566845.185272","559106.329835","559873.442878","560640.36671","561408.122821","562175.098903","562942.363128","563709.451747","567612.387046","568379.777412","554502.203437","555269.853504","556037.3663","556804.501294","557571.737386","558338.820439","567621.692371","Mapping"
"Mixed","Both","tile","34","m160jaw.wav","space","495.15101593","123","566845.185272","559106.329835","559873.442878","560640.36671","561408.122821","562175.098903","562942.363128","563709.451747","567612.387046","568379.777412","569129.918083","555269.853504","556037.3663","556804.501294","557571.737386","558338.820439","568388.672781","Mapping"
"Mixed","Both","tile","34","m150jolt.wav","None","735.365553759","123","566845.185272","559106.329835","559873.442878","560640.36671","561408.122821","562175.098903","562942.363128","563709.451747","567612.387046","568379.777412","569129.918083","569897.06297","556037.3663","556804.501294","557571.737386","558338.820439","569139.367789","Mapping"
"Mixed","Both","tile","34","m160dime.wav","None","735.345148481","123","566845.185272","559106.329835","559873.442878","560640.36671","561408.122821","562175.098903","562942.363128","563709.451747","567612.387046","568379.777412","569129.918083","569897.06297","570664.283912","556804.501294","557571.737386","558338.820439","569906.02852","Mapping"
"Mixed","Both","tile","34","m160bluff.wav","None","734.938593116","123","566845.185272","559106.329835","559873.442878","560640.36671","561408.122821","562175.098903","562942.363128","563709.451747","567612.387046","568379.777412","569129.918083","569897.06297","570664.283912","571431.801346","557571.737386","558338.820439","570673.409302","Mapping"
"Mixed","Both","tile","34","m150tile.wav","None","734.035514528","123","566845.185272","559106.329835","559873.442878","560640.36671","561408.122821","562175.098903","562942.363128","563709.451747","567612.387046","568379.777412","569129.918083","569897.06297","570664.283912","571431.801346","572198.91408","558338.820439","571441.004337","Mapping"
"Mixed","Both","tile","34","m160cad.wav","space","531.437703408","123","566845.185272","559106.329835","559873.442878","560640.36671","561408.122821","562175.098903","562942.363128","563709.451747","567612.387046","568379.777412","569129.918083","569897.06297","570664.283912","571431.801346","572198.91408","572966.247868","572208.216004","Mapping"
"Mixed","Both","tile","34","m150depth.wav","None","732.390125049","123","566845.185272","573733.423363","559873.442878","560640.36671","561408.122821","562175.098903","562942.363128","563709.451747","567612.387046","568379.777412","569129.918083","569897.06297","570664.283912","571431.801346","572198.91408","572966.247868","572975.401083","Mapping"
"Mixed","Both","tile","34","m150tile.wav","None","731.696971226","123","566845.185272","573733.423363","574500.684188","560640.36671","561408.122821","562175.098903","562942.363128","563709.451747","567612.387046","568379.777412","569129.918083","569897.06297","570664.283912","571431.801346","572198.91408","572966.247868","573742.861939","Mapping"
"Mixed","Both","tile","34","m150reek.wav","space","460.99572978","123","566845.185272","573733.423363","574500.684188","575267.775898","561408.122821","562175.098903","562942.363128","563709.451747","567612.387046","568379.777412","569129.918083","569897.06297","570664.283912","571431.801346","572198.91408","572966.247868","574510.578786","Mapping"
"Mixed","Both","tile","34","m160tile.wav","None","729.539909167","123","566845.185272","573733.423363","574500.684188","575267.775898","576035.068876","562175.098903","562942.363128","563709.451747","567612.387046","568379.777412","569129.918083","569897.06297","570664.283912","571431.801346","572198.91408","572966.247868","575277.341851","Mapping"
"Mixed","Both","tile","34","m150done.wav","space","495.09072816","123","566845.185272","573733.423363","574500.684188","575267.775898","576035.068876","576802.494487","562942.363128","563709.451747","567612.387046","568379.777412","569129.918083","569897.06297","570664.283912","571431.801346","572198.91408","572966.247868","576044.480555","Mapping"
"Mixed","Both","tile","34","m150done.wav","None","727.451791521","123","566845.185272","573733.423363","574500.684188","575267.775898","576035.068876","576802.494487","577569.521891","563709.451747","567612.387046","568379.777412","569129.918083","569897.06297","570664.283912","571431.801346","572198.91408","572966.247868","576811.704589","Mapping"
"Mixed","Both","tile","34","m160bluff.wav","None","726.621058071","123","566845.185272","573733.423363","574500.684188","575267.775898","576035.068876","576802.494487","577569.521891","578336.745925","567612.387046","568379.777412","569129.918083","569897.06297","570664.283912","571431.801346","572198.91408","572966.247868","577579.182141","Mapping"
"Mixed","Both","tile","26","m150greet.wav","None","726.399075938","123","581472.507275","573733.423363","574500.684188","575267.775898","576035.068876","576802.494487","577569.521891","578336.745925","567612.387046","568379.777412","569129.918083","569897.06297","570664.283912","571431.801346","572198.91408","572966.247868","578346.29642","Mapping"
"Mixed","Both","tile","26","m150done.wav","None","721.521957777","123","581472.507275","573733.423363","574500.684188","575267.775898","576035.068876","576802.494487","577569.521891","578336.745925","582239.682151","568379.777412","569129.918083","569897.06297","570664.283912","571431.801346","572198.91408","572966.247868","581482.013868","Mapping"
"Mixed","Both","tile","26","m160jolt.wav","None","720.955871744","123","581472.507275","573733.423363","574500.684188","575267.775898","576035.068876","576802.494487","577569.521891","578336.745925","582239.682151","583006.852081","569129.918083","569897.06297","570664.283912","571431.801346","572198.91408","572966.247868","582249.285823","Mapping"
"Mixed","Both","tile","26","m150tile.wav","None","724.188527791","123","581472.507275","573733.423363","574500.684188","575267.775898","576035.068876","576802.494487","577569.521891","578336.745925","582239.682151","583006.852081","583773.924004","569897.06297","570664.283912","571431.801346","572198.91408","572966.247868","583012.789334","Mapping"
"Mixed","Both","tile","26","m150romp.wav","space","443.978528958","123","581472.507275","573733.423363","574500.684188","575267.775898","576035.068876","576802.494487","577569.521891","578336.745925","582239.682151","583006.852081","583773.924004","584524.489162","570664.283912","571431.801346","572198.91408","572966.247868","583783.283434","Mapping"
"Mixed","Both","tile","26","m150tile.wav","None","734.831003007","123","581472.507275","573733.423363","574500.684188","575267.775898","576035.068876","576802.494487","577569.521891","578336.745925","582239.682151","583006.852081","583773.924004","584524.489162","585291.749369","571431.801346","572198.91408","572966.247868","584534.216192","Mapping"
"Mixed","Both","tile","26","m150dime.wav","space","606.384866405","123","581472.507275","573733.423363","574500.684188","575267.775898","576035.068876","576802.494487","577569.521891","578336.745925","582239.682151","583006.852081","583773.924004","584524.489162","585291.749369","586059.193839","572198.91408","572966.247868","585300.8222","Mapping"
"Mixed","Both","tile","26","m160jaw.wav","None","732.820176985","123","581472.507275","573733.423363","574500.684188","575267.775898","576035.068876","576802.494487","577569.521891","578336.745925","582239.682151","583006.852081","583773.924004","584524.489162","585291.749369","586059.193839","586825.924751","572966.247868","586068.715273","Mapping"
"Mixed","Both","tile","26","m150reek.wav","None","733.594641555","123","581472.507275","573733.423363","574500.684188","575267.775898","576035.068876","576802.494487","577569.521891","578336.745925","582239.682151","583006.852081","583773.924004","584524.489162","585291.749369","586059.193839","586825.924751","587593.5034","586834.77931","Mapping"
"Mixed","Both","tile","26","m160dime.wav","None","732.60066798","123","581472.507275","588360.519055","574500.684188","575267.775898","576035.068876","576802.494487","577569.521891","578336.745925","582239.682151","583006.852081","583773.924004","584524.489162","585291.749369","586059.193839","586825.924751","587593.5034","587602.783065","Mapping"
"Mixed","Both","tile","26","m160cling.wav","None","732.186692767","123","581472.507275","588360.519055","589128.114399","575267.775898","576035.068876","576802.494487","577569.521891","578336.745925","582239.682151","583006.852081","583773.924004","584524.489162","585291.749369","586059.193839","586825.924751","587593.5034","588369.883431","Mapping"
"Mixed","Both","tile","26","m150knife.wav","None","731.655233772","123","581472.507275","588360.519055","589128.114399","589895.227133","576035.068876","576802.494487","577569.521891","578336.745925","582239.682151","583006.852081","583773.924004","584524.489162","585291.749369","586059.193839","586825.924751","587593.5034","589137.588221","Mapping"
"Mixed","Both","tile","26","m160tile.wav","None","731.322260108","123","581472.507275","588360.519055","589128.114399","589895.227133","590662.111701","576802.494487","577569.521891","578336.745925","582239.682151","583006.852081","583773.924004","584524.489162","585291.749369","586059.193839","586825.924751","587593.5034","589905.001775","Mapping"
"Mixed","Both","tile","26","m160greet.wav","space","395.958932582","123","581472.507275","588360.519055","589128.114399","589895.227133","590662.111701","591429.564828","577569.521891","578336.745925","582239.682151","583006.852081","583773.924004","584524.489162","585291.749369","586059.193839","586825.924751","587593.5034","590671.071686","Mapping"
"Mixed","Both","tile","26","m160tile.wav","None","730.152679374","123","581472.507275","588360.519055","589128.114399","589895.227133","590662.111701","591429.564828","592196.995386","578336.745925","582239.682151","583006.852081","583773.924004","584524.489162","585291.749369","586059.193839","586825.924751","587593.5034","591438.63364","Mapping"
"Mixed","Both","tile","26","m160bluff.wav","space","476.449161069","123","581472.507275","588360.519055","589128.114399","589895.227133","590662.111701","591429.564828","592196.995386","592964.173663","582239.682151","583006.852081","583773.924004","584524.489162","585291.749369","586059.193839","586825.924751","587593.5034","592206.512182","Mapping"
"Mixed","Both","done","39","m150park.wav","None","727.828976","123","596099.786612","588360.519055","589128.114399","589895.227133","590662.111701","591429.564828","592196.995386","592964.173663","582239.682151","583006.852081","583773.924004","584524.489162","585291.749369","586059.193839","586825.924751","587593.5034","592973.933155","Mapping"
"Mixed","Both","done","39","m160done.wav","None","721.407565754","123","596099.786612","588360.519055","589128.114399","589895.227133","590662.111701","591429.564828","592196.995386","592964.173663","596866.59698","583006.852081","583773.924004","584524.489162","585291.749369","586059.193839","586825.924751","587593.5034","596109.345146","Mapping"
"Mixed","Both","done","39","m160romp.wav","space","455.278912326","123","596099.786612","588360.519055","589128.114399","589895.227133","590662.111701","591429.564828","592196.995386","592964.173663","596866.59698","597617.151318","583773.924004","584524.489162","585291.749369","586059.193839","586825.924751","587593.5034","596875.504098","Mapping"
"Mixed","Both","done","39","m150bluff.wav","None","735.92792917","123","596099.786612","588360.519055","589128.114399","589895.227133","590662.111701","591429.564828","592196.995386","592964.173663","596866.59698","597617.151318","598384.461609","584524.489162","585291.749369","586059.193839","586825.924751","587593.5034","597626.643689","Mapping"
"Mixed","Both","done","39","m150done.wav","None","735.462013865","123","596099.786612","588360.519055","589128.114399","589895.227133","590662.111701","591429.564828","592196.995386","592964.173663","596866.59698","597617.151318","598384.461609","599151.53446","585291.749369","586059.193839","586825.924751","587593.5034","598393.918427","Mapping"
"Mixed","Both","done","39","m150priest.wav","space","482.104763156","123","596099.786612","588360.519055","589128.114399","589895.227133","590662.111701","591429.564828","592196.995386","592964.173663","596866.59698","597617.151318","598384.461609","599151.53446","599919.154847","586059.193839","586825.924751","587593.5034","599160.605127","Mapping"
"Mixed","Both","done","39","m150priest.wav","None","733.295058366","123","596099.786612","588360.519055","589128.114399","589895.227133","590662.111701","591429.564828","592196.995386","592964.173663","596866.59698","597617.151318","598384.461609","599151.53446","599919.154847","600686.249958","586825.924751","587593.5034","599928.381026","Mapping"
"Mixed","Both","done","39","m150done.wav","None","733.746133745","123","596099.786612","588360.519055","589128.114399","589895.227133","590662.111701","591429.564828","592196.995386","592964.173663","596866.59698","597617.151318","598384.461609","599151.53446","599919.154847","600686.249958","601453.74575","587593.5034","600695.228803","Mapping"
"Mixed","Both","done","39","m160dime.wav","space","395.363166928","123","596099.786612","588360.519055","589128.114399","589895.227133","590662.111701","591429.564828","592196.995386","592964.173663","596866.59698","597617.151318","598384.461609","599151.53446","599919.154847","600686.249958","601453.74575","602220.976277","601463.249561","Mapping"
"Mixed","Both","done","39","m160lash.wav","None","730.97413755","123","596099.786612","602988.186398","589128.114399","589895.227133","590662.111701","591429.564828","592196.995386","592964.173663","596866.59698","597617.151318","598384.461609","599151.53446","599919.154847","600686.249958","601453.74575","602220.976277","602230.721857","Mapping"
"Mixed","Both","done","39","m160jaw.wav","None","730.923434021","123","596099.786612","602988.186398","603755.141456","589895.227133","590662.111701","591429.564828","592196.995386","592964.173663","596866.59698","597617.151318","598384.461609","599151.53446","599919.154847","600686.249958","601453.74575","602220.976277","602997.456169","Mapping"
"Mixed","Both","done","39","m160bluff.wav","None","730.985267553","123","596099.786612","602988.186398","603755.141456","604522.500597","590662.111701","591429.564828","592196.995386","592964.173663","596866.59698","597617.151318","598384.461609","599151.53446","599919.154847","600686.249958","601453.74575","602220.976277","603764.224181","Mapping"
"Mixed","Both","done","39","m150lash.wav","None","729.881848674","123","596099.786612","602988.186398","603755.141456","604522.500597","605289.764204","591429.564828","592196.995386","592964.173663","596866.59698","597617.151318","598384.461609","599151.53446","599919.154847","600686.249958","601453.74575","602220.976277","604532.097467","Mapping"
"Mixed","Both","done","39","m160bluff.wav","None","729.61132694","123","596099.786612","602988.186398","603755.141456","604522.500597","605289.764204","606056.871991","592196.995386","592964.173663","596866.59698","597617.151318","598384.461609","599151.53446","599919.154847","600686.249958","601453.74575","602220.976277","605299.164135","Mapping"
"Mixed","Both","done","39","m160done.wav","None","728.586745681","123","596099.786612","602988.186398","603755.141456","604522.500597","605289.764204","606056.871991","606823.953189","592964.173663","596866.59698","597617.151318","598384.461609","599151.53446","599919.154847","600686.249958","601453.74575","602220.976277","606067.045459","Mapping"
"Mixed","Both","done","39","m150priest.wav","space","425.387665164","123","596099.786612","602988.186398","603755.141456","604522.500597","605289.764204","606056.871991","606823.953189","607591.46444","596866.59698","597617.151318","598384.461609","599151.53446","599919.154847","600686.249958","601453.74575","602220.976277","606833.01149","Mapping"
"Mixed","Both","tile","32","m160jaw.wav","None","726.3394068","123","610726.979692","602988.186398","603755.141456","604522.500597","605289.764204","606056.871991","606823.953189","607591.46444","596866.59698","597617.151318","598384.461609","599151.53446","599919.154847","600686.249958","601453.74575","602220.976277","607601.502492","Mapping"
"Mixed","Both","tile","32","m150knife.wav","None","722.357637715","123","610726.979692","602988.186398","603755.141456","604522.500597","605289.764204","606056.871991","606823.953189","607591.46444","611494.361711","597617.151318","598384.461609","599151.53446","599919.154847","600686.249958","601453.74575","602220.976277","610736.019134","Mapping"
"Mixed","Both","tile","32","m150tile.wav","None","721.138899215","123","610726.979692","602988.186398","603755.141456","604522.500597","605289.764204","606056.871991","606823.953189","607591.46444","611494.361711","612261.519274","598384.461609","599151.53446","599919.154847","600686.249958","601453.74575","602220.976277","611504.232813","Mapping"
"Mixed","Both","tile","32","m150ball.wav","space","464.754588902","123","610726.979692","602988.186398","603755.141456","604522.500597","605289.764204","606056.871991","606823.953189","607591.46444","611494.361711","612261.519274","613028.768041","599151.53446","599919.154847","600686.249958","601453.74575","602220.976277","612273.478803","Mapping"
"Mixed","Both","tile","32","m160tile.wav","None","719.600790413","123","610726.979692","602988.186398","603755.141456","604522.500597","605289.764204","606056.871991","606823.953189","607591.46444","611494.361711","612261.519274","613028.768041","613779.072572","599919.154847","600686.249958","601453.74575","602220.976277","613038.381298","Mapping"
"Mixed","Both","tile","32","m160jaw.wav","space","541.829134338","123","610726.979692","602988.186398","603755.141456","604522.500597","605289.764204","606056.871991","606823.953189","607591.46444","611494.361711","612261.519274","613028.768041","613779.072572","614546.206947","600686.249958","601453.74575","602220.976277","613788.317918","Mapping"
"Mixed","Both","tile","32","m160cling.wav","None","734.580267919","123","610726.979692","602988.186398","603755.141456","604522.500597","605289.764204","606056.871991","606823.953189","607591.46444","611494.361711","612261.519274","613028.768041","613779.072572","614546.206947","615313.477974","601453.74575","602220.976277","614555.834425","Mapping"
"Mixed","Both","tile","32","m150park.wav","None","727.57669515","123","610726.979692","602988.186398","603755.141456","604522.500597","605289.764204","606056.871991","606823.953189","607591.46444","611494.361711","612261.519274","613028.768041","613779.072572","614546.206947","615313.477974","616080.725505","602220.976277","615329.695049","Mapping"
"Mixed","Both","tile","32","m150knife.wav","None","734.413317405","123","610726.979692","602988.186398","603755.141456","604522.500597","605289.764204","606056.871991","606823.953189","607591.46444","611494.361711","612261.519274","613028.768041","613779.072572","614546.206947","615313.477974","616080.725505","616848.075988","616090.234572","Mapping"
"Mixed","Both","tile","32","m160park.wav","None","739.774283022","123","610726.979692","617615.285182","603755.141456","604522.500597","605289.764204","606056.871991","606823.953189","607591.46444","611494.361711","612261.519274","613028.768041","613779.072572","614546.206947","615313.477974","616080.725505","616848.075988","616852.174623","Mapping"
"Mixed","Both","tile","32","m150gnash.wav","None","734.850171255","123","610726.979692","617615.285182","618382.621135","604522.500597","605289.764204","606056.871991","606823.953189","607591.46444","611494.361711","612261.519274","613028.768041","613779.072572","614546.206947","615313.477974","616080.725505","616848.075988","617624.478589","Mapping"
"Mixed","Both","tile","32","m150tile.wav","None","734.417027561","123","610726.979692","617615.285182","618382.621135","619149.317111","605289.764204","606056.871991","606823.953189","607591.46444","611494.361711","612261.519274","613028.768041","613779.072572","614546.206947","615313.477974","616080.725505","616848.075988","618391.877612","Mapping"
"Mixed","Both","tile","32","m150cling.wav","space","443.473040126","123","610726.979692","617615.285182","618382.621135","619149.317111","619916.926986","606056.871991","606823.953189","607591.46444","611494.361711","612261.519274","613028.768041","613779.072572","614546.206947","615313.477974","616080.725505","616848.075988","619158.501551","Mapping"
"Mixed","Both","tile","32","m160done.wav","None","732.657554792","123","610726.979692","617615.285182","618382.621135","619149.317111","619916.926986","620684.11732","606823.953189","607591.46444","611494.361711","612261.519274","613028.768041","613779.072572","614546.206947","615313.477974","616080.725505","616848.075988","619926.417502","Mapping"
"Mixed","Both","tile","32","m160tile.wav","None","732.82450554","123","610726.979692","617615.285182","618382.621135","619149.317111","619916.926986","620684.11732","621451.141941","607591.46444","611494.361711","612261.519274","613028.768041","613779.072572","614546.206947","615313.477974","616080.725505","616848.075988","620693.673071","Mapping"
"Mixed","Both","tile","32","m160lash.wav","space","517.745599616","123","610726.979692","617615.285182","618382.621135","619149.317111","619916.926986","620684.11732","621451.141941","622218.783042","611494.361711","612261.519274","613028.768041","613779.072572","614546.206947","615313.477974","616080.725505","616848.075988","621460.160668","Mapping"
"Mixed","Both","cave","18","m160bluff.wav","None","732.058078982","123","625354.38548","617615.285182","618382.621135","619149.317111","619916.926986","620684.11732","621451.141941","622218.783042","611494.361711","612261.519274","613028.768041","613779.072572","614546.206947","615313.477974","616080.725505","616848.075988","622228.087131","Mapping"
"Mixed","Both","cave","18","m160cave.wav","None","722.248192411","123","625354.38548","617615.285182","618382.621135","619149.317111","619916.926986","620684.11732","621451.141941","622218.783042","626121.369909","612261.519274","613028.768041","613779.072572","614546.206947","615313.477974","616080.725505","616848.075988","625363.619078","Mapping"
"Mixed","Both","cave","18","m150cad.wav","space","502.473959001","123","625354.38548","617615.285182","618382.621135","619149.317111","619916.926986","620684.11732","621451.141941","622218.783042","626121.369909","626888.797066","613028.768041","613779.072572","614546.206947","615313.477974","616080.725505","616848.075988","626131.264508","Mapping"
"Mixed","Both","cave","18","m150cave.wav","None","719.95416889","123","625354.38548","617615.285182","618382.621135","619149.317111","619916.926986","620684.11732","621451.141941","622218.783042","626121.369909","626888.797066","627655.903616","613779.072572","614546.206947","615313.477974","616080.725505","616848.075988","626898.365802","Mapping"
"Mixed","Both","cave","18","m150park.wav","space","600.302613107","123","625354.38548","617615.285182","618382.621135","619149.317111","619916.926986","620684.11732","621451.141941","622218.783042","626121.369909","626888.797066","627655.903616","628406.450225","614546.206947","615313.477974","616080.725505","616848.075988","627665.367235","Mapping"
"Mixed","Both","cave","18","m150reek.wav","None","734.731141711","123","625354.38548","617615.285182","618382.621135","619149.317111","619916.926986","620684.11732","621451.141941","622218.783042","626121.369909","626888.797066","627655.903616","628406.450225","629173.564195","615313.477974","616080.725505","616848.075988","628415.783066","Mapping"
"Mixed","Both","cave","18","m150greet.wav","None","734.26368041","123","625354.38548","617615.285182","618382.621135","619149.317111","619916.926986","620684.11732","621451.141941","622218.783042","626121.369909","626888.797066","627655.903616","628406.450225","629173.564195","629940.747109","616080.725505","616848.075988","629183.292152","Mapping"
"Mixed","Both","cave","18","m160romp.wav","None","734.604692087","123","625354.38548","617615.285182","618382.621135","619149.317111","619916.926986","620684.11732","621451.141941","622218.783042","626121.369909","626888.797066","627655.903616","628406.450225","629173.564195","629940.747109","630708.185397","616848.075988","629949.833235","Mapping"
"Mixed","Both","cave","18","m150ball.wav","None","734.125482384","123","625354.38548","617615.285182","618382.621135","619149.317111","619916.926986","620684.11732","621451.141941","622218.783042","626121.369909","626888.797066","627655.903616","628406.450225","629173.564195","629940.747109","630708.185397","631475.607298","630717.194848","Mapping"
"Mixed","Both","cave","18","m150cave.wav","None","733.277744846","123","625354.38548","632242.64274","618382.621135","619149.317111","619916.926986","620684.11732","621451.141941","622218.783042","626121.369909","626888.797066","627655.903616","628406.450225","629173.564195","629940.747109","630708.185397","631475.607298","631484.925299","Mapping"
"Mixed","Both","cave","18","m160jolt.wav","space","476.905492367","123","625354.38548","632242.64274","633009.951485","619149.317111","619916.926986","620684.11732","621451.141941","622218.783042","626121.369909","626888.797066","627655.903616","628406.450225","629173.564195","629940.747109","630708.185397","631475.607298","632252.60721","Mapping"
"Mixed","Both","cave","18","m150cad.wav","None","731.159637915","123","625354.38548","632242.64274","633009.951485","633776.439082","619916.926986","620684.11732","621451.141941","622218.783042","626121.369909","626888.797066","627655.903616","628406.450225","629173.564195","629940.747109","630708.185397","631475.607298","633019.526405","Mapping"
"Mixed","Both","cave","18","m160cave.wav","None","735.112036113","123","625354.38548","632242.64274","633009.951485","633776.439082","634544.071217","620684.11732","621451.141941","622218.783042","626121.369909","626888.797066","627655.903616","628406.450225","629173.564195","629940.747109","630708.185397","631475.607298","633785.166882","Mapping"
"Mixed","Both","cave","18","m160jaw.wav","space","600.411749445","123","625354.38548","632242.64274","633009.951485","633776.439082","634544.071217","635311.500539","621451.141941","622218.783042","626121.369909","626888.797066","627655.903616","628406.450225","629173.564195","629940.747109","630708.185397","631475.607298","634552.986373","Mapping"
"Mixed","Both","cave","18","m160cling.wav","None","731.54300591","123","625354.38548","632242.64274","633009.951485","633776.439082","634544.071217","635311.500539","636078.720244","622218.783042","626121.369909","626888.797066","627655.903616","628406.450225","629173.564195","629940.747109","630708.185397","631475.607298","635321.050415","Mapping"
"Mixed","Both","cave","18","m160lash.wav","None","730.323958211","123","625354.38548","632242.64274","633009.951485","633776.439082","634544.071217","635311.500539","636078.720244","636845.878734","626121.369909","626888.797066","627655.903616","628406.450225","629173.564195","629940.747109","630708.185397","631475.607298","636089.043658","Mapping"
"Mixed","Both","tile","33","m150bluff.wav","None","730.82542792","123","639981.553518","632242.64274","633009.951485","633776.439082","634544.071217","635311.500539","636078.720244","636845.878734","626121.369909","626888.797066","627655.903616","628406.450225","629173.564195","629940.747109","630708.185397","631475.607298","636855.479005","Mapping"
"Mixed","Both","tile","33","m150tile.wav","None","721.504644491","123","639981.553518","632242.64274","633009.951485","633776.439082","634544.071217","635311.500539","636078.720244","636845.878734","640748.838148","626888.797066","627655.903616","628406.450225","629173.564195","629940.747109","630708.185397","631475.607298","639990.922531","Mapping"
"Mixed","Both","tile","33","m160jaw.wav","space","426.660198951","123","639981.553518","632242.64274","633009.951485","633776.439082","634544.071217","635311.500539","636078.720244","636845.878734","640748.838148","641516.223259","627655.903616","628406.450225","629173.564195","629940.747109","630708.185397","631475.607298","640758.497779","Mapping"
"Mixed","Both","tile","33","m160tile.wav","None","719.645310426","123","639981.553518","632242.64274","633009.951485","633776.439082","634544.071217","635311.500539","636078.720244","636845.878734","640748.838148","641516.223259","642283.237368","628406.450225","629173.564195","629940.747109","630708.185397","631475.607298","641525.710065","Mapping"
"Mixed","Both","tile","33","m160gnash.wav","space","500.438090647","123","639981.553518","632242.64274","633009.951485","633776.439082","634544.071217","635311.500539","636078.720244","636845.878734","640748.838148","641516.223259","642283.237368","643033.529222","629173.564195","629940.747109","630708.185397","631475.607298","642292.705006","Mapping"
"Mixed","Both","tile","33","m160tile.wav","None","734.963017283","123","639981.553518","632242.64274","633009.951485","633776.439082","634544.071217","635311.500539","636078.720244","636845.878734","640748.838148","641516.223259","642283.237368","643033.529222","643800.986368","629940.747109","630708.185397","631475.607298","643043.025922","Mapping"
"Mixed","Both","tile","33","m160gnash.wav","space","414.726640098","123","639981.553518","632242.64274","633009.951485","633776.439082","634544.071217","635311.500539","636078.720244","636845.878734","640748.838148","641516.223259","642283.237368","643033.529222","643800.986368","644568.260487","630708.185397","631475.607298","643810.379806","Mapping"
"Mixed","Both","tile","33","m150cad.wav","None","732.995165745","123","639981.553518","632242.64274","633009.951485","633776.439082","634544.071217","635311.500539","636078.720244","636845.878734","640748.838148","641516.223259","642283.237368","643033.529222","643800.986368","644568.260487","645335.438146","631475.607298","644577.937432","Mapping"
"Mixed","Both","tile","33","m150priest.wav","None","733.275271486","123","639981.553518","632242.64274","633009.951485","633776.439082","634544.071217","635311.500539","636078.720244","636845.878734","640748.838148","641516.223259","642283.237368","643033.529222","643800.986368","644568.260487","645335.438146","646102.631572","645344.695241","Mapping"
"Mixed","Both","tile","33","m160romp.wav","None","733.399247751","123","639981.553518","646870.021629","633009.951485","633776.439082","634544.071217","635311.500539","636078.720244","636845.878734","640748.838148","641516.223259","642283.237368","643033.529222","643800.986368","644568.260487","645335.438146","646102.631572","646111.687709","Mapping"
"Mixed","Both","tile","33","m150tile.wav","None","732.973214937","123","639981.553518","646870.021629","647637.069747","633776.439082","634544.071217","635311.500539","636078.720244","636845.878734","640748.838148","641516.223259","642283.237368","643033.529222","643800.986368","644568.260487","645335.438146","646102.631572","646879.372711","Mapping"
"Mixed","Both","tile","33","m150dime.wav","space","546.551050385","123","639981.553518","646870.021629","647637.069747","648404.512981","634544.071217","635311.500539","636078.720244","636845.878734","640748.838148","641516.223259","642283.237368","643033.529222","643800.986368","644568.260487","645335.438146","646102.631572","647646.390221","Mapping"
"Mixed","Both","tile","33","m150romp.wav","None","731.656779535","123","639981.553518","646870.021629","647637.069747","648404.512981","649171.459691","635311.500539","636078.720244","636845.878734","640748.838148","641516.223259","642283.237368","643033.529222","643800.986368","644568.260487","645335.438146","646102.631572","648413.406804","Mapping"
"Mixed","Both","tile","33","m160lash.wav","None","732.12795076","123","639981.553518","646870.021629","647637.069747","648404.512981","649171.459691","649938.907872","636078.720244","636845.878734","640748.838148","641516.223259","642283.237368","643033.529222","643800.986368","644568.260487","645335.438146","646102.631572","649180.902287","Mapping"
