"Condition","Talker","Target","Trial","current_stimulus","response_response","response_time_response","subject_nr","time_Audio1","time_Audio10","time_Audio11","time_Audio12","time_Audio13","time_Audio14","time_Audio15","time_Audio16","time_Audio2","time_Audio3","time_Audio4","time_Audio5","time_Audio6","time_Audio7","time_Audio8","time_Audio9","time_response","title"
"Blocked","m150","ball","2","m150priest.wav","NA","NA","181","158927.906684","NA","NA","NA","NA","NA","NA","NA","NA","NA","NA","NA","NA","NA","NA","NA","NA","Mapping"
"Blocked","m150","ball","2","m150bluff.wav","None","715.510261245","181","158927.906684","NA","NA","NA","NA","NA","NA","NA","159677.77289","NA","NA","NA","NA","NA","NA","NA","158941.717142","Mapping"
"Blocked","m150","ball","2","m150park.wav","None","733.186311089","181","158927.906684","NA","NA","NA","NA","NA","NA","NA","159677.77289","160443.70899","NA","NA","NA","NA","NA","NA","159687.533797","Mapping"
"Blocked","m150","ball","2","m150greet.wav","None","732.125537936","181","158927.906684","NA","NA","NA","NA","NA","NA","NA","159677.77289","160443.70899","161210.433173","NA","NA","NA","NA","NA","160452.630801","Mapping"
"Blocked","m150","ball","2","m150ball.wav","None","728.792341426","181","158927.906684","NA","NA","NA","NA","NA","NA","NA","159677.77289","160443.70899","161210.433173","161977.24949","NA","NA","NA","NA","161219.580063","Mapping"
"Blocked","m150","ball","2","m150reek.wav","space","414.409882389","181","158927.906684","NA","NA","NA","NA","NA","NA","NA","159677.77289","160443.70899","161210.433173","161977.24949","162744.450728","NA","NA","NA","161986.254469","Mapping"
"Blocked","m150","ball","2","m150ball.wav","None","721.634054556","181","158927.906684","NA","NA","NA","NA","NA","NA","NA","159677.77289","160443.70899","161210.433173","161977.24949","162744.450728","163511.341246","NA","NA","162754.110226","Mapping"
"Blocked","m150","ball","2","m150park.wav","space","495.121710468","181","158927.906684","NA","NA","NA","NA","NA","NA","NA","159677.77289","160443.70899","161210.433173","161977.24949","162744.450728","163511.341246","164260.552313","NA","163521.531595","Mapping"
"Blocked","m150","ball","2","m150ball.wav","None","733.578960877","181","158927.906684","NA","NA","NA","NA","NA","NA","NA","159677.77289","160443.70899","161210.433173","161977.24949","162744.450728","163511.341246","164260.552313","165027.191165","164269.635822","Mapping"
"Blocked","m150","ball","2","m150knife.wav","space","403.872332536","181","158927.906684","165793.982439","NA","NA","NA","NA","NA","NA","159677.77289","160443.70899","161210.433173","161977.24949","162744.450728","163511.341246","164260.552313","165027.191165","165036.781408","Mapping"
"Blocked","m150","ball","2","m150ball.wav","None","727.208138444","181","158927.906684","165793.982439","166560.835238","NA","NA","NA","NA","NA","159677.77289","160443.70899","161210.433173","161977.24949","162744.450728","163511.341246","164260.552313","165027.191165","165803.340184","Mapping"
"Blocked","m150","ball","2","m150bluff.wav","space","421.932375524","181","158927.906684","165793.982439","166560.835238","167327.493258","NA","NA","NA","NA","159677.77289","160443.70899","161210.433173","161977.24949","162744.450728","163511.341246","164260.552313","165027.191165","166570.63541","Mapping"
"Blocked","m150","ball","2","m150bluff.wav","None","720.646864735","181","158927.906684","165793.982439","166560.835238","167327.493258","168077.014426","NA","NA","NA","159677.77289","160443.70899","161210.433173","161977.24949","162744.450728","163511.341246","164260.552313","165027.191165","167337.040836","Mapping"
"Blocked","m150","ball","2","m150done.wav","None","734.850281384","181","158927.906684","165793.982439","166560.835238","167327.493258","168077.014426","168843.984093","NA","NA","159677.77289","160443.70899","161210.433173","161977.24949","162744.450728","163511.341246","164260.552313","165027.191165","168086.510371","Mapping"
"Blocked","m150","ball","2","m150jolt.wav","None","732.119663619","181","158927.906684","165793.982439","166560.835238","167327.493258","168077.014426","168843.984093","169610.466811","NA","159677.77289","160443.70899","161210.433173","161977.24949","162744.450728","163511.341246","164260.552313","165027.191165","168852.889517","Mapping"
"Blocked","m150","ball","2","m150priest.wav","None","729.313298129","181","158927.906684","165793.982439","166560.835238","167327.493258","168077.014426","168843.984093","169610.466811","170376.790924","159677.77289","160443.70899","161210.433173","161977.24949","162744.450728","163511.341246","164260.552313","165027.191165","169619.511983","Mapping"
"Blocked","m150","done","19","m150romp.wav","None","727.10765712","181","173527.319008","165793.982439","166560.835238","167327.493258","168077.014426","168843.984093","169610.466811","170376.790924","159677.77289","160443.70899","161210.433173","161977.24949","162744.450728","163511.341246","164260.552313","165027.191165","170385.453958","Mapping"
"Blocked","m150","done","19","m150done.wav","None","720.231026411","181","173527.319008","165793.982439","166560.835238","167327.493258","168077.014426","168843.984093","169610.466811","170376.790924","174276.452164","160443.70899","161210.433173","161977.24949","162744.450728","163511.341246","164260.552313","165027.191165","173537.352606","Mapping"
"Blocked","m150","done","19","m150lash.wav","space","467.337551992","181","173527.319008","165793.982439","166560.835238","167327.493258","168077.014426","168843.984093","169610.466811","170376.790924","174276.452164","175043.747699","161210.433173","161977.24949","162744.450728","163511.341246","164260.552313","165027.191165","174285.101902","Mapping"
"Blocked","m150","done","19","m150greet.wav","None","733.199296519","181","173527.319008","165793.982439","166560.835238","167327.493258","168077.014426","168843.984093","169610.466811","170376.790924","174276.452164","175043.747699","175811.003351","161977.24949","162744.450728","163511.341246","164260.552313","165027.191165","175052.645085","Mapping"
"Blocked","m150","done","19","m150greet.wav","None","729.5052954","181","173527.319008","165793.982439","166560.835238","167327.493258","168077.014426","168843.984093","169610.466811","170376.790924","174276.452164","175043.747699","175811.003351","176577.053536","162744.450728","163511.341246","164260.552313","165027.191165","175820.120559","Mapping"
"Blocked","m150","done","19","m150lash.wav","None","727.191751823","181","173527.319008","165793.982439","166560.835238","167327.493258","168077.014426","168843.984093","169610.466811","170376.790924","174276.452164","175043.747699","175811.003351","176577.053536","177344.058449","163511.341246","164260.552313","165027.191165","176586.1726","Mapping"
"Blocked","m150","done","19","m150done.wav","None","723.030280787","181","173527.319008","165793.982439","166560.835238","167327.493258","168077.014426","168843.984093","169610.466811","170376.790924","174276.452164","175043.747699","175811.003351","176577.053536","177344.058449","178110.438831","164260.552313","165027.191165","177354.306613","Mapping"
"Blocked","m150","done","19","m150cave.wav","space","400.561087765","181","173527.319008","165793.982439","166560.835238","167327.493258","168077.014426","168843.984093","169610.466811","170376.790924","174276.452164","175043.747699","175811.003351","176577.053536","177344.058449","178110.438831","178860.053679","165027.191165","178119.831513","Mapping"
"Blocked","m150","done","19","m150knife.wav","None","735.510984436","181","173527.319008","165793.982439","166560.835238","167327.493258","168077.014426","168843.984093","169610.466811","170376.790924","174276.452164","175043.747699","175811.003351","176577.053536","177344.058449","178110.438831","178860.053679","179626.890092","178869.280644","Mapping"
"Blocked","m150","done","19","m150done.wav","None","732.280124445","181","173527.319008","180393.645502","166560.835238","167327.493258","168077.014426","168843.984093","169610.466811","170376.790924","174276.452164","175043.747699","175811.003351","176577.053536","177344.058449","178110.438831","178860.053679","179626.890092","179636.324203","Mapping"
"Blocked","m150","done","19","m150tile.wav","space","437.489043456","181","173527.319008","180393.645502","181160.359482","167327.493258","168077.014426","168843.984093","169610.466811","170376.790924","174276.452164","175043.747699","175811.003351","176577.053536","177344.058449","178110.438831","178860.053679","179626.890092","180402.908949","Mapping"
"Blocked","m150","done","19","m150cling.wav","None","726.586390752","181","173527.319008","180393.645502","181160.359482","181927.309362","168077.014426","168843.984093","169610.466811","170376.790924","174276.452164","175043.747699","175811.003351","176577.053536","177344.058449","178110.438831","178860.053679","179626.890092","181169.380847","Mapping"
"Blocked","m150","done","19","m150cling.wav","None","723.039555829","181","173527.319008","180393.645502","181160.359482","181927.309362","182693.78497","168843.984093","169610.466811","170376.790924","174276.452164","175043.747699","175811.003351","176577.053536","177344.058449","178110.438831","178860.053679","179626.890092","181936.853847","Mapping"
"Blocked","m150","done","19","m150greet.wav","None","720.532780048","181","173527.319008","180393.645502","181160.359482","181927.309362","182693.78497","183443.043031","169610.466811","170376.790924","174276.452164","175043.747699","175811.003351","176577.053536","177344.058449","178110.438831","178860.053679","179626.890092","182703.253399","Mapping"
"Blocked","m150","done","19","m150done.wav","None","735.510984436","181","173527.319008","180393.645502","181160.359482","181927.309362","182693.78497","183443.043031","184210.192946","170376.790924","174276.452164","175043.747699","175811.003351","176577.053536","177344.058449","178110.438831","178860.053679","179626.890092","183451.975663","Mapping"
"Blocked","m150","done","19","m150bluff.wav","space","525.036691222","181","173527.319008","180393.645502","181160.359482","181927.309362","182693.78497","183443.043031","184210.192946","184976.788822","174276.452164","175043.747699","175811.003351","176577.053536","177344.058449","178110.438831","178860.053679","179626.890092","184219.235335","Mapping"
"Blocked","m150","done","20","m150romp.wav","None","728.618586436","181","188110.457382","180393.645502","181160.359482","181927.309362","182693.78497","183443.043031","184210.192946","184976.788822","174276.452164","175043.747699","175811.003351","176577.053536","177344.058449","178110.438831","178860.053679","179626.890092","184986.253232","Mapping"
"Blocked","m150","done","20","m150done.wav","None","720.636971295","181","188110.457382","180393.645502","181160.359482","181927.309362","182693.78497","183443.043031","184210.192946","184976.788822","188859.811287","175043.747699","175811.003351","176577.053536","177344.058449","178110.438831","178860.053679","179626.890092","188120.040514","Mapping"
"Blocked","m150","done","20","m150depth.wav","space","426.693643443","181","188110.457382","180393.645502","181160.359482","181927.309362","182693.78497","183443.043031","184210.192946","184976.788822","188859.811287","189626.761476","175811.003351","176577.053536","177344.058449","178110.438831","178860.053679","179626.890092","188869.524272","Mapping"
"Blocked","m150","done","20","m150dime.wav","None","737.787736114","181","188110.457382","180393.645502","181160.359482","181927.309362","182693.78497","183443.043031","184210.192946","184976.788822","188859.811287","189626.761476","190393.439902","176577.053536","177344.058449","178110.438831","178860.053679","179626.890092","189630.521949","Mapping"
"Blocked","m150","done","20","m150ball.wav","None","729.792207479","181","188110.457382","180393.645502","181160.359482","181927.309362","182693.78497","183443.043031","184210.192946","184976.788822","188859.811287","189626.761476","190393.439902","191160.177379","177344.058449","178110.438831","178860.053679","179626.890092","190402.347491","Mapping"
"Blocked","m150","done","20","m150greet.wav","None","726.185702253","181","188110.457382","180393.645502","181160.359482","181927.309362","182693.78497","183443.043031","184210.192946","184976.788822","188859.811287","189626.761476","190393.439902","191160.177379","191926.941755","178110.438831","178860.053679","179626.890092","191169.766077","Mapping"
"Blocked","m150","done","20","m150jaw.wav","None","723.097062204","181","188110.457382","180393.645502","181160.359482","181927.309362","182693.78497","183443.043031","184210.192946","184976.788822","188859.811287","189626.761476","190393.439902","191160.177379","191926.941755","192693.76611","178860.053679","179626.890092","191936.920938","Mapping"
"Blocked","m150","done","20","m150dime.wav","None","720.459196251","181","188110.457382","180393.645502","181160.359482","181927.309362","182693.78497","183443.043031","184210.192946","184976.788822","188859.811287","189626.761476","190393.439902","191160.177379","191926.941755","192693.76611","193443.054471","179626.890092","192703.339349","Mapping"
"Blocked","m150","done","20","m150done.wav","None","735.596316401","181","188110.457382","180393.645502","181160.359482","181927.309362","182693.78497","183443.043031","184210.192946","184976.788822","188859.811287","189626.761476","190393.439902","191160.177379","191926.941755","192693.76611","193443.054471","194209.966013","193452.1825","Mapping"
"Blocked","m150","done","20","m150knife.wav","space","460.764838848","181","188110.457382","194976.640419","181160.359482","181927.309362","182693.78497","183443.043031","184210.192946","184976.788822","188859.811287","189626.761476","190393.439902","191160.177379","191926.941755","192693.76611","193443.054471","194209.966013","194219.292841","Mapping"
"Blocked","m150","done","20","m150greet.wav","None","729.296602774","181","188110.457382","194976.640419","195743.016164","181927.309362","182693.78497","183443.043031","184210.192946","184976.788822","188859.811287","189626.761476","190393.439902","191160.177379","191926.941755","192693.76611","193443.054471","194209.966013","194985.82781","Mapping"
"Blocked","m150","done","20","m150done.wav","None","727.264098823","181","188110.457382","194976.640419","195743.016164","196510.389302","182693.78497","183443.043031","184210.192946","184976.788822","188859.811287","189626.761476","190393.439902","191160.177379","191926.941755","192693.76611","193443.054471","194209.966013","195751.902729","Mapping"
"Blocked","m150","done","20","m150greet.wav","space","575.847142376","181","188110.457382","194976.640419","195743.016164","196510.389302","197277.04052","183443.043031","184210.192946","184976.788822","188859.811287","189626.761476","190393.439902","191160.177379","191926.941755","192693.76611","193443.054471","194209.966013","196520.212971","Mapping"
"Blocked","m150","done","20","m150done.wav","None","720.071184449","181","188110.457382","194976.640419","195743.016164","196510.389302","197277.04052","198026.499853","184210.192946","184976.788822","188859.811287","189626.761476","190393.439902","191160.177379","191926.941755","192693.76611","193443.054471","194209.966013","197286.516679","Mapping"
"Blocked","m150","done","20","m150tile.wav","space","492.653271649","181","188110.457382","194976.640419","195743.016164","196510.389302","197277.04052","198026.499853","198793.264539","184976.788822","188859.811287","189626.761476","190393.439902","191160.177379","191926.941755","192693.76611","193443.054471","194209.966013","198035.375289","Mapping"
"Blocked","m150","done","20","m150ball.wav","None","737.726828549","181","188110.457382","194976.640419","195743.016164","196510.389302","197277.04052","198026.499853","198793.264539","199560.050556","188859.811287","189626.761476","190393.439902","191160.177379","191926.941755","192693.76611","193443.054471","194209.966013","198796.789422","Mapping"
"Blocked","m150","cave","12","m150tile.wav","None","728.735144716","181","202693.554017","194976.640419","195743.016164","196510.389302","197277.04052","198026.499853","198793.264539","199560.050556","188859.811287","189626.761476","190393.439902","191160.177379","191926.941755","192693.76611","193443.054471","194209.966013","199569.539391","Mapping"
"Blocked","m150","cave","12","m150done.wav","None","719.348646235","181","202693.554017","194976.640419","195743.016164","196510.389302","197277.04052","198026.499853","198793.264539","199560.050556","203443.019225","189626.761476","190393.439902","191160.177379","191926.941755","192693.76611","193443.054471","194209.966013","202703.00266","Mapping"
"Blocked","m150","cave","12","m150done.wav","None","734.312320128","181","202693.554017","194976.640419","195743.016164","196510.389302","197277.04052","198026.499853","198793.264539","199560.050556","203443.019225","204209.84358","190393.439902","191160.177379","191926.941755","192693.76611","193443.054471","194209.966013","203451.904244","Mapping"
"Blocked","m150","cave","12","m150knife.wav","None","731.102174614","181","202693.554017","194976.640419","195743.016164","196510.389302","197277.04052","198026.499853","198793.264539","199560.050556","203443.019225","204209.84358","204976.491398","191160.177379","191926.941755","192693.76611","193443.054471","194209.966013","204218.886587","Mapping"
"Blocked","m150","cave","12","m150cave.wav","None","727.78010834","181","202693.554017","194976.640419","195743.016164","196510.389302","197277.04052","198026.499853","198793.264539","199560.050556","203443.019225","204209.84358","204976.491398","205743.353781","191926.941755","192693.76611","193443.054471","194209.966013","204986.120288","Mapping"
"Blocked","m150","cave","12","m150done.wav","space","559.268347919","181","202693.554017","194976.640419","195743.016164","196510.389302","197277.04052","198026.499853","198793.264539","199560.050556","203443.019225","204209.84358","204976.491398","205743.353781","206510.284183","192693.76611","193443.054471","194209.966013","205752.632997","Mapping"
"Blocked","m150","cave","12","m150cave.wav","None","721.1814248","181","202693.554017","194976.640419","195743.016164","196510.389302","197277.04052","198026.499853","198793.264539","199560.050556","203443.019225","204209.84358","204976.491398","205743.353781","206510.284183","207259.524312","193443.054471","194209.966013","206519.91802","Mapping"
"Blocked","m150","cave","12","m150ball.wav","space","675.414516591","181","202693.554017","194976.640419","195743.016164","196510.389302","197277.04052","198026.499853","198793.264539","199560.050556","203443.019225","204209.84358","204976.491398","205743.353781","206510.284183","207259.524312","208026.197482","194209.966013","207268.464365","Mapping"
"Blocked","m150","cave","12","m150cave.wav","None","733.642342035","181","202693.554017","194976.640419","195743.016164","196510.389302","197277.04052","198026.499853","198793.264539","199560.050556","203443.019225","204209.84358","204976.491398","205743.353781","206510.284183","207259.524312","208026.197482","208793.032967","208034.871336","Mapping"
"Blocked","m150","cave","12","m150reek.wav","space","565.950816963","181","202693.554017","209559.734272","195743.016164","196510.389302","197277.04052","198026.499853","198793.264539","199560.050556","203443.019225","204209.84358","204976.491398","205743.353781","206510.284183","207259.524312","208026.197482","208793.032967","208801.894181","Mapping"
"Blocked","m150","cave","12","m150cave.wav","None","727.385913022","181","202693.554017","209559.734272","210326.678277","196510.389302","197277.04052","198026.499853","198793.264539","199560.050556","203443.019225","204209.84358","204976.491398","205743.353781","206510.284183","207259.524312","208026.197482","208793.032967","209568.824582","Mapping"
"Blocked","m150","cave","12","m150gnash.wav","space","551.114214119","181","202693.554017","209559.734272","210326.678277","211093.421629","197277.04052","198026.499853","198793.264539","199560.050556","203443.019225","204209.84358","204976.491398","205743.353781","206510.284183","207259.524312","208026.197482","208793.032967","210336.722078","Mapping"
"Blocked","m150","cave","12","m150jaw.wav","None","721.100112423","181","202693.554017","209559.734272","210326.678277","211093.421629","211842.748327","198026.499853","198793.264539","199560.050556","203443.019225","204209.84358","204976.491398","205743.353781","206510.284183","207259.524312","208026.197482","208793.032967","211102.909537","Mapping"
"Blocked","m150","cave","12","m150cling.wav","None","736.028540414","181","202693.554017","209559.734272","210326.678277","211093.421629","211842.748327","212609.74551","198793.264539","199560.050556","203443.019225","204209.84358","204976.491398","205743.353781","206510.284183","207259.524312","208026.197482","208793.032967","211851.77433","Mapping"
"Blocked","m150","cave","12","m150ball.wav","None","732.981638517","181","202693.554017","209559.734272","210326.678277","211093.421629","211842.748327","212609.74551","213376.28048","199560.050556","203443.019225","204209.84358","204976.491398","205743.353781","206510.284183","207259.524312","208026.197482","208793.032967","212618.807686","Mapping"
"Blocked","m150","cave","12","m150cling.wav","None","729.913094547","181","202693.554017","209559.734272","210326.678277","211093.421629","211842.748327","212609.74551","213376.28048","214142.970654","203443.019225","204209.84358","204976.491398","205743.353781","206510.284183","207259.524312","208026.197482","208793.032967","213385.904114","Mapping"
"Blocked","m150","tile","17","m150lash.wav","None","727.777635213","181","217276.662401","209559.734272","210326.678277","211093.421629","211842.748327","212609.74551","213376.28048","214142.970654","203443.019225","204209.84358","204976.491398","205743.353781","206510.284183","207259.524312","208026.197482","208793.032967","214152.039013","Mapping"
"Blocked","m150","tile","17","m150park.wav","None","719.962664414","181","217276.662401","209559.734272","210326.678277","211093.421629","211842.748327","212609.74551","213376.28048","214142.970654","218026.114933","204209.84358","204976.491398","205743.353781","206510.284183","207259.524312","208026.197482","208793.032967","217286.163294","Mapping"
"Blocked","m150","tile","17","m150tile.wav","None","734.845952597","181","217276.662401","209559.734272","210326.678277","211093.421629","211842.748327","212609.74551","213376.28048","214142.970654","218026.114933","218793.081199","204976.491398","205743.353781","206510.284183","207259.524312","208026.197482","208793.032967","218035.208644","Mapping"
"Blocked","m150","tile","17","m150cling.wav","space","501.721630804","181","217276.662401","209559.734272","210326.678277","211093.421629","211842.748327","212609.74551","213376.28048","214142.970654","218026.114933","218793.081199","219559.539802","205743.353781","206510.284183","207259.524312","208026.197482","208793.032967","218801.955088","Mapping"
"Blocked","m150","tile","17","m150tile.wav","None","729.322573636","181","217276.662401","209559.734272","210326.678277","211093.421629","211842.748327","212609.74551","213376.28048","214142.970654","218026.114933","218793.081199","219559.539802","220326.22472","206510.284183","207259.524312","208026.197482","208793.032967","219568.554674","Mapping"
"Blocked","m150","tile","17","m150priest.wav","space","549.715514295","181","217276.662401","209559.734272","210326.678277","211093.421629","211842.748327","212609.74551","213376.28048","214142.970654","218026.114933","218793.081199","219559.539802","220326.22472","221093.131007","207259.524312","208026.197482","208793.032967","220329.917794","Mapping"
"Blocked","m150","tile","17","m150depth.wav","None","722.489845939","181","217276.662401","209559.734272","210326.678277","211093.421629","211842.748327","212609.74551","213376.28048","214142.970654","218026.114933","218793.081199","219559.539802","220326.22472","221093.131007","221859.669067","208026.197482","208793.032967","221103.198923","Mapping"
"Blocked","m150","tile","17","m150priest.wav","None","720.559986774","181","217276.662401","209559.734272","210326.678277","211093.421629","211842.748327","212609.74551","213376.28048","214142.970654","218026.114933","218793.081199","219559.539802","220326.22472","221093.131007","221859.669067","222609.316069","208793.032967","221869.493664","Mapping"
"Blocked","m150","tile","17","m150tile.wav","None","735.767907463","181","217276.662401","209559.734272","210326.678277","211093.421629","211842.748327","212609.74551","213376.28048","214142.970654","218026.114933","218793.081199","219559.539802","220326.22472","221093.131007","221859.669067","222609.316069","223376.252654","222618.351346","Mapping"
"Blocked","m150","tile","17","m150cling.wav","space","541.91383766","181","217276.662401","224142.746503","210326.678277","211093.421629","211842.748327","212609.74551","213376.28048","214142.970654","218026.114933","218793.081199","219559.539802","220326.22472","221093.131007","221859.669067","222609.316069","223376.252654","223385.658939","Mapping"
"Blocked","m150","tile","17","m150park.wav","None","730.221958831","181","217276.662401","224142.746503","224909.478416","211093.421629","211842.748327","212609.74551","213376.28048","214142.970654","218026.114933","218793.081199","219559.539802","220326.22472","221093.131007","221859.669067","222609.316069","223376.252654","224151.659966","Mapping"
"Blocked","m150","tile","17","m150gnash.wav","None","727.577909362","181","217276.662401","224142.746503","224909.478416","225676.048322","211842.748327","212609.74551","213376.28048","214142.970654","218026.114933","218793.081199","219559.539802","220326.22472","221093.131007","221859.669067","222609.316069","223376.252654","224918.465153","Mapping"
"Blocked","m150","tile","17","m150tile.wav","None","725.280443206","181","217276.662401","224142.746503","224909.478416","225676.048322","226443.023553","212609.74551","213376.28048","214142.970654","218026.114933","218793.081199","219559.539802","220326.22472","221093.131007","221859.669067","222609.316069","223376.252654","225685.109879","Mapping"
"Blocked","m150","tile","17","m150park.wav","space","491.243751254","181","217276.662401","224142.746503","224909.478416","225676.048322","226443.023553","227193.288283","213376.28048","214142.970654","218026.114933","218793.081199","219559.539802","220326.22472","221093.131007","221859.669067","222609.316069","223376.252654","226452.2836","Mapping"
"Blocked","m150","tile","17","m150cad.wav","None","735.879828222","181","217276.662401","224142.746503","224909.478416","225676.048322","226443.023553","227193.288283","227959.456264","214142.970654","218026.114933","218793.081199","219559.539802","220326.22472","221093.131007","221859.669067","222609.316069","223376.252654","227202.258325","Mapping"
"Blocked","m150","tile","17","m150romp.wav","None","733.948423062","181","217276.662401","224142.746503","224909.478416","225676.048322","226443.023553","227193.288283","227959.456264","228725.963407","218026.114933","218793.081199","219559.539802","220326.22472","221093.131007","221859.669067","222609.316069","223376.252654","227968.432489","Mapping"
"Blocked","m150","ball","5","m150tile.wav","None","731.722376309","181","231859.678342","224142.746503","224909.478416","225676.048322","226443.023553","227193.288283","227959.456264","228725.963407","218026.114933","218793.081199","219559.539802","220326.22472","221093.131007","221859.669067","222609.316069","223376.252654","228735.000849","Mapping"
"Blocked","m150","ball","5","m150ball.wav","None","720.821238589","181","231859.678342","224142.746503","224909.478416","225676.048322","226443.023553","227193.288283","227959.456264","228725.963407","232609.135821","218793.081199","219559.539802","220326.22472","221093.131007","221859.669067","222609.316069","223376.252654","231869.290846","Mapping"
"Blocked","m150","ball","5","m150depth.wav","space","452.782605309","181","231859.678342","224142.746503","224909.478416","225676.048322","226443.023553","227193.288283","227959.456264","228725.963407","232609.135821","233392.187441","219559.539802","220326.22472","221093.131007","221859.669067","222609.316069","223376.252654","232618.671032","Mapping"
"Blocked","m150","ball","5","m150ball.wav","None","723.429423291","181","231859.678342","224142.746503","224909.478416","225676.048322","226443.023553","227193.288283","227959.456264","228725.963407","232609.135821","233392.187441","234159.1973","220326.22472","221093.131007","221859.669067","222609.316069","223376.252654","233400.785238","Mapping"
"Blocked","m150","ball","5","m150cave.wav","space","439.111275598","181","231859.678342","224142.746503","224909.478416","225676.048322","226443.023553","227193.288283","227959.456264","228725.963407","232609.135821","233392.187441","234159.1973","234909.293221","221093.131007","221859.669067","222609.316069","223376.252654","234168.256075","Mapping"
"Blocked","m150","ball","5","m150bluff.wav","None","733.796928078","181","231859.678342","224142.746503","224909.478416","225676.048322","226443.023553","227193.288283","227959.456264","228725.963407","232609.135821","233392.187441","234159.1973","234909.293221","235675.908266","221859.669067","222609.316069","223376.252654","234918.281814","Mapping"
"Blocked","m150","ball","5","m150gnash.wav","None","731.349204201","181","231859.678342","224142.746503","224909.478416","225676.048322","226443.023553","227193.288283","227959.456264","228725.963407","232609.135821","233392.187441","234159.1973","234909.293221","235675.908266","236442.283084","222609.316069","223376.252654","235684.90737","Mapping"
"Blocked","m150","ball","5","m150ball.wav","None","729.103679303","181","231859.678342","224142.746503","224909.478416","225676.048322","226443.023553","227193.288283","227959.456264","228725.963407","232609.135821","233392.187441","234159.1973","234909.293221","235675.908266","236442.283084","237209.023962","223376.252654","236451.251889","Mapping"
"Blocked","m150","ball","5","m150cave.wav","space","461.387204472","181","231859.678342","224142.746503","224909.478416","225676.048322","226443.023553","227193.288283","227959.456264","228725.963407","232609.135821","233392.187441","234159.1973","234909.293221","235675.908266","236442.283084","237209.023962","237975.656321","237217.944846","Mapping"
"Blocked","m150","ball","5","m150ball.wav","None","723.518774379","181","231859.678342","238742.866524","224909.478416","225676.048322","226443.023553","227193.288283","227959.456264","228725.963407","232609.135821","233392.187441","234159.1973","234909.293221","235675.908266","236442.283084","237209.023962","237975.656321","237984.486307","Mapping"
"Blocked","m150","ball","5","m150gnash.wav","space","446.551528294","181","231859.678342","238742.866524","239492.412735","225676.048322","226443.023553","227193.288283","227959.456264","228725.963407","232609.135821","233392.187441","234159.1973","234909.293221","235675.908266","236442.283084","237209.023962","237975.656321","238752.750173","Mapping"
"Blocked","m150","ball","5","m150tile.wav","None","733.805585187","181","231859.678342","238742.866524","239492.412735","240259.141247","226443.023553","227193.288283","227959.456264","228725.963407","232609.135821","233392.187441","234159.1973","234909.293221","235675.908266","236442.283084","237209.023962","237975.656321","239501.963095","Mapping"
"Blocked","m150","ball","5","m150gnash.wav","None","731.819765642","181","231859.678342","238742.866524","239492.412735","240259.141247","241025.5813","227193.288283","227959.456264","228725.963407","232609.135821","233392.187441","234159.1973","234909.293221","235675.908266","236442.283084","237209.023962","237975.656321","240268.123965","Mapping"
"Blocked","m150","ball","5","m150cave.wav","None","730.420447886","181","231859.678342","238742.866524","239492.412735","240259.141247","241025.5813","241792.461306","227959.456264","228725.963407","232609.135821","233392.187441","234159.1973","234909.293221","235675.908266","236442.283084","237209.023962","237975.656321","241034.389026","Mapping"
"Blocked","m150","ball","5","m150reek.wav","None","727.529369295","181","231859.678342","238742.866524","239492.412735","240259.141247","241025.5813","241792.461306","242558.931968","228725.963407","232609.135821","233392.187441","234159.1973","234909.293221","235675.908266","236442.283084","237209.023962","237975.656321","241801.373224","Mapping"
"Blocked","m150","ball","5","m150park.wav","None","725.41369684","181","231859.678342","238742.866524","239492.412735","240259.141247","241025.5813","241792.461306","242558.931968","243326.158866","232609.135821","233392.187441","234159.1973","234909.293221","235675.908266","236442.283084","237209.023962","237975.656321","242567.835537","Mapping"
"Blocked","m150","cave","9","m150greet.wav","None","721.652605105","181","246442.704487","238742.866524","239492.412735","240259.141247","241025.5813","241792.461306","242558.931968","243326.158866","232609.135821","233392.187441","234159.1973","234909.293221","235675.908266","236442.283084","237209.023962","237975.656321","243335.839698","Mapping"
"Blocked","m150","cave","9","m150jolt.wav","None","719.911341555","181","246442.704487","238742.866524","239492.412735","240259.141247","241025.5813","241792.461306","242558.931968","243326.158866","247192.150525","233392.187441","234159.1973","234909.293221","235675.908266","236442.283084","237209.023962","237975.656321","246452.649352","Mapping"
"Blocked","m150","cave","9","m150tile.wav","None","735.668353736","181","246442.704487","238742.866524","239492.412735","240259.141247","241025.5813","241792.461306","242558.931968","243326.158866","247192.150525","247959.087111","234159.1973","234909.293221","235675.908266","236442.283084","237209.023962","237975.656321","247201.118712","Mapping"
"Blocked","m150","cave","9","m150cave.wav","None","732.915784698","181","246442.704487","238742.866524","239492.412735","240259.141247","241025.5813","241792.461306","242558.931968","243326.158866","247192.150525","247959.087111","248725.800473","234909.293221","235675.908266","236442.283084","237209.023962","237975.656321","247968.084978","Mapping"
"Blocked","m150","cave","9","m150park.wav","space","576.033573598","181","246442.704487","238742.866524","239492.412735","240259.141247","241025.5813","241792.461306","242558.931968","243326.158866","247192.150525","247959.087111","248725.800473","249492.315037","235675.908266","236442.283084","237209.023962","237975.656321","248735.142141","Mapping"
"Blocked","m150","cave","9","m150knife.wav","None","727.483611554","181","246442.704487","238742.866524","239492.412735","240259.141247","241025.5813","241792.461306","242558.931968","243326.158866","247192.150525","247959.087111","248725.800473","249492.315037","250259.029017","236442.283084","237209.023962","237975.656321","249501.239939","Mapping"
"Blocked","m150","cave","9","m150cave.wav","None","724.720530678","181","246442.704487","238742.866524","239492.412735","240259.141247","241025.5813","241792.461306","242558.931968","243326.158866","247192.150525","247959.087111","248725.800473","249492.315037","250259.029017","251025.787209","237209.023962","237975.656321","250268.323691","Mapping"
"Blocked","m150","cave","9","m150greet.wav","space","547.330243047","181","246442.704487","238742.866524","239492.412735","240259.141247","241025.5813","241792.461306","242558.931968","243326.158866","247192.150525","247959.087111","248725.800473","249492.315037","250259.029017","251025.787209","251775.671965","237975.656321","251035.749079","Mapping"
"Blocked","m150","cave","9","m150ball.wav","None","735.341248568","181","246442.704487","238742.866524","239492.412735","240259.141247","241025.5813","241792.461306","242558.931968","243326.158866","247192.150525","247959.087111","248725.800473","249492.315037","250259.029017","251025.787209","251775.671965","252542.210026","251785.435036","Mapping"
"Blocked","m150","cave","9","m150done.wav","None","734.165153466","181","246442.704487","253308.966054","239492.412735","240259.141247","241025.5813","241792.461306","242558.931968","243326.158866","247192.150525","247959.087111","248725.800473","249492.315037","250259.029017","251025.787209","251775.671965","252542.210026","252551.137711","Mapping"
"Blocked","m150","cave","9","m150cave.wav","None","731.458960567","181","246442.704487","253308.966054","254075.569659","240259.141247","241025.5813","241792.461306","242558.931968","243326.158866","247192.150525","247959.087111","248725.800473","249492.315037","250259.029017","251025.787209","251775.671965","252542.210026","253318.033176","Mapping"
"Blocked","m150","cave","9","m150lash.wav","space","538.582187612","181","246442.704487","253308.966054","254075.569659","254842.117923","241025.5813","241792.461306","242558.931968","243326.158866","247192.150525","247959.087111","248725.800473","249492.315037","250259.029017","251025.787209","251775.671965","252542.210026","254084.475084","Mapping"
"Blocked","m150","cave","9","m150reek.wav","None","725.964643527","181","246442.704487","253308.966054","254075.569659","254842.117923","255609.309576","241792.461306","242558.931968","243326.158866","247192.150525","247959.087111","248725.800473","249492.315037","250259.029017","251025.787209","251775.671965","252542.210026","254851.141762","Mapping"
"Blocked","m150","cave","9","m150jolt.wav","None","722.634229809","181","246442.704487","253308.966054","254075.569659","254842.117923","255609.309576","256375.765706","242558.931968","243326.158866","247192.150525","247959.087111","248725.800473","249492.315037","250259.029017","251025.787209","251775.671965","252542.210026","255618.975876","Mapping"
"Blocked","m150","cave","9","m150cave.wav","None","720.613164827","181","246442.704487","253308.966054","254075.569659","254842.117923","255609.309576","256375.765706","257125.033352","243326.158866","247192.150525","247959.087111","248725.800473","249492.315037","250259.029017","251025.787209","251775.671965","252542.210026","256385.514246","Mapping"
"Blocked","m150","cave","9","m150jaw.wav","space","521.012183744","181","246442.704487","253308.966054","254075.569659","254842.117923","255609.309576","256375.765706","257125.033352","257892.190996","247192.150525","247959.087111","248725.800473","249492.315037","250259.029017","251025.787209","251775.671965","252542.210026","257133.982061","Mapping"
"Blocked","m150","tile","16","m150priest.wav","None","732.870645355","181","261025.842242","253308.966054","254075.569659","254842.117923","255609.309576","256375.765706","257125.033352","257892.190996","247192.150525","247959.087111","248725.800473","249492.315037","250259.029017","251025.787209","251775.671965","252542.210026","257901.241114","Mapping"
"Blocked","m150","tile","16","m150tile.wav","None","720.308319665","181","261025.842242","253308.966054","254075.569659","254842.117923","255609.309576","256375.765706","257125.033352","257892.190996","261775.179761","247959.087111","248725.800473","249492.315037","250259.029017","251025.787209","251775.671965","252542.210026","261035.237398","Mapping"
"Blocked","m150","tile","16","m150depth.wav","None","735.523969866","181","261025.842242","253308.966054","254075.569659","254842.117923","255609.309576","256375.765706","257125.033352","257892.190996","261775.179761","262542.180036","248725.800473","249492.315037","250259.029017","251025.787209","251775.671965","252542.210026","261784.478145","Mapping"
"Blocked","m150","tile","16","m150tile.wav","None","733.397476375","181","261025.842242","253308.966054","254075.569659","254842.117923","255609.309576","256375.765706","257125.033352","257892.190996","261775.179761","262542.180036","263308.752724","249492.315037","250259.029017","251025.787209","251775.671965","252542.210026","262551.10463","Mapping"
"Blocked","m150","tile","16","m150knife.wav","space","521.095351316","181","261025.842242","253308.966054","254075.569659","254842.117923","255609.309576","256375.765706","257125.033352","257892.190996","261775.179761","262542.180036","263308.752724","264075.471652","250259.029017","251025.787209","251775.671965","252542.210026","263317.775326","Mapping"
"Blocked","m150","tile","16","m150knife.wav","None","727.30429098","181","261025.842242","253308.966054","254075.569659","254842.117923","255609.309576","256375.765706","257125.033352","257892.190996","261775.179761","262542.180036","263308.752724","264075.471652","264841.735167","251025.787209","251775.671965","252542.210026","264084.927714","Mapping"
"Blocked","m150","tile","16","m150ball.wav","None","726.038536057","181","261025.842242","253308.966054","254075.569659","254842.117923","255609.309576","256375.765706","257125.033352","257892.190996","261775.179761","262542.180036","263308.752724","264075.471652","264841.735167","265608.405863","251775.671965","252542.210026","264850.599781","Mapping"
"Blocked","m150","tile","16","m150tile.wav","None","726.525483653","181","261025.842242","253308.966054","254075.569659","254842.117923","255609.309576","256375.765706","257125.033352","257892.190996","261775.179761","262542.180036","263308.752724","264075.471652","264841.735167","265608.405863","266375.507856","252542.210026","265617.268004","Mapping"
"Blocked","m150","tile","16","m150priest.wav","space","502.21074326","181","261025.842242","253308.966054","254075.569659","254842.117923","255609.309576","256375.765706","257125.033352","257892.190996","261775.179761","262542.180036","263308.752724","264075.471652","264841.735167","265608.405863","266375.507856","267142.375495","266384.597239","Mapping"
"Blocked","m150","tile","16","m150romp.wav","None","720.092826057","181","261025.842242","267891.756608","254075.569659","254842.117923","255609.309576","256375.765706","257125.033352","257892.190996","261775.179761","262542.180036","263308.752724","264075.471652","264841.735167","265608.405863","266375.507856","267142.375495","267151.71098","Mapping"
"Blocked","m150","tile","16","m150reek.wav","None","735.292708036","181","261025.842242","267891.756608","268658.71298","254842.117923","255609.309576","256375.765706","257125.033352","257892.190996","261775.179761","262542.180036","263308.752724","264075.471652","264841.735167","265608.405863","266375.507856","267142.375495","267900.939052","Mapping"
"Blocked","m150","tile","16","m150reek.wav","None","732.978237327","181","261025.842242","267891.756608","268658.71298","269425.405009","255609.309576","256375.765706","257125.033352","257892.190996","261775.179761","262542.180036","263308.752724","264075.471652","264841.735167","265608.405863","266375.507856","267142.375495","268667.718886","Mapping"
"Blocked","m150","tile","16","m150tile.wav","None","730.663457885","181","261025.842242","267891.756608","268658.71298","269425.405009","270192.005523","256375.765706","257125.033352","257892.190996","261775.179761","262542.180036","263308.752724","264075.471652","264841.735167","265608.405863","266375.507856","267142.375495","269434.452345","Mapping"
"Blocked","m150","tile","16","m150jaw.wav","space","493.511536624","181","261025.842242","267891.756608","268658.71298","269425.405009","270192.005523","270958.67251","257125.033352","257892.190996","261775.179761","262542.180036","263308.752724","264075.471652","264841.735167","265608.405863","266375.507856","267142.375495","270201.183948","Mapping"
"Blocked","m150","tile","16","m150reek.wav","None","725.47955066","181","261025.842242","267891.756608","268658.71298","269425.405009","270192.005523","270958.67251","271725.485425","257892.190996","261775.179761","262542.180036","263308.752724","264075.471652","264841.735167","265608.405863","266375.507856","267142.375495","270967.755709","Mapping"
"Blocked","m150","tile","16","m150done.wav","None","722.847868223","181","261025.842242","267891.756608","268658.71298","269425.405009","270192.005523","270958.67251","271725.485425","272492.25382","261775.179761","262542.180036","263308.752724","264075.471652","264841.735167","265608.405863","266375.507856","267142.375495","271734.825548","Mapping"
"Blocked","m150","done","21","m150tile.wav","None","720.578228123","181","275608.9194","267891.756608","268658.71298","269425.405009","270192.005523","270958.67251","271725.485425","272492.25382","261775.179761","262542.180036","263308.752724","264075.471652","264841.735167","265608.405863","266375.507856","267142.375495","272501.73709","Mapping"
"Blocked","m150","done","21","m150done.wav","None","719.404606614","181","275608.9194","267891.756608","268658.71298","269425.405009","270192.005523","270958.67251","271725.485425","272492.25382","276358.350598","262542.180036","263308.752724","264075.471652","264841.735167","265608.405863","266375.507856","267142.375495","275618.647534","Mapping"
"Blocked","m150","done","21","m150cad.wav","space","471.244264394","181","275608.9194","267891.756608","268658.71298","269425.405009","270192.005523","270958.67251","271725.485425","272492.25382","276358.350598","277125.16877","263308.752724","264075.471652","264841.735167","265608.405863","266375.507856","267142.375495","276367.391132","Mapping"
"Blocked","m150","done","21","m150depth.wav","None","731.86150426","181","275608.9194","267891.756608","268658.71298","269425.405009","270192.005523","270958.67251","271725.485425","272492.25382","276358.350598","277125.16877","277891.769902","264075.471652","264841.735167","265608.405863","266375.507856","267142.375495","277134.213323","Mapping"
"Blocked","m150","done","21","m150done.wav","None","729.81508635","181","275608.9194","267891.756608","268658.71298","269425.405009","270192.005523","270958.67251","271725.485425","272492.25382","276358.350598","277125.16877","277891.769902","278658.526858","264841.735167","265608.405863","266375.507856","267142.375495","277900.690786","Mapping"
"Blocked","m150","done","21","m150cling.wav","space","490.460306406","181","275608.9194","267891.756608","268658.71298","269425.405009","270192.005523","270958.67251","271725.485425","272492.25382","276358.350598","277125.16877","277891.769902","278658.526858","279425.370691","265608.405863","266375.507856","267142.375495","278668.139053","Mapping"
"Blocked","m150","done","21","m150ball.wav","None","723.31966646","181","275608.9194","267891.756608","268658.71298","269425.405009","270192.005523","270958.67251","271725.485425","272492.25382","276358.350598","277125.16877","277891.769902","278658.526858","279425.370691","280191.594323","266375.507856","267142.375495","279435.2058","Mapping"
"Blocked","m150","done","21","m150done.wav","None","722.209426109","181","275608.9194","267891.756608","268658.71298","269425.405009","270192.005523","270958.67251","271725.485425","272492.25382","276358.350598","277125.16877","277891.769902","278658.526858","279425.370691","280191.594323","280958.876564","267142.375495","280200.762854","Mapping"
"Blocked","m150","done","21","m150cave.wav","space","446.287803818","181","275608.9194","267891.756608","268658.71298","269425.405009","270192.005523","270958.67251","271725.485425","272492.25382","276358.350598","277125.16877","277891.769902","278658.526858","279425.370691","280191.594323","280958.876564","281708.448745","280968.259352","Mapping"
"Blocked","m150","done","21","m150knife.wav","None","733.612042852","181","275608.9194","282475.048022","268658.71298","269425.405009","270192.005523","270958.67251","271725.485425","272492.25382","276358.350598","277125.16877","277891.769902","278658.526858","279425.370691","280191.594323","280958.876564","281708.448745","281717.353242","Mapping"
"Blocked","m150","done","21","m150knife.wav","None","731.276238803","181","275608.9194","282475.048022","283241.629058","269425.405009","270192.005523","270958.67251","271725.485425","272492.25382","276358.350598","277125.16877","277891.769902","278658.526858","279425.370691","280191.594323","280958.876564","281708.448745","282484.181308","Mapping"
"Blocked","m150","done","21","m150jaw.wav","None","729.390591849","181","275608.9194","282475.048022","283241.629058","284008.429607","270192.005523","270958.67251","271725.485425","272492.25382","276358.350598","277125.16877","277891.769902","278658.526858","279425.370691","280191.594323","280958.876564","281708.448745","283250.515315","Mapping"
"Blocked","m150","done","21","m150jolt.wav","None","726.623182185","181","275608.9194","282475.048022","283241.629058","284008.429607","284774.731769","270958.67251","271725.485425","272492.25382","276358.350598","277125.16877","277891.769902","278658.526858","279425.370691","280191.594323","280958.876564","281708.448745","284017.822908","Mapping"
"Blocked","m150","done","21","m150done.wav","None","725.42699147","181","275608.9194","282475.048022","283241.629058","284008.429607","284774.731769","285541.95063","271725.485425","272492.25382","276358.350598","277125.16877","277891.769902","278658.526858","279425.370691","280191.594323","280958.876564","281708.448745","284783.4217","Mapping"
"Blocked","m150","done","21","m150lash.wav","space","503.119093832","181","275608.9194","282475.048022","283241.629058","284008.429607","284774.731769","285541.95063","286291.808797","272492.25382","276358.350598","277125.16877","277891.769902","278658.526858","279425.370691","280191.594323","280958.876564","281708.448745","285551.347331","Mapping"
"Blocked","m150","done","21","m150park.wav","None","735.970415641","181","275608.9194","282475.048022","283241.629058","284008.429607","284774.731769","285541.95063","286291.808797","287058.375301","276358.350598","277125.16877","277891.769902","278658.526858","279425.370691","280191.594323","280958.876564","281708.448745","286300.852422","Mapping"
"Blocked","m150","cave","8","m150gnash.wav","None","733.628119808","181","290191.921119","282475.048022","283241.629058","284008.429607","284774.731769","285541.95063","286291.808797","287058.375301","276358.350598","277125.16877","277891.769902","278658.526858","279425.370691","280191.594323","280958.876564","281708.448745","287067.512915","Mapping"
"Blocked","m150","cave","8","m150cling.wav","None","719.815806951","181","290191.921119","282475.048022","283241.629058","284008.429607","284774.731769","285541.95063","286291.808797","287058.375301","290941.326656","277125.16877","277891.769902","278658.526858","279425.370691","280191.594323","280958.876564","281708.448745","290202.017479","Mapping"
"Blocked","m150","cave","8","m150cave.wav","None","735.736681148","181","290191.921119","282475.048022","283241.629058","284008.429607","284774.731769","285541.95063","286291.808797","287058.375301","290941.326656","291708.312091","277891.769902","278658.526858","279425.370691","280191.594323","280958.876564","281708.448745","290950.357296","Mapping"
"Blocked","m150","cave","8","m150knife.wav","space","601.060835179","181","290191.921119","282475.048022","283241.629058","284008.429607","284774.731769","285541.95063","286291.808797","287058.375301","290941.326656","291708.312091","292474.60374","278658.526858","279425.370691","280191.594323","280958.876564","281708.448745","291717.326963","Mapping"
"Blocked","m150","cave","8","m150cave.wav","None","731.042195112","181","290191.921119","282475.048022","283241.629058","284008.429607","284774.731769","285541.95063","286291.808797","287058.375301","290941.326656","291708.312091","292474.60374","293241.530742","279425.370691","280191.594323","280958.876564","281708.448745","292483.343758","Mapping"
"Blocked","m150","cave","8","m150lash.wav","space","723.804759793","181","290191.921119","282475.048022","283241.629058","284008.429607","284774.731769","285541.95063","286291.808797","287058.375301","290941.326656","291708.312091","292474.60374","293241.530742","294008.236993","280191.594323","280958.876564","281708.448745","293250.542213","Mapping"
"Blocked","m150","cave","8","m150gnash.wav","None","725.131112617","181","290191.921119","282475.048022","283241.629058","284008.429607","284774.731769","285541.95063","286291.808797","287058.375301","290941.326656","291708.312091","292474.60374","293241.530742","294008.236993","294775.106487","280958.876564","281708.448745","294017.233624","Mapping"
"Blocked","m150","cave","8","m150lash.wav","None","721.839654725","181","290191.921119","282475.048022","283241.629058","284008.429607","284774.731769","285541.95063","286291.808797","287058.375301","290941.326656","291708.312091","292474.60374","293241.530742","294008.236993","294775.106487","295541.901162","281708.448745","294784.997247","Mapping"
"Blocked","m150","cave","8","m150cling.wav","None","719.179219566","181","290191.921119","282475.048022","283241.629058","284008.429607","284774.731769","285541.95063","286291.808797","287058.375301","290941.326656","291708.312091","292474.60374","293241.530742","294008.236993","294775.106487","295541.901162","296291.210855","295552.163548","Mapping"
"Blocked","m150","cave","8","m150cad.wav","None","735.489342362","181","290191.921119","297074.370377","283241.629058","284008.429607","284774.731769","285541.95063","286291.808797","287058.375301","290941.326656","291708.312091","292474.60374","293241.530742","294008.236993","294775.106487","295541.901162","296291.210855","296300.31075","Mapping"
"Blocked","m150","cave","8","m150gnash.wav","None","721.304166596","181","290191.921119","297074.370377","297824.620266","284008.429607","284774.731769","285541.95063","286291.808797","287058.375301","290941.326656","291708.312091","292474.60374","293241.530742","294008.236993","294775.106487","295541.901162","296291.210855","297083.066491","Mapping"
"Blocked","m150","cave","8","m150cave.wav","None","735.346194822","181","290191.921119","297074.370377","297824.620266","298591.384642","284774.731769","285541.95063","286291.808797","287058.375301","290941.326656","291708.312091","292474.60374","293241.530742","294008.236993","294775.106487","295541.901162","296291.210855","297833.600511","Mapping"
"Blocked","m150","cave","8","m150depth.wav","space","549.346979707","181","290191.921119","297074.370377","297824.620266","298591.384642","299358.092439","285541.95063","286291.808797","287058.375301","290941.326656","291708.312091","292474.60374","293241.530742","294008.236993","294775.106487","295541.901162","296291.210855","298600.8945","Mapping"
"Blocked","m150","cave","8","m150romp.wav","None","729.995025322","181","290191.921119","297074.370377","297824.620266","298591.384642","299358.092439","300125.030879","286291.808797","287058.375301","290941.326656","291708.312091","292474.60374","293241.530742","294008.236993","294775.106487","295541.901162","296291.210855","299367.130499","Mapping"
"Blocked","m150","cave","8","m150cave.wav","None","727.576363366","181","290191.921119","297074.370377","297824.620266","298591.384642","299358.092439","300125.030879","300891.289138","287058.375301","290941.326656","291708.312091","292474.60374","293241.530742","294008.236993","294775.106487","295541.901162","296291.210855","300133.910642","Mapping"
"Blocked","m150","cave","8","m150bluff.wav","space","513.899035752","181","290191.921119","297074.370377","297824.620266","298591.384642","299358.092439","300125.030879","300891.289138","301658.397623","290941.326656","291708.312091","292474.60374","293241.530742","294008.236993","294775.106487","295541.901162","296291.210855","300900.306175","Mapping"
"Blocked","m150","cave","7","m150ball.wav","None","721.379295923","181","304775.021155","297074.370377","297824.620266","298591.384642","299358.092439","300125.030879","300891.289138","301658.397623","290941.326656","291708.312091","292474.60374","293241.530742","294008.236993","294775.106487","295541.901162","296291.210855","301668.516553","Mapping"
"Blocked","m150","cave","7","m150knife.wav","None","719.467678107","181","304775.021155","297074.370377","297824.620266","298591.384642","299358.092439","300125.030879","300891.289138","301658.397623","305524.507696","291708.312091","292474.60374","293241.530742","294008.236993","294775.106487","295541.901162","296291.210855","304784.966948","Mapping"
"Blocked","m150","cave","7","m150cave.wav","None","735.590132419","181","304775.021155","297074.370377","297824.620266","298591.384642","299358.092439","300125.030879","300891.289138","301658.397623","305524.507696","306291.013912","292474.60374","293241.530742","294008.236993","294775.106487","295541.901162","296291.210855","305533.330263","Mapping"
"Blocked","m150","cave","7","m150cling.wav","space","514.070317615","181","304775.021155","297074.370377","297824.620266","298591.384642","299358.092439","300125.030879","300891.289138","301658.397623","305524.507696","306291.013912","307057.955753","293241.530742","294008.236993","294775.106487","295541.901162","296291.210855","306300.030949","Mapping"
"Blocked","m150","cave","7","m150lash.wav","None","730.099217035","181","304775.021155","297074.370377","297824.620266","298591.384642","299358.092439","300125.030879","300891.289138","301658.397623","305524.507696","306291.013912","307057.955753","307824.579146","294008.236993","294775.106487","295541.901162","296291.210855","307066.984229","Mapping"
"Blocked","m150","cave","7","m150cave.wav","None","728.177087381","181","304775.021155","297074.370377","297824.620266","298591.384642","299358.092439","300125.030879","300891.289138","301658.397623","305524.507696","306291.013912","307057.955753","307824.579146","308591.175331","294775.106487","295541.901162","296291.210855","307834.069217","Mapping"
"Blocked","m150","cave","7","m150dime.wav","space","469.900288153","181","304775.021155","297074.370377","297824.620266","298591.384642","299358.092439","300125.030879","300891.289138","301658.397623","305524.507696","306291.013912","307057.955753","307824.579146","308591.175331","309358.448915","295541.901162","296291.210855","308600.158668","Mapping"
"Blocked","m150","cave","7","m150dime.wav","None","721.951266285","181","304775.021155","297074.370377","297824.620266","298591.384642","299358.092439","300125.030879","300891.289138","301658.397623","305524.507696","306291.013912","307057.955753","307824.579146","308591.175331","309358.448915","310125.06427","296291.210855","309368.556405","Mapping"
"Blocked","m150","cave","7","m150priest.wav","None","720.038720872","181","304775.021155","297074.370377","297824.620266","298591.384642","299358.092439","300125.030879","300891.289138","301658.397623","305524.507696","306291.013912","307057.955753","307824.579146","308591.175331","309358.448915","310125.06427","310874.330988","310134.949464","Mapping"
"Blocked","m150","cave","7","m150jaw.wav","None","736.221464351","181","304775.021155","311641.14143","297824.620266","298591.384642","299358.092439","300125.030879","300891.289138","301658.397623","305524.507696","306291.013912","307057.955753","307824.579146","308591.175331","309358.448915","310125.06427","310874.330988","310883.331947","Mapping"
"Blocked","m150","cave","7","m150cave.wav","None","734.040556476","181","304775.021155","311641.14143","312407.86716","298591.384642","299358.092439","300125.030879","300891.289138","301658.397623","305524.507696","306291.013912","307057.955753","307824.579146","308591.175331","309358.448915","310125.06427","310874.330988","311650.094159","Mapping"
"Blocked","m150","cave","7","m150priest.wav","space","532.953070942","181","304775.021155","311641.14143","312407.86716","313174.527344","299358.092439","300125.030879","300891.289138","301658.397623","305524.507696","306291.013912","307057.955753","307824.579146","308591.175331","309358.448915","310125.06427","310874.330988","312417.059806","Mapping"
"Blocked","m150","cave","7","m150cave.wav","None","728.946928401","181","304775.021155","311641.14143","312407.86716","313174.527344","313941.08612","300125.030879","300891.289138","301658.397623","305524.507696","306291.013912","307057.955753","307824.579146","308591.175331","309358.448915","310125.06427","310874.330988","313183.658156","Mapping"
"Blocked","m150","cave","7","m150cling.wav","space","623.935632873","181","304775.021155","311641.14143","312407.86716","313174.527344","313941.08612","314708.270971","300891.289138","301658.397623","305524.507696","306291.013912","307057.955753","307824.579146","308591.175331","309358.448915","310125.06427","310874.330988","313950.047505","Mapping"
"Blocked","m150","cave","7","m150jaw.wav","None","722.330003045","181","304775.021155","311641.14143","312407.86716","313174.527344","313941.08612","314708.270971","315474.815524","301658.397623","305524.507696","306291.013912","307057.955753","307824.579146","308591.175331","309358.448915","310125.06427","310874.330988","314718.314462","Mapping"
"Blocked","m150","cave","7","m150depth.wav","None","720.783519093","181","304775.021155","311641.14143","312407.86716","313174.527344","313941.08612","314708.270971","315474.815524","316224.772627","305524.507696","306291.013912","307057.955753","307824.579146","308591.175331","309358.448915","310125.06427","310874.330988","315484.47224","Mapping"
"Blocked","m150","done","23","m150bluff.wav","None","736.176943872","181","319358.089347","311641.14143","312407.86716","313174.527344","313941.08612","314708.270971","315474.815524","316224.772627","305524.507696","306291.013912","307057.955753","307824.579146","308591.175331","309358.448915","310125.06427","310874.330988","316233.809759","Mapping"
"Blocked","m150","done","23","m150cave.wav","None","719.445726834","181","319358.089347","311641.14143","312407.86716","313174.527344","313941.08612","314708.270971","315474.815524","316224.772627","320107.64236","306291.013912","307057.955753","307824.579146","308591.175331","309358.448915","310125.06427","310874.330988","319367.947644","Mapping"
"Blocked","m150","done","23","m150knife.wav","None","735.212941188","181","319358.089347","311641.14143","312407.86716","313174.527344","313941.08612","314708.270971","315474.815524","316224.772627","320107.64236","320874.570597","307057.955753","307824.579146","308591.175331","309358.448915","310125.06427","310874.330988","320116.681966","Mapping"
"Blocked","m150","done","23","m150cling.wav","None","732.938663568","181","319358.089347","311641.14143","312407.86716","313174.527344","313941.08612","314708.270971","315474.815524","316224.772627","320107.64236","320874.570597","321641.00323","307824.579146","308591.175331","309358.448915","310125.06427","310874.330988","320883.629681","Mapping"
"Blocked","m150","done","23","m150tile.wav","None","731.249032076","181","319358.089347","311641.14143","312407.86716","313174.527344","313941.08612","314708.270971","315474.815524","316224.772627","320107.64236","320874.570597","321641.00323","322407.69124","308591.175331","309358.448915","310125.06427","310874.330988","321649.92164","Mapping"
"Blocked","m150","done","23","m150romp.wav","None","728.882311378","181","319358.089347","311641.14143","312407.86716","313174.527344","313941.08612","314708.270971","315474.815524","316224.772627","320107.64236","320874.570597","321641.00323","322407.69124","323174.292063","309358.448915","310125.06427","310874.330988","322417.042802","Mapping"
"Blocked","m150","done","23","m150done.wav","None","727.099927608","181","319358.089347","311641.14143","312407.86716","313174.527344","313941.08612","314708.270971","315474.815524","316224.772627","320107.64236","320874.570597","321641.00323","322407.69124","323174.292063","323940.858259","310125.06427","310874.330988","323183.383301","Mapping"
"Blocked","m150","done","23","m150romp.wav","space","471.963401418","181","319358.089347","311641.14143","312407.86716","313174.527344","313941.08612","314708.270971","315474.815524","316224.772627","320107.64236","320874.570597","321641.00323","322407.69124","323174.292063","323940.858259","324707.886359","310874.330988","323949.840358","Mapping"
"Blocked","m150","done","23","m150done.wav","None","720.930685289","181","319358.089347","311641.14143","312407.86716","313174.527344","313941.08612","314708.270971","315474.815524","316224.772627","320107.64236","320874.570597","321641.00323","322407.69124","323174.292063","323940.858259","324707.886359","325474.894982","324718.075162","Mapping"
"Blocked","m150","done","23","m150jolt.wav","space","505.176950712","181","319358.089347","326224.252597","312407.86716","313174.527344","313941.08612","314708.270971","315474.815524","316224.772627","320107.64236","320874.570597","321641.00323","322407.69124","323174.292063","323940.858259","324707.886359","325474.894982","325484.607967","Mapping"
"Blocked","m150","done","23","m150reek.wav","None","733.475697227","181","319358.089347","326224.252597","326990.878154","313174.527344","313941.08612","314708.270971","315474.815524","316224.772627","320107.64236","320874.570597","321641.00323","322407.69124","323174.292063","323940.858259","324707.886359","325474.894982","326233.664757","Mapping"
"Blocked","m150","done","23","m150done.wav","None","732.067413628","181","319358.089347","326224.252597","326990.878154","327757.660462","313941.08612","314708.270971","315474.815524","316224.772627","320107.64236","320874.570597","321641.00323","322407.69124","323174.292063","323940.858259","324707.886359","325474.894982","326999.840776","Mapping"
"Blocked","m150","done","23","m150depth.wav","space","390.464727301","181","319358.089347","326224.252597","326990.878154","327757.660462","328524.189557","314708.270971","315474.815524","316224.772627","320107.64236","320874.570597","321641.00323","322407.69124","323174.292063","323940.858259","324707.886359","325474.894982","327767.210513","Mapping"
"Blocked","m150","done","23","m150gnash.wav","None","726.925244555","181","319358.089347","326224.252597","326990.878154","327757.660462","328524.189557","329290.606422","315474.815524","316224.772627","320107.64236","320874.570597","321641.00323","322407.69124","323174.292063","323940.858259","324707.886359","325474.894982","328533.266882","Mapping"
"Blocked","m150","done","23","m150done.wav","None","725.302394945","181","319358.089347","326224.252597","326990.878154","327757.660462","328524.189557","329290.606422","330057.849397","316224.772627","320107.64236","320874.570597","321641.00323","322407.69124","323174.292063","323940.858259","324707.886359","325474.894982","329299.459905","Mapping"
"Blocked","m150","done","23","m150dime.wav","space","490.076313261","181","319358.089347","326224.252597","326990.878154","327757.660462","328524.189557","329290.606422","330057.849397","330824.452076","320107.64236","320874.570597","321641.00323","322407.69124","323174.292063","323940.858259","324707.886359","325474.894982","330067.581552","Mapping"
"Blocked","m150","cave","10","m150romp.wav","None","719.095433597","181","333940.721913","326224.252597","326990.878154","327757.660462","328524.189557","329290.606422","330057.849397","330824.452076","320107.64236","320874.570597","321641.00323","322407.69124","323174.292063","323940.858259","324707.886359","325474.894982","330834.38581","Mapping"
"Blocked","m150","cave","10","m150cave.wav","None","721.570673864","181","333940.721913","326224.252597","326990.878154","327757.660462","328524.189557","329290.606422","330057.849397","330824.452076","334690.33707","320874.570597","321641.00323","322407.69124","323174.292063","323940.858259","324707.886359","325474.894982","333949.375053","Mapping"
"Blocked","m150","cave","10","m150reek.wav","space","554.015804082","181","333940.721913","326224.252597","326990.878154","327757.660462","328524.189557","329290.606422","330057.849397","330824.452076","334690.33707","335457.307046","321641.00323","322407.69124","323174.292063","323940.858259","324707.886359","325474.894982","334699.564653","Mapping"
"Blocked","m150","cave","10","m150depth.wav","None","733.026158996","181","333940.721913","326224.252597","326990.878154","327757.660462","328524.189557","329290.606422","330057.849397","330824.452076","334690.33707","335457.307046","336223.796567","322407.69124","323174.292063","323940.858259","324707.886359","325474.894982","335466.146308","Mapping"
"Blocked","m150","cave","10","m150cad.wav","None","731.347348541","181","333940.721913","326224.252597","326990.878154","327757.660462","328524.189557","329290.606422","330057.849397","330824.452076","334690.33707","335457.307046","336223.796567","336990.48334","323174.292063","323940.858259","324707.886359","325474.894982","336232.564101","Mapping"
"Blocked","m150","cave","10","m150cad.wav","None","729.286091402","181","333940.721913","326224.252597","326990.878154","327757.660462","328524.189557","329290.606422","330057.849397","330824.452076","334690.33707","335457.307046","336223.796567","336990.48334","337757.203195","323940.858259","324707.886359","325474.894982","336999.290757","Mapping"
"Blocked","m150","cave","10","m150cling.wav","None","727.349121124","181","333940.721913","326224.252597","326990.878154","327757.660462","328524.189557","329290.606422","330057.849397","330824.452076","334690.33707","335457.307046","336223.796567","336990.48334","337757.203195","338523.979937","324707.886359","325474.894982","337766.117277","Mapping"
"Blocked","m150","cave","10","m150cave.wav","None","725.47800513","181","333940.721913","326224.252597","326990.878154","327757.660462","328524.189557","329290.606422","330057.849397","330824.452076","334690.33707","335457.307046","336223.796567","336990.48334","337757.203195","338523.979937","339291.024115","325474.894982","338532.920299","Mapping"
"Blocked","m150","cave","10","m150jolt.wav","space","553.002952598","181","333940.721913","326224.252597","326990.878154","327757.660462","328524.189557","329290.606422","330057.849397","330824.452076","334690.33707","335457.307046","336223.796567","336990.48334","337757.203195","338523.979937","339291.024115","340057.75881","339300.492544","Mapping"
"Blocked","m150","cave","10","m150lash.wav","None","718.851496","181","333940.721913","340807.117662","326990.878154","327757.660462","328524.189557","329290.606422","330057.849397","330824.452076","334690.33707","335457.307046","336223.796567","336990.48334","337757.203195","338523.979937","339291.024115","340057.75881","340067.858262","Mapping"
"Blocked","m150","cave","10","m150cave.wav","None","735.893122386","181","333940.721913","340807.117662","341574.010035","327757.660462","328524.189557","329290.606422","330057.849397","330824.452076","334690.33707","335457.307046","336223.796567","336990.48334","337757.203195","338523.979937","339291.024115","340057.75881","340816.154486","Mapping"
"Blocked","m150","cave","10","m150priest.wav","space","558.326606173","181","333940.721913","340807.117662","341574.010035","342340.740402","328524.189557","329290.606422","330057.849397","330824.452076","334690.33707","335457.307046","336223.796567","336990.48334","337757.203195","338523.979937","339291.024115","340057.75881","341583.149195","Mapping"
"Blocked","m150","cave","10","m150cave.wav","None","730.190422852","181","333940.721913","340807.117662","341574.010035","342340.740402","343107.23858","329290.606422","330057.849397","330824.452076","334690.33707","335457.307046","336223.796567","336990.48334","337757.203195","338523.979937","339291.024115","340057.75881","342349.776298","Mapping"
"Blocked","m150","cave","10","m150greet.wav","space","681.190490257","181","333940.721913","340807.117662","341574.010035","342340.740402","343107.23858","343873.8629","330057.849397","330824.452076","334690.33707","335457.307046","336223.796567","336990.48334","337757.203195","338523.979937","339291.024115","340057.75881","343116.254688","Mapping"
"Blocked","m150","cave","10","m150reek.wav","None","725.328055676","181","333940.721913","340807.117662","341574.010035","342340.740402","343107.23858","343873.8629","344640.953453","330824.452076","334690.33707","335457.307046","336223.796567","336990.48334","337757.203195","338523.979937","339291.024115","340057.75881","343883.111198","Mapping"
"Blocked","m150","cave","10","m150romp.wav","None","723.001836799","181","333940.721913","340807.117662","341574.010035","342340.740402","343107.23858","343873.8629","344640.953453","345407.672999","334690.33707","335457.307046","336223.796567","336990.48334","337757.203195","338523.979937","339291.024115","340057.75881","344650.38169","Mapping"
"Blocked","m150","done","22","m150dime.wav","None","720.847517718","181","348524.145963","340807.117662","341574.010035","342340.740402","343107.23858","343873.8629","344640.953453","345407.672999","334690.33707","335457.307046","336223.796567","336990.48334","337757.203195","338523.979937","339291.024115","340057.75881","345417.263861","Mapping"
"Blocked","m150","done","22","m150reek.wav","None","725.567665417","181","348524.145963","340807.117662","341574.010035","342340.740402","343107.23858","343873.8629","344640.953453","345407.672999","349273.423193","335457.307046","336223.796567","336990.48334","337757.203195","338523.979937","339291.024115","340057.75881","348528.234779","Mapping"
"Blocked","m150","done","22","m150done.wav","None","736.346370541","181","348524.145963","340807.117662","341574.010035","342340.740402","343107.23858","343873.8629","344640.953453","345407.672999","349273.423193","350040.531988","336223.796567","336990.48334","337757.203195","338523.979937","339291.024115","340057.75881","349282.333256","Mapping"
"Blocked","m150","done","22","m150ball.wav","space","459.779503755","181","348524.145963","340807.117662","341574.010035","342340.740402","343107.23858","343873.8629","344640.953453","345407.672999","349273.423193","350040.531988","350807.179806","336990.48334","337757.203195","338523.979937","339291.024115","340057.75881","350049.507905","Mapping"
"Blocked","m150","done","22","m150gnash.wav","None","730.633159168","181","348524.145963","340807.117662","341574.010035","342340.740402","343107.23858","343873.8629","344640.953453","345407.672999","349273.423193","350040.531988","350807.179806","351574.127521","337757.203195","338523.979937","339291.024115","340057.75881","350816.195915","Mapping"
"Blocked","m150","done","22","m150park.wav","None","728.253761772","181","348524.145963","340807.117662","341574.010035","342340.740402","343107.23858","343873.8629","344640.953453","345407.672999","349273.423193","350040.531988","350807.179806","351574.127521","352340.465238","338523.979937","339291.024115","340057.75881","351583.434253","Mapping"
"Blocked","m150","done","22","m150done.wav","None","727.113530971","181","348524.145963","340807.117662","341574.010035","342340.740402","343107.23858","343873.8629","344640.953453","345407.672999","349273.423193","350040.531988","350807.179806","351574.127521","352340.465238","353106.909928","339291.024115","340057.75881","352349.541017","Mapping"
"Blocked","m150","done","22","m150ball.wav","space","473.390853964","181","348524.145963","340807.117662","341574.010035","342340.740402","343107.23858","343873.8629","344640.953453","345407.672999","349273.423193","350040.531988","350807.179806","351574.127521","352340.465238","353106.909928","353874.163725","340057.75881","353115.863275","Mapping"
"Blocked","m150","done","22","m150done.wav","None","721.374657936","181","348524.145963","340807.117662","341574.010035","342340.740402","343107.23858","343873.8629","344640.953453","345407.672999","349273.423193","350040.531988","350807.179806","351574.127521","352340.465238","353106.909928","353874.163725","354640.713535","353883.577431","Mapping"
"Blocked","m150","done","22","m150greet.wav","space","594.628486782","181","348524.145963","355390.051672","341574.010035","342340.740402","343107.23858","343873.8629","344640.953453","345407.672999","349273.423193","350040.531988","350807.179806","351574.127521","352340.465238","353106.909928","353874.163725","354640.713535","354650.582653","Mapping"
"Blocked","m150","done","22","m150done.wav","None","735.195627902","181","348524.145963","355390.051672","356157.085647","342340.740402","343107.23858","343873.8629","344640.953453","345407.672999","349273.423193","350040.531988","350807.179806","351574.127521","352340.465238","353106.909928","353874.163725","354640.713535","355398.979667","Mapping"
"Blocked","m150","done","22","m150lash.wav","space","479.063254781","181","348524.145963","355390.051672","356157.085647","356923.718006","343107.23858","343873.8629","344640.953453","345407.672999","349273.423193","350040.531988","350807.179806","351574.127521","352340.465238","353106.909928","353874.163725","354640.713535","356166.154624","Mapping"
"Blocked","m150","done","22","m150knife.wav","None","729.86610001","181","348524.145963","355390.051672","356157.085647","356923.718006","357690.272762","343873.8629","344640.953453","345407.672999","349273.423193","350040.531988","350807.179806","351574.127521","352340.465238","353106.909928","353874.163725","354640.713535","356932.787293","Mapping"
"Blocked","m150","done","22","m150depth.wav","None","727.546683047","181","348524.145963","355390.051672","356157.085647","356923.718006","357690.272762","358457.146276","344640.953453","345407.672999","349273.423193","350040.531988","350807.179806","351574.127521","352340.465238","353106.909928","353874.163725","354640.713535","357699.891759","Mapping"
"Blocked","m150","done","22","m150park.wav","None","726.461793762","181","348524.145963","355390.051672","356157.085647","356923.718006","357690.272762","358457.146276","359224.055963","345407.672999","349273.423193","350040.531988","350807.179806","351574.127521","352340.465238","353106.909928","353874.163725","354640.713535","358466.140743","Mapping"
"Blocked","m150","done","22","m150lash.wav","None","723.846807145","181","348524.145963","355390.051672","356157.085647","356923.718006","357690.272762","358457.146276","359224.055963","359990.634526","349273.423193","350040.531988","350807.179806","351574.127521","352340.465238","353106.909928","353874.163725","354640.713535","359233.699693","Mapping"
"Blocked","m150","tile","13","m150cave.wav","None","722.107707988","181","363123.911363","355390.051672","356157.085647","356923.718006","357690.272762","358457.146276","359224.055963","359990.634526","349273.423193","350040.531988","350807.179806","351574.127521","352340.465238","353106.909928","353874.163725","354640.713535","360000.4078","Mapping"
"Blocked","m150","tile","13","m150ball.wav","None","719.936384354","181","363123.911363","355390.051672","356157.085647","356923.718006","357690.272762","358457.146276","359224.055963","359990.634526","363873.423874","350040.531988","350807.179806","351574.127521","352340.465238","353106.909928","353874.163725","354640.713535","363133.598068","Mapping"
"Blocked","m150","tile","13","m150park.wav","None","736.221155152","181","363123.911363","355390.051672","356157.085647","356923.718006","357690.272762","358457.146276","359224.055963","359990.634526","363873.423874","364640.140018","350807.179806","351574.127521","352340.465238","353106.909928","353874.163725","354640.713535","363882.349704","Mapping"
"Blocked","m150","tile","13","m150tile.wav","None","734.478036873","181","363123.911363","355390.051672","356157.085647","356923.718006","357690.272762","358457.146276","359224.055963","359990.634526","363873.423874","364640.140018","365406.967157","351574.127521","352340.465238","353106.909928","353874.163725","354640.713535","364649.149016","Mapping"
"Blocked","m150","tile","13","m150dime.wav","space","468.729140237","181","363123.911363","355390.051672","356157.085647","356923.718006","357690.272762","358457.146276","359224.055963","359990.634526","363873.423874","364640.140018","365406.967157","366173.640635","352340.465238","353106.909928","353874.163725","354640.713535","365416.324283","Mapping"
"Blocked","m150","tile","13","m150tile.wav","None","729.472831823","181","363123.911363","355390.051672","356157.085647","356923.718006","357690.272762","358457.146276","359224.055963","359990.634526","363873.423874","364640.140018","365406.967157","366173.640635","366940.141595","353106.909928","353874.163725","354640.713535","366182.79278","Mapping"
"Blocked","m150","tile","13","m150romp.wav","space","615.957417991","181","363123.911363","355390.051672","356157.085647","356923.718006","357690.272762","358457.146276","359224.055963","359990.634526","363873.423874","364640.140018","365406.967157","366173.640635","366940.141595","367706.899788","353874.163725","354640.713535","366949.047639","Mapping"
"Blocked","m150","tile","13","m150dime.wav","None","725.298993289","181","363123.911363","355390.051672","356157.085647","356923.718006","357690.272762","358457.146276","359224.055963","359990.634526","363873.423874","364640.140018","365406.967157","366173.640635","366940.141595","367706.899788","368473.899444","354640.713535","367715.884361","Mapping"
"Blocked","m150","tile","13","m150depth.wav","None","722.673185635","181","363123.911363","355390.051672","356157.085647","356923.718006","357690.272762","358457.146276","359224.055963","359990.634526","363873.423874","364640.140018","365406.967157","366173.640635","366940.141595","367706.899788","368473.899444","369240.440288","368483.556469","Mapping"
"Blocked","m150","tile","13","m150knife.wav","None","721.112479456","181","363123.911363","370007.247948","356157.085647","356923.718006","357690.272762","358457.146276","359224.055963","359990.634526","363873.423874","364640.140018","365406.967157","366173.640635","366940.141595","367706.899788","368473.899444","369240.440288","369250.182026","Mapping"
"Blocked","m150","tile","13","m150tile.wav","None","719.50292401","181","363123.911363","370007.247948","370756.609892","356923.718006","357690.272762","358457.146276","359224.055963","359990.634526","363873.423874","364640.140018","365406.967157","366173.640635","366940.141595","367706.899788","368473.899444","369240.440288","370016.80851","Mapping"
"Blocked","m150","tile","13","m150reek.wav","space","502.632455435","181","363123.911363","370007.247948","370756.609892","371523.100649","357690.272762","358457.146276","359224.055963","359990.634526","363873.423874","364640.140018","365406.967157","366173.640635","366940.141595","367706.899788","368473.899444","369240.440288","370766.313601","Mapping"
"Blocked","m150","tile","13","m150lash.wav","None","733.260512818","181","363123.911363","370007.247948","370756.609892","371523.100649","372290.146063","358457.146276","359224.055963","359990.634526","363873.423874","364640.140018","365406.967157","366173.640635","366940.141595","367706.899788","368473.899444","369240.440288","371531.798","Mapping"
"Blocked","m150","tile","13","m150gnash.wav","None","730.754664168","181","363123.911363","370007.247948","370756.609892","371523.100649","372290.146063","373056.615178","359224.055963","359990.634526","363873.423874","364640.140018","365406.967157","366173.640635","366940.141595","367706.899788","368473.899444","369240.440288","372299.14393","Mapping"
"Blocked","m150","tile","13","m150tile.wav","None","729.330612347","181","363123.911363","370007.247948","370756.609892","371523.100649","372290.146063","373056.615178","373823.132216","359990.634526","363873.423874","364640.140018","365406.967157","366173.640635","366940.141595","367706.899788","368473.899444","369240.440288","373065.460623","Mapping"
"Blocked","m150","tile","13","m150lash.wav","space","476.824531797","181","363123.911363","370007.247948","370756.609892","371523.100649","372290.146063","373056.615178","373823.132216","374590.371172","363873.423874","364640.140018","365406.967157","366173.640635","366940.141595","367706.899788","368473.899444","369240.440288","373832.072886","Mapping"
"Blocked","m150","ball","1","m150park.wav","None","723.899366334","181","377706.978009","370007.247948","370756.609892","371523.100649","372290.146063","373056.615178","373823.132216","374590.371172","363873.423874","364640.140018","365406.967157","366173.640635","366940.141595","367706.899788","368473.899444","369240.440288","374599.902673","Mapping"
"Blocked","m150","ball","1","m150dime.wav","None","720.673144329","181","377706.978009","370007.247948","370756.609892","371523.100649","372290.146063","373056.615178","373823.132216","374590.371172","378473.628299","364640.140018","365406.967157","366173.640635","366940.141595","367706.899788","368473.899444","369240.440288","377716.633178","Mapping"
"Blocked","m150","ball","1","m150cad.wav","None","719.321439043","181","377706.978009","370007.247948","370756.609892","371523.100649","372290.146063","373056.615178","373823.132216","374590.371172","378473.628299","379223.21223","365406.967157","366173.640635","366940.141595","367706.899788","368473.899444","369240.440288","378483.049425","Mapping"
"Blocked","m150","ball","1","m150ball.wav","None","735.35887152","181","377706.978009","370007.247948","370756.609892","371523.100649","372290.146063","373056.615178","373823.132216","374590.371172","378473.628299","379223.21223","379989.853863","366173.640635","366940.141595","367706.899788","368473.899444","369240.440288","379232.047472","Mapping"
"Blocked","m150","ball","1","m150jaw.wav","space","429.073658306","181","377706.978009","370007.247948","370756.609892","371523.100649","372290.146063","373056.615178","373823.132216","374590.371172","378473.628299","379223.21223","379989.853863","380756.674199","366940.141595","367706.899788","368473.899444","369240.440288","380007.683882","Mapping"
"Blocked","m150","ball","1","m150ball.wav","None","729.972456116","181","377706.978009","370007.247948","370756.609892","371523.100649","372290.146063","373056.615178","373823.132216","374590.371172","378473.628299","379223.21223","379989.853863","380756.674199","381523.228955","367706.899788","368473.899444","369240.440288","380766.184985","Mapping"
"Blocked","m150","ball","1","m150bluff.wav","space","479.592558928","181","377706.978009","370007.247948","370756.609892","371523.100649","372290.146063","373056.615178","373823.132216","374590.371172","378473.628299","379223.21223","379989.853863","380756.674199","381523.228955","382289.901816","368473.899444","369240.440288","381533.168565","Mapping"
"Blocked","m150","ball","1","m150greet.wav","None","725.320635829","181","377706.978009","370007.247948","370756.609892","371523.100649","372290.146063","373056.615178","373823.132216","374590.371172","378473.628299","379223.21223","379989.853863","380756.674199","381523.228955","382289.901816","383057.107691","369240.440288","382299.555131","Mapping"
"Blocked","m150","ball","1","m150park.wav","None","723.335434683","181","377706.978009","370007.247948","370756.609892","371523.100649","372290.146063","373056.615178","373823.132216","374590.371172","378473.628299","379223.21223","379989.853863","380756.674199","381523.228955","382289.901816","383057.107691","383823.680379","383066.629916","Mapping"
"Blocked","m150","ball","1","m150ball.wav","None","722.274970263","181","377706.978009","384590.33067","370756.609892","371523.100649","372290.146063","373056.615178","373823.132216","374590.371172","378473.628299","379223.21223","379989.853863","380756.674199","381523.228955","382289.901816","383057.107691","383823.680379","383833.345443","Mapping"
"Blocked","m150","ball","1","m150lash.wav","space","459.798053838","181","377706.978009","384590.33067","385339.364272","371523.100649","372290.146063","373056.615178","373823.132216","374590.371172","378473.628299","379223.21223","379989.853863","380756.674199","381523.228955","382289.901816","383057.107691","383823.680379","384600.886771","Mapping"
"Blocked","m150","ball","1","m150greet.wav","None","735.416686628","181","377706.978009","384590.33067","385339.364272","386106.426691","372290.146063","373056.615178","373823.132216","374590.371172","378473.628299","379223.21223","379989.853863","380756.674199","381523.228955","382289.901816","383057.107691","383823.680379","385348.865164","Mapping"
"Blocked","m150","ball","1","m150reek.wav","None","733.713451307","181","377706.978009","384590.33067","385339.364272","386106.426691","386873.14098","373056.615178","373823.132216","374590.371172","378473.628299","379223.21223","379989.853863","380756.674199","381523.228955","382289.901816","383057.107691","383823.680379","386115.686737","Mapping"
"Blocked","m150","ball","1","m150ball.wav","None","731.874180026","181","377706.978009","384590.33067","385339.364272","386106.426691","386873.14098","387639.799928","373823.132216","374590.371172","378473.628299","379223.21223","379989.853863","380756.674199","381523.228955","382289.901816","383057.107691","383823.680379","386882.348777","Mapping"
"Blocked","m150","ball","1","m150cad.wav","space","507.58510083","181","377706.978009","384590.33067","385339.364272","386106.426691","386873.14098","387639.799928","388406.544208","374590.371172","378473.628299","379223.21223","379989.853863","380756.674199","381523.228955","382289.901816","383057.107691","383823.680379","387649.038333","Mapping"
"Blocked","m150","ball","1","m150jaw.wav","None","726.992026437","181","377706.978009","384590.33067","385339.364272","386106.426691","386873.14098","387639.799928","388406.544208","389173.188624","378473.628299","379223.21223","379989.853863","380756.674199","381523.228955","382289.901816","383057.107691","383823.680379","388415.936889","Mapping"
"Blocked","m150","tile","15","m150gnash.wav","None","725.195111707","181","392306.836778","384590.33067","385339.364272","386106.426691","386873.14098","387639.799928","388406.544208","389173.188624","378473.628299","379223.21223","379989.853863","380756.674199","381523.228955","382289.901816","383057.107691","383823.680379","389182.799582","Mapping"
"Blocked","m150","tile","15","m150priest.wav","None","720.112303738","181","392306.836778","384590.33067","385339.364272","386106.426691","386873.14098","387639.799928","388406.544208","389173.188624","393072.852336","379223.21223","379989.853863","380756.674199","381523.228955","382289.901816","383057.107691","383823.680379","392317.050315","Mapping"
"Blocked","m150","tile","15","m150romp.wav","None","720.313575584","181","392306.836778","384590.33067","385339.364272","386106.426691","386873.14098","387639.799928","388406.544208","389173.188624","393072.852336","393822.883949","379989.853863","380756.674199","381523.228955","382289.901816","383057.107691","383823.680379","393082.011283","Mapping"
"Blocked","m150","tile","15","m150cad.wav","None","735.721840523","181","392306.836778","384590.33067","385339.364272","386106.426691","386873.14098","387639.799928","388406.544208","389173.188624","393072.852336","393822.883949","394589.537332","380756.674199","381523.228955","382289.901816","383057.107691","383823.680379","393832.077524","Mapping"
"Blocked","m150","tile","15","m150cling.wav","None","734.287276864","181","392306.836778","384590.33067","385339.364272","386106.426691","386873.14098","387639.799928","388406.544208","389173.188624","393072.852336","393822.883949","394589.537332","395356.458458","381523.228955","382289.901816","383057.107691","383823.680379","394598.875908","Mapping"
"Blocked","m150","tile","15","m150tile.wav","None","732.771091629","181","392306.836778","384590.33067","385339.364272","386106.426691","386873.14098","387639.799928","388406.544208","389173.188624","393072.852336","393822.883949","394589.537332","395356.458458","396123.074122","382289.901816","383057.107691","383823.680379","395365.788069","Mapping"
"Blocked","m150","tile","15","m150cling.wav","space","527.698363177","181","392306.836778","384590.33067","385339.364272","386106.426691","386873.14098","387639.799928","388406.544208","389173.188624","393072.852336","393822.883949","394589.537332","395356.458458","396123.074122","396889.802324","383057.107691","383823.680379","396132.810295","Mapping"
"Blocked","m150","tile","15","m150jolt.wav","None","728.041978553","181","392306.836778","384590.33067","385339.364272","386106.426691","386873.14098","387639.799928","388406.544208","389173.188624","393072.852336","393822.883949","394589.537332","395356.458458","396123.074122","396889.802324","397656.374394","383823.680379","396899.407408","Mapping"
"Blocked","m150","tile","15","m150greet.wav","None","727.29439754","181","392306.836778","384590.33067","385339.364272","386106.426691","386873.14098","387639.799928","388406.544208","389173.188624","393072.852336","393822.883949","394589.537332","395356.458458","396123.074122","396889.802324","397656.374394","398422.984183","397665.583118","Mapping"
"Blocked","m150","tile","15","m150tile.wav","None","725.502429996","181","392306.836778","399189.91644","385339.364272","386106.426691","386873.14098","387639.799928","388406.544208","389173.188624","393072.852336","393822.883949","394589.537332","395356.458458","396123.074122","396889.802324","397656.374394","398422.984183","398432.532997","Mapping"
"Blocked","m150","tile","15","m150dime.wav","space","484.504084568","181","392306.836778","399189.91644","399956.554364","386106.426691","386873.14098","387639.799928","388406.544208","389173.188624","393072.852336","393822.883949","394589.537332","395356.458458","396123.074122","396889.802324","397656.374394","398422.984183","399199.938289","Mapping"
"Blocked","m150","tile","15","m150greet.wav","None","720.444046892","181","392306.836778","399189.91644","399956.554364","400723.269581","386873.14098","387639.799928","388406.544208","389173.188624","393072.852336","393822.883949","394589.537332","395356.458458","396123.074122","396889.802324","397656.374394","398422.984183","399966.536639","Mapping"
"Blocked","m150","tile","15","m150tile.wav","None","719.169944059","181","392306.836778","399189.91644","399956.554364","400723.269581","401472.499508","387639.799928","388406.544208","389173.188624","393072.852336","393822.883949","394589.537332","395356.458458","396123.074122","396889.802324","397656.374394","398422.984183","400733.112419","Mapping"
"Blocked","m150","tile","15","m150cave.wav","space","538.850858808","181","392306.836778","399189.91644","399956.554364","400723.269581","401472.499508","402239.347051","388406.544208","389173.188624","393072.852336","393822.883949","394589.537332","395356.458458","396123.074122","396889.802324","397656.374394","398422.984183","401481.556737","Mapping"
"Blocked","m150","tile","15","m150tile.wav","None","733.061096165","181","392306.836778","399189.91644","399956.554364","400723.269581","401472.499508","402239.347051","403006.270342","389173.188624","393072.852336","393822.883949","394589.537332","395356.458458","396123.074122","396889.802324","397656.374394","398422.984183","402248.343373","Mapping"
"Blocked","m150","tile","15","m150reek.wav","space","468.714609277","181","392306.836778","399189.91644","399956.554364","400723.269581","401472.499508","402239.347051","403006.270342","403772.87302","393072.852336","393822.883949","394589.537332","395356.458458","396123.074122","396889.802324","397656.374394","398422.984183","403015.642618","Mapping"
"Blocked","m150","done","24","m150cad.wav","None","727.943970356","181","406906.613926","399189.91644","399956.554364","400723.269581","401472.499508","402239.347051","403006.270342","403772.87302","393072.852336","393822.883949","394589.537332","395356.458458","396123.074122","396889.802324","397656.374394","398422.984183","403782.239422","Mapping"
"Blocked","m150","done","24","m150ball.wav","None","720.102101099","181","406906.613926","399189.91644","399956.554364","400723.269581","401472.499508","402239.347051","403006.270342","403772.87302","407673.259579","393822.883949","394589.537332","395356.458458","396123.074122","396889.802324","397656.374394","398422.984183","406916.679369","Mapping"
"Blocked","m150","done","24","m150ball.wav","None","719.053385779","181","406906.613926","399189.91644","399956.554364","400723.269581","401472.499508","402239.347051","403006.270342","403772.87302","407673.259579","408422.579476","394589.537332","395356.458458","396123.074122","396889.802324","397656.374394","398422.984183","407683.008119","Mapping"
"Blocked","m150","done","24","m150done.wav","None","735.79696985","181","406906.613926","399189.91644","399956.554364","400723.269581","401472.499508","402239.347051","403006.270342","403772.87302","407673.259579","408422.579476","409189.035915","395356.458458","396123.074122","396889.802324","397656.374394","398422.984183","408431.487992","Mapping"
"Blocked","m150","done","24","m150lash.wav","space","446.10477332","181","406906.613926","399189.91644","399956.554364","400723.269581","401472.499508","402239.347051","403006.270342","403772.87302","407673.259579","408422.579476","409189.035915","409956.180264","396123.074122","396889.802324","397656.374394","398422.984183","409198.156833","Mapping"
"Blocked","m150","done","24","m150tile.wav","None","730.331405997","181","406906.613926","399189.91644","399956.554364","400723.269581","401472.499508","402239.347051","403006.270342","403772.87302","407673.259579","408422.579476","409189.035915","409956.180264","410722.678133","396889.802324","397656.374394","398422.984183","409965.796787","Mapping"
"Blocked","m150","done","24","m150done.wav","None","728.699280415","181","406906.613926","399189.91644","399956.554364","400723.269581","401472.499508","402239.347051","403006.270342","403772.87302","407673.259579","408422.579476","409189.035915","409956.180264","410722.678133","411489.297197","397656.374394","398422.984183","410732.596409","Mapping"
"Blocked","m150","done","24","m150jaw.wav","space","585.833745543","181","406906.613926","399189.91644","399956.554364","400723.269581","401472.499508","402239.347051","403006.270342","403772.87302","407673.259579","408422.579476","409189.035915","409956.180264","410722.678133","411489.297197","412256.700324","398422.984183","411498.385962","Mapping"
"Blocked","m150","done","24","m150cling.wav","None","723.087787163","181","406906.613926","399189.91644","399956.554364","400723.269581","401472.499508","402239.347051","403006.270342","403772.87302","407673.259579","408422.579476","409189.035915","409956.180264","410722.678133","411489.297197","412256.700324","413022.991047","412267.057627","Mapping"
"Blocked","m150","done","24","m150reek.wav","None","722.574250307","181","406906.613926","413789.631444","399956.554364","400723.269581","401472.499508","402239.347051","403006.270342","403772.87302","407673.259579","408422.579476","409189.035915","409956.180264","410722.678133","411489.297197","412256.700324","413022.991047","413032.796784","Mapping"
"Blocked","m150","done","24","m150done.wav","None","721.507293638","181","406906.613926","413789.631444","414556.472186","400723.269581","401472.499508","402239.347051","403006.270342","403772.87302","407673.259579","408422.579476","409189.035915","409956.180264","410722.678133","411489.297197","412256.700324","413022.991047","413799.037111","Mapping"
"Blocked","m150","done","24","m150depth.wav","space","453.816789668","181","406906.613926","413789.631444","414556.472186","415306.025199","401472.499508","402239.347051","403006.270342","403772.87302","407673.259579","408422.579476","409189.035915","409956.180264","410722.678133","411489.297197","412256.700324","413022.991047","414566.350578","Mapping"
"Blocked","m150","done","24","m150done.wav","None","733.995726798","181","406906.613926","413789.631444","414556.472186","415306.025199","416072.627567","402239.347051","403006.270342","403772.87302","407673.259579","408422.579476","409189.035915","409956.180264","410722.678133","411489.297197","412256.700324","413022.991047","415315.384799","Mapping"
