"Condition","Talker","Target","Trial","current_stimulus","response_response","response_time_response","subject_nr","time_Audio1","time_Audio10","time_Audio11","time_Audio12","time_Audio13","time_Audio14","time_Audio15","time_Audio16","time_Audio2","time_Audio3","time_Audio4","time_Audio5","time_Audio6","time_Audio7","time_Audio8","time_Audio9","time_response","title"
"Blocked","m160","tile","15","m160jolt.wav","NA","NA","154","189701.310555","NA","NA","NA","NA","NA","NA","NA","NA","NA","NA","NA","NA","NA","NA","NA","NA","Mapping"
"Blocked","m160","tile","15","m160gnash.wav","None","719.582999591","154","189701.310555","NA","NA","NA","NA","NA","NA","NA","190468.795304","NA","NA","NA","NA","NA","NA","NA","189716.07914","Mapping"
"Blocked","m160","tile","15","m160knife.wav","None","723.621419631","154","189701.310555","NA","NA","NA","NA","NA","NA","NA","190468.795304","191234.363179","NA","NA","NA","NA","NA","NA","190478.607843","Mapping"
"Blocked","m160","tile","15","m160tile.wav","None","724.585731048","154","189701.310555","NA","NA","NA","NA","NA","NA","NA","190468.795304","191234.363179","192001.016561","NA","NA","NA","NA","NA","191244.114193","Mapping"
"Blocked","m160","tile","15","m160romp.wav","space","483.063955791","154","189701.310555","NA","NA","NA","NA","NA","NA","NA","190468.795304","191234.363179","192001.016561","192767.918519","NA","NA","NA","NA","192010.503541","Mapping"
"Blocked","m160","tile","15","m160lash.wav","None","724.609537516","154","189701.310555","NA","NA","NA","NA","NA","NA","NA","190468.795304","191234.363179","192001.016561","192767.918519","193534.979083","NA","NA","NA","192777.230816","Mapping"
"Blocked","m160","tile","15","m160tile.wav","None","723.583700601","154","189701.310555","NA","NA","NA","NA","NA","NA","NA","190468.795304","191234.363179","192001.016561","192767.918519","193534.979083","194301.614224","NA","NA","193544.692068","Mapping"
"Blocked","m160","tile","15","m160knife.wav","space","438.014638145","154","189701.310555","NA","NA","NA","NA","NA","NA","NA","190468.795304","191234.363179","192001.016561","192767.918519","193534.979083","194301.614224","195051.012651","NA","194311.533737","Mapping"
"Blocked","m160","tile","15","m160park.wav","None","734.06559974","154","189701.310555","NA","NA","NA","NA","NA","NA","NA","190468.795304","191234.363179","192001.016561","192767.918519","193534.979083","194301.614224","195051.012651","195817.892657","195060.532403","Mapping"
"Blocked","m160","tile","15","m160priest.wav","None","732.953194529","154","189701.310555","196584.484823","NA","NA","NA","NA","NA","NA","190468.795304","191234.363179","192001.016561","192767.918519","193534.979083","194301.614224","195051.012651","195817.892657","195828.034156","Mapping"
"Blocked","m160","tile","15","m160tile.wav","None","733.981195372","154","189701.310555","196584.484823","197351.392037","NA","NA","NA","NA","NA","190468.795304","191234.363179","192001.016561","192767.918519","193534.979083","194301.614224","195051.012651","195817.892657","196593.831129","Mapping"
"Blocked","m160","tile","15","m160park.wav","space","468.974933494","154","189701.310555","196584.484823","197351.392037","198118.02656","NA","NA","NA","NA","190468.795304","191234.363179","192001.016561","192767.918519","193534.979083","194301.614224","195051.012651","195817.892657","197360.537071","Mapping"
"Blocked","m160","tile","15","m160cling.wav","None","726.350182202","154","189701.310555","196584.484823","197351.392037","198118.02656","198884.508042","NA","NA","NA","190468.795304","191234.363179","192001.016561","192767.918519","193534.979083","194301.614224","195051.012651","195817.892657","198127.649885","Mapping"
"Blocked","m160","tile","15","m160ball.wav","None","726.562893949","154","189701.310555","196584.484823","197351.392037","198118.02656","198884.508042","199651.569224","NA","NA","190468.795304","191234.363179","192001.016561","192767.918519","193534.979083","194301.614224","195051.012651","195817.892657","198894.368812","Mapping"
"Blocked","m160","tile","15","m160tile.wav","None","726.647607516","154","189701.310555","196584.484823","197351.392037","198118.02656","198884.508042","199651.569224","200418.192617","NA","190468.795304","191234.363179","192001.016561","192767.918519","193534.979083","194301.614224","195051.012651","195817.892657","199660.775474","Mapping"
"Blocked","m160","tile","15","m160depth.wav","space","464.812843595","154","189701.310555","196584.484823","197351.392037","198118.02656","198884.508042","199651.569224","200418.192617","201184.952355","190468.795304","191234.363179","192001.016561","192767.918519","193534.979083","194301.614224","195051.012651","195817.892657","200428.621956","Mapping"
"Blocked","m160","ball","4","m160park.wav","None","722.648761235","154","204334.880642","196584.484823","197351.392037","198118.02656","198884.508042","199651.569224","200418.192617","201184.952355","190468.795304","191234.363179","192001.016561","192767.918519","193534.979083","194301.614224","195051.012651","195817.892657","201194.656683","Mapping"
"Blocked","m160","ball","4","m160dime.wav","None","720.194853377","154","204334.880642","196584.484823","197351.392037","198118.02656","198884.508042","199651.569224","200418.192617","201184.952355","205101.47219","191234.363179","192001.016561","192767.918519","193534.979083","194301.614224","195051.012651","195817.892657","204344.534885","Mapping"
"Blocked","m160","ball","4","m160romp.wav","None","719.928346109","154","204334.880642","196584.484823","197351.392037","198118.02656","198884.508042","199651.569224","200418.192617","201184.952355","205101.47219","205851.574913","192001.016561","192767.918519","193534.979083","194301.614224","195051.012651","195817.892657","205111.40036","Mapping"
"Blocked","m160","ball","4","m160ball.wav","None","734.023243189","154","204334.880642","196584.484823","197351.392037","198118.02656","198884.508042","199651.569224","200418.192617","201184.952355","205101.47219","205851.574913","206618.534377","192767.918519","193534.979083","194301.614224","195051.012651","195817.892657","205860.753956","Mapping"
"Blocked","m160","ball","4","m160priest.wav","space","401.117599569","154","204334.880642","196584.484823","197351.392037","198118.02656","198884.508042","199651.569224","200418.192617","201184.952355","205101.47219","205851.574913","206618.534377","207384.42472","193534.979083","194301.614224","195051.012651","195817.892657","206628.157393","Mapping"
"Blocked","m160","ball","4","m160ball.wav","None","727.185259573","154","204334.880642","196584.484823","197351.392037","198118.02656","198884.508042","199651.569224","200418.192617","201184.952355","205101.47219","205851.574913","206618.534377","207384.42472","208151.629667","194301.614224","195051.012651","195817.892657","207393.647047","Mapping"
"Blocked","m160","ball","4","m160knife.wav","space","427.425147034","154","204334.880642","196584.484823","197351.392037","198118.02656","198884.508042","199651.569224","200418.192617","201184.952355","205101.47219","205851.574913","206618.534377","207384.42472","208151.629667","208918.429598","195051.012651","195817.892657","208161.900401","Mapping"
"Blocked","m160","ball","4","m160romp.wav","None","718.410924077","154","204334.880642","196584.484823","197351.392037","198118.02656","198884.508042","199651.569224","200418.192617","201184.952355","205101.47219","205851.574913","206618.534377","207384.42472","208151.629667","208918.429598","209667.620878","195817.892657","208928.718264","Mapping"
"Blocked","m160","ball","4","m160lash.wav","None","733.754262328","154","204334.880642","196584.484823","197351.392037","198118.02656","198884.508042","199651.569224","200418.192617","201184.952355","205101.47219","205851.574913","206618.534377","207384.42472","208151.629667","208918.429598","209667.620878","210434.371959","209676.67718","Mapping"
"Blocked","m160","ball","4","m160gnash.wav","None","729.471904226","154","204334.880642","211201.198479","197351.392037","198118.02656","198884.508042","199651.569224","200418.192617","201184.952355","205101.47219","205851.574913","206618.534377","207384.42472","208151.629667","208918.429598","209667.620878","210434.371959","210444.247261","Mapping"
"Blocked","m160","ball","4","m160ball.wav","None","726.565057877","154","204334.880642","211201.198479","211968.07663","198118.02656","198884.508042","199651.569224","200418.192617","201184.952355","205101.47219","205851.574913","206618.534377","207384.42472","208151.629667","208918.429598","209667.620878","210434.371959","211210.649904","Mapping"
"Blocked","m160","ball","4","m160romp.wav","space","379.027483519","154","204334.880642","211201.198479","211968.07663","212734.603252","198884.508042","199651.569224","200418.192617","201184.952355","205101.47219","205851.574913","206618.534377","207384.42472","208151.629667","208918.429598","209667.620878","210434.371959","211978.226477","Mapping"
"Blocked","m160","ball","4","m160tile.wav","None","719.129133504","154","204334.880642","211201.198479","211968.07663","212734.603252","213484.298484","199651.569224","200418.192617","201184.952355","205101.47219","205851.574913","206618.534377","207384.42472","208151.629667","208918.429598","209667.620878","210434.371959","212744.360758","Mapping"
"Blocked","m160","ball","4","m160ball.wav","None","732.647113036","154","204334.880642","211201.198479","211968.07663","212734.603252","213484.298484","214251.126241","200418.192617","201184.952355","205101.47219","205851.574913","206618.534377","207384.42472","208151.629667","208918.429598","209667.620878","210434.371959","213494.101748","Mapping"
"Blocked","m160","ball","4","m160depth.wav","space","344.311043154","154","204334.880642","211201.198479","211968.07663","212734.603252","213484.298484","214251.126241","215017.380171","201184.952355","205101.47219","205851.574913","206618.534377","207384.42472","208151.629667","208918.429598","209667.620878","210434.371959","214260.907862","Mapping"
"Blocked","m160","ball","4","m160depth.wav","None","726.543106604","154","204334.880642","211201.198479","211968.07663","212734.603252","213484.298484","214251.126241","215017.380171","215784.565023","205101.47219","205851.574913","206618.534377","207384.42472","208151.629667","208918.429598","209667.620878","210434.371959","215026.4677","Mapping"
"Blocked","m160","ball","3","m160greet.wav","None","722.156557254","154","218901.654788","211201.198479","211968.07663","212734.603252","213484.298484","214251.126241","215017.380171","215784.565023","205101.47219","205851.574913","206618.534377","207384.42472","208151.629667","208918.429598","209667.620878","210434.371959","215794.102089","Mapping"
"Blocked","m160","ball","3","m160jaw.wav","None","722.300013527","154","218901.654788","211201.198479","211968.07663","212734.603252","213484.298484","214251.126241","215017.380171","215784.565023","219668.054648","205851.574913","206618.534377","207384.42472","208151.629667","208918.429598","209667.620878","210434.371959","218911.299755","Mapping"
"Blocked","m160","ball","3","m160ball.wav","None","728.455034085","154","218901.654788","211201.198479","211968.07663","212734.603252","213484.298484","214251.126241","215017.380171","215784.565023","219668.054648","220434.147191","206618.534377","207384.42472","208151.629667","208918.429598","209667.620878","210434.371959","219672.161705","Mapping"
"Blocked","m160","ball","3","m160jaw.wav","space","394.02640285","154","218901.654788","211201.198479","211968.07663","212734.603252","213484.298484","214251.126241","215017.380171","215784.565023","219668.054648","220434.147191","221184.162727","207384.42472","208151.629667","208918.429598","209667.620878","210434.371959","220443.046741","Mapping"
"Blocked","m160","ball","3","m160knife.wav","None","733.436432667","154","218901.654788","211201.198479","211968.07663","212734.603252","213484.298484","214251.126241","215017.380171","215784.565023","219668.054648","220434.147191","221184.162727","221951.001613","208151.629667","208918.429598","209667.620878","210434.371959","221193.438541","Mapping"
"Blocked","m160","ball","3","m160ball.wav","None","730.133225676","154","218901.654788","211201.198479","211968.07663","212734.603252","213484.298484","214251.126241","215017.380171","215784.565023","219668.054648","220434.147191","221184.162727","221951.001613","222717.460835","208918.429598","209667.620878","210434.371959","221960.167362","Mapping"
"Blocked","m160","ball","3","m160bluff.wav","space","389.928312041","154","218901.654788","211201.198479","211968.07663","212734.603252","213484.298484","214251.126241","215017.380171","215784.565023","219668.054648","220434.147191","221184.162727","221951.001613","222717.460835","223484.148226","209667.620878","210434.371959","222727.135483","Mapping"
"Blocked","m160","ball","3","m160cave.wav","None","726.471687667","154","218901.654788","211201.198479","211968.07663","212734.603252","213484.298484","214251.126241","215017.380171","215784.565023","219668.054648","220434.147191","221184.162727","221951.001613","222717.460835","223484.148226","224250.915076","210434.371959","223493.521121","Mapping"
"Blocked","m160","ball","3","m160bluff.wav","None","726.40521545","154","218901.654788","211201.198479","211968.07663","212734.603252","213484.298484","214251.126241","215017.380171","215784.565023","219668.054648","220434.147191","221184.162727","221951.001613","222717.460835","223484.148226","224250.915076","225017.978113","224260.541492","Mapping"
"Blocked","m160","ball","3","m160gnash.wav","None","722.471913788","154","218901.654788","225784.411055","211968.07663","212734.603252","213484.298484","214251.126241","215017.380171","215784.565023","219668.054648","220434.147191","221184.162727","221951.001613","222717.460835","223484.148226","224250.915076","225017.978113","225027.968117","Mapping"
"Blocked","m160","ball","3","m160ball.wav","None","719.078119844","154","218901.654788","225784.411055","226534.076297","212734.603252","213484.298484","214251.126241","215017.380171","215784.565023","219668.054648","220434.147191","221184.162727","221951.001613","222717.460835","223484.148226","224250.915076","225017.978113","225794.560592","Mapping"
"Blocked","m160","ball","3","m160priest.wav","space","421.71873711","154","218901.654788","225784.411055","226534.076297","227300.890759","213484.298484","214251.126241","215017.380171","215784.565023","219668.054648","220434.147191","221184.162727","221951.001613","222717.460835","223484.148226","224250.915076","225017.978113","226543.263997","Mapping"
"Blocked","m160","ball","3","m160cling.wav","None","729.902891908","154","218901.654788","225784.411055","226534.076297","227300.890759","228067.501166","214251.126241","215017.380171","215784.565023","219668.054648","220434.147191","221184.162727","221951.001613","222717.460835","223484.148226","224250.915076","225017.978113","227310.090826","Mapping"
"Blocked","m160","ball","3","m160lash.wav","None","726.364404894","154","218901.654788","225784.411055","226534.076297","227300.890759","228067.501166","228834.243591","215017.380171","215784.565023","219668.054648","220434.147191","221184.162727","221951.001613","222717.460835","223484.148226","224250.915076","225017.978113","228076.940224","Mapping"
"Blocked","m160","ball","3","m160ball.wav","None","721.941063181","154","218901.654788","225784.411055","226534.076297","227300.890759","228067.501166","228834.243591","229601.175538","215784.565023","219668.054648","220434.147191","221184.162727","221951.001613","222717.460835","223484.148226","224250.915076","225017.978113","228844.735384","Mapping"
"Blocked","m160","ball","3","m160gnash.wav","space","410.059506539","154","218901.654788","225784.411055","226534.076297","227300.890759","228067.501166","228834.243591","229601.175538","230350.794096","219668.054648","220434.147191","221184.162727","221951.001613","222717.460835","223484.148226","224250.915076","225017.978113","229610.884195","Mapping"
"Blocked","m160","ball","2","m160romp.wav","None","733.215064276","154","233484.474095","225784.411055","226534.076297","227300.890759","228067.501166","228834.243591","229601.175538","230350.794096","219668.054648","220434.147191","221184.162727","221951.001613","222717.460835","223484.148226","224250.915076","225017.978113","230360.003129","Mapping"
"Blocked","m160","ball","2","m160ball.wav","None","719.930201303","154","233484.474095","225784.411055","226534.076297","227300.890759","228067.501166","228834.243591","229601.175538","230350.794096","234233.822435","220434.147191","221184.162727","221951.001613","222717.460835","223484.148226","224250.915076","225017.978113","233494.028474","Mapping"
"Blocked","m160","ball","2","m160bluff.wav","None","733.392220456","154","233484.474095","225784.411055","226534.076297","227300.890759","228067.501166","228834.243591","229601.175538","230350.794096","234233.822435","235000.847753","221184.162727","221951.001613","222717.460835","223484.148226","224250.915076","225017.978113","234243.841502","Mapping"
"Blocked","m160","ball","2","m160done.wav","space","0.034318305552","154","233484.474095","225784.411055","226534.076297","227300.890759","228067.501166","228834.243591","229601.175538","230350.794096","234233.822435","235000.847753","235767.285333","221951.001613","222717.460835","223484.148226","224250.915076","225017.978113","235009.906528","Mapping"
"Blocked","m160","ball","2","m160done.wav","None","730.368815828","154","233484.474095","225784.411055","226534.076297","227300.890759","228067.501166","228834.243591","229601.175538","230350.794096","234233.822435","235000.847753","235767.285333","236533.823394","222717.460835","223484.148226","224250.915076","225017.978113","235776.684198","Mapping"
"Blocked","m160","ball","2","m160cling.wav","None","727.251113392","154","233484.474095","225784.411055","226534.076297","227300.890759","228067.501166","228834.243591","229601.175538","230350.794096","234233.822435","235000.847753","235767.285333","236533.823394","237301.176126","223484.148226","224250.915076","225017.978113","236543.26678","Mapping"
"Blocked","m160","ball","2","m160cad.wav","None","723.321831319","154","233484.474095","225784.411055","226534.076297","227300.890759","228067.501166","228834.243591","229601.175538","230350.794096","234233.822435","235000.847753","235767.285333","236533.823394","237301.176126","238066.995359","224250.915076","225017.978113","237310.778118","Mapping"
"Blocked","m160","ball","2","m160ball.wav","None","724.879445508","154","233484.474095","225784.411055","226534.076297","227300.890759","228067.501166","228834.243591","229601.175538","230350.794096","234233.822435","235000.847753","235767.285333","236533.823394","237301.176126","238066.995359","238834.293677","225017.978113","238076.397934","Mapping"
"Blocked","m160","ball","2","m160cad.wav","space","416.472995188","154","233484.474095","225784.411055","226534.076297","227300.890759","228067.501166","228834.243591","229601.175538","230350.794096","234233.822435","235000.847753","235767.285333","236533.823394","237301.176126","238066.995359","238834.293677","239583.778671","238844.262348","Mapping"
"Blocked","m160","ball","2","m160ball.wav","None","734.520702623","154","233484.474095","240350.69547","226534.076297","227300.890759","228067.501166","228834.243591","229601.175538","230350.794096","234233.822435","235000.847753","235767.285333","236533.823394","237301.176126","238066.995359","238834.293677","239583.778671","239593.206909","Mapping"
"Blocked","m160","ball","2","m160romp.wav","space","452.937810216","154","233484.474095","240350.69547","241117.278979","227300.890759","228067.501166","228834.243591","229601.175538","230350.794096","234233.822435","235000.847753","235767.285333","236533.823394","237301.176126","238066.995359","238834.293677","239583.778671","240359.788253","Mapping"
"Blocked","m160","ball","2","m160lash.wav","None","727.270591073","154","233484.474095","240350.69547","241117.278979","241883.740056","228067.501166","228834.243591","229601.175538","230350.794096","234233.822435","235000.847753","235767.285333","236533.823394","237301.176126","238066.995359","238834.293677","239583.778671","241126.796876","Mapping"
"Blocked","m160","ball","2","m160romp.wav","None","724.066011142","154","233484.474095","240350.69547","241117.278979","241883.740056","242650.899555","228834.243591","229601.175538","230350.794096","234233.822435","235000.847753","235767.285333","236533.823394","237301.176126","238066.995359","238834.293677","239583.778671","241893.690486","Mapping"
"Blocked","m160","ball","2","m160ball.wav","None","720.397361554","154","233484.474095","240350.69547","241117.278979","241883.740056","242650.899555","243400.407119","229601.175538","230350.794096","234233.822435","235000.847753","235767.285333","236533.823394","237301.176126","238066.995359","238834.293677","239583.778671","242660.649641","Mapping"
"Blocked","m160","ball","2","m160dime.wav","space","418.946381193","154","233484.474095","240350.69547","241117.278979","241883.740056","242650.899555","243400.407119","244166.840371","230350.794096","234233.822435","235000.847753","235767.285333","236533.823394","237301.176126","238066.995359","238834.293677","239583.778671","243409.686953","Mapping"
"Blocked","m160","ball","2","m160jolt.wav","None","731.593450997","154","233484.474095","240350.69547","241117.278979","241883.740056","242650.899555","243400.407119","244166.840371","244933.716976","234233.822435","235000.847753","235767.285333","236533.823394","237301.176126","238066.995359","238834.293677","239583.778671","244175.933154","Mapping"
"Blocked","m160","tile","16","m160greet.wav","None","727.641289588","154","248067.408105","240350.69547","241117.278979","241883.740056","242650.899555","243400.407119","244166.840371","244933.716976","234233.822435","235000.847753","235767.285333","236533.823394","237301.176126","238066.995359","238834.293677","239583.778671","244943.21354","Mapping"
"Blocked","m160","tile","16","m160gnash.wav","None","718.70865766","154","248067.408105","240350.69547","241117.278979","241883.740056","242650.899555","243400.407119","244166.840371","244933.716976","248817.032846","235000.847753","235767.285333","236533.823394","237301.176126","238066.995359","238834.293677","239583.778671","248077.627826","Mapping"
"Blocked","m160","tile","16","m160tile.wav","None","733.680061065","154","248067.408105","240350.69547","241117.278979","241883.740056","242650.899555","243400.407119","244166.840371","244933.716976","248817.032846","249583.709726","235767.285333","236533.823394","237301.176126","238066.995359","238834.293677","239583.778671","248826.206324","Mapping"
"Blocked","m160","tile","16","m160jolt.wav","space","331.520857289","154","248067.408105","240350.69547","241117.278979","241883.740056","242650.899555","243400.407119","244166.840371","244933.716976","248817.032846","249583.709726","250350.178842","236533.823394","237301.176126","238066.995359","238834.293677","239583.778671","249593.036554","Mapping"
"Blocked","m160","tile","16","m160tile.wav","None","727.063754108","154","248067.408105","240350.69547","241117.278979","241883.740056","242650.899555","243400.407119","244166.840371","244933.716976","248817.032846","249583.709726","250350.178842","251117.474686","237301.176126","238066.995359","238834.293677","239583.778671","250359.435487","Mapping"
"Blocked","m160","tile","16","m160jaw.wav","None","722.711213864","154","248067.408105","240350.69547","241117.278979","241883.740056","242650.899555","243400.407119","244166.840371","244933.716976","248817.032846","249583.709726","250350.178842","251117.474686","251883.975028","238066.995359","238834.293677","239583.778671","251127.159227","Mapping"
"Blocked","m160","tile","16","m160cave.wav","space","0.0816215761006","154","248067.408105","240350.69547","241117.278979","241883.740056","242650.899555","243400.407119","244166.840371","244933.716976","248817.032846","249583.709726","250350.178842","251117.474686","251883.975028","252633.532678","238834.293677","239583.778671","251894.288118","Mapping"
"Blocked","m160","tile","16","m160cad.wav","None","733.258966822","154","248067.408105","240350.69547","241117.278979","241883.740056","242650.899555","243400.407119","244166.840371","244933.716976","248817.032846","249583.709726","250350.178842","251117.474686","251883.975028","252633.532678","253400.407428","239583.778671","252643.120757","Mapping"
"Blocked","m160","tile","16","m160tile.wav","None","730.555865448","154","248067.408105","240350.69547","241117.278979","241883.740056","242650.899555","243400.407119","244166.840371","244933.716976","248817.032846","249583.709726","250350.178842","251117.474686","251883.975028","252633.532678","253400.407428","254166.9492","253409.417972","Mapping"
"Blocked","m160","tile","16","m160priest.wav","space","340.28189769","154","248067.408105","254933.833844","241117.278979","241883.740056","242650.899555","243400.407119","244166.840371","244933.716976","248817.032846","249583.709726","250350.178842","251117.474686","251883.975028","252633.532678","253400.407428","254166.9492","254176.213265","Mapping"
"Blocked","m160","tile","16","m160tile.wav","None","722.057003528","154","248067.408105","254933.833844","255700.269877","241883.740056","242650.899555","243400.407119","244166.840371","244933.716976","248817.032846","249583.709726","250350.178842","251117.474686","251883.975028","252633.532678","253400.407428","254166.9492","254944.504338","Mapping"
"Blocked","m160","tile","16","m160cling.wav","space","478.543844074","154","248067.408105","254933.833844","255700.269877","256450.292524","242650.899555","243400.407119","244166.840371","244933.716976","248817.032846","249583.709726","250350.178842","251117.474686","251883.975028","252633.532678","253400.407428","254166.9492","255709.86785","Mapping"
"Blocked","m160","tile","16","m160greet.wav","None","733.948423062","154","248067.408105","254933.833844","255700.269877","256450.292524","257216.978679","243400.407119","244166.840371","244933.716976","248817.032846","249583.709726","250350.178842","251117.474686","251883.975028","252633.532678","253400.407428","254166.9492","256459.952641","Mapping"
"Blocked","m160","tile","16","m160gnash.wav","None","731.056417339","154","248067.408105","254933.833844","255700.269877","256450.292524","257216.978679","257983.500045","244166.840371","244933.716976","248817.032846","249583.709726","250350.178842","251117.474686","251883.975028","252633.532678","253400.407428","254166.9492","257226.497813","Mapping"
"Blocked","m160","tile","16","m160romp.wav","None","728.197492193","154","248067.408105","254933.833844","255700.269877","256450.292524","257216.978679","257983.500045","258750.314198","244933.716976","248817.032846","249583.709726","250350.178842","251117.474686","251883.975028","252633.532678","253400.407428","254166.9492","257992.968474","Mapping"
"Blocked","m160","tile","16","m160jolt.wav","None","725.276424084","154","248067.408105","254933.833844","255700.269877","256450.292524","257216.978679","257983.500045","258750.314198","259517.219247","248817.032846","249583.709726","250350.178842","251117.474686","251883.975028","252633.532678","253400.407428","254166.9492","258759.356277","Mapping"
"Blocked","m160","cave","10","m160bluff.wav","None","721.357035451","154","262633.6143","254933.833844","255700.269877","256450.292524","257216.978679","257983.500045","258750.314198","259517.219247","248817.032846","249583.709726","250350.178842","251117.474686","251883.975028","252633.532678","253400.407428","254166.9492","259526.972116","Mapping"
"Blocked","m160","cave","10","m160jolt.wav","None","718.747304287","154","262633.6143","254933.833844","255700.269877","256450.292524","257216.978679","257983.500045","258750.314198","259517.219247","263383.371985","249583.709726","250350.178842","251117.474686","251883.975028","252633.532678","253400.407428","254166.9492","262644.571089","Mapping"
"Blocked","m160","cave","10","m160park.wav","None","733.803420793","154","262633.6143","254933.833844","255700.269877","256450.292524","257216.978679","257983.500045","258750.314198","259517.219247","263383.371985","264150.212727","250350.178842","251117.474686","251883.975028","252633.532678","253400.407428","254166.9492","263392.983562","Mapping"
"Blocked","m160","cave","10","m160romp.wav","None","731.127526611","154","262633.6143","254933.833844","255700.269877","256450.292524","257216.978679","257983.500045","258750.314198","259517.219247","263383.371985","264150.212727","264916.701011","251117.474686","251883.975028","252633.532678","253400.407428","254166.9492","264159.278922","Mapping"
"Blocked","m160","cave","10","m160dime.wav","None","728.060219437","154","262633.6143","254933.833844","255700.269877","256450.292524","257216.978679","257983.500045","258750.314198","259517.219247","263383.371985","264150.212727","264916.701011","265683.124987","251883.975028","252633.532678","253400.407428","254166.9492","264925.880363","Mapping"
"Blocked","m160","cave","10","m160cave.wav","None","725.268694572","154","262633.6143","254933.833844","255700.269877","256450.292524","257216.978679","257983.500045","258750.314198","259517.219247","263383.371985","264150.212727","264916.701011","265683.124987","266450.690739","252633.532678","253400.407428","254166.9492","265692.09101","Mapping"
"Blocked","m160","cave","10","m160done.wav","space","448.140678927","154","262633.6143","254933.833844","255700.269877","256450.292524","257216.978679","257983.500045","258750.314198","259517.219247","263383.371985","264150.212727","264916.701011","265683.124987","266450.690739","267200.03166","253400.407428","254166.9492","266460.148038","Mapping"
"Blocked","m160","cave","10","m160cave.wav","None","734.08507742","154","262633.6143","254933.833844","255700.269877","256450.292524","257216.978679","257983.500045","258750.314198","259517.219247","263383.371985","264150.212727","264916.701011","265683.124987","266450.690739","267200.03166","267966.779958","254166.9492","267209.911289","Mapping"
"Blocked","m160","cave","10","m160bluff.wav","space","596.263394691","154","262633.6143","254933.833844","255700.269877","256450.292524","257216.978679","257983.500045","258750.314198","259517.219247","263383.371985","264150.212727","264916.701011","265683.124987","266450.690739","267200.03166","267966.779958","268733.338424","267975.954982","Mapping"
"Blocked","m160","cave","10","m160cave.wav","None","727.850600146","154","262633.6143","269499.436841","255700.269877","256450.292524","257216.978679","257983.500045","258750.314198","259517.219247","263383.371985","264150.212727","264916.701011","265683.124987","266450.690739","267200.03166","267966.779958","268733.338424","268742.777482","Mapping"
"Blocked","m160","cave","10","m160jaw.wav","space","415.767462458","154","262633.6143","269499.436841","270266.558621","256450.292524","257216.978679","257983.500045","258750.314198","259517.219247","263383.371985","264150.212727","264916.701011","265683.124987","266450.690739","267200.03166","267966.779958","268733.338424","269508.421414","Mapping"
"Blocked","m160","cave","10","m160romp.wav","None","723.884835374","154","262633.6143","269499.436841","270266.558621","271033.697096","257216.978679","257983.500045","258750.314198","259517.219247","263383.371985","264150.212727","264916.701011","265683.124987","266450.690739","267200.03166","267966.779958","268733.338424","270275.576585","Mapping"
"Blocked","m160","cave","10","m160cave.wav","None","719.455929007","154","262633.6143","269499.436841","270266.558621","271033.697096","271782.885285","257983.500045","258750.314198","259517.219247","263383.371985","264150.212727","264916.701011","265683.124987","266450.690739","267200.03166","267966.779958","268733.338424","271043.958864","Mapping"
"Blocked","m160","cave","10","m160reek.wav","space","380.085165147","154","262633.6143","269499.436841","270266.558621","271033.697096","271782.885285","272550.490612","258750.314198","259517.219247","263383.371985","264150.212727","264916.701011","265683.124987","266450.690739","267200.03166","267966.779958","268733.338424","271792.097409","Mapping"
"Blocked","m160","cave","10","m160cling.wav","None","735.996695701","154","262633.6143","269499.436841","270266.558621","271033.697096","271782.885285","272550.490612","273316.715789","259517.219247","263383.371985","264150.212727","264916.701011","265683.124987","266450.690739","267200.03166","267966.779958","268733.338424","272559.640592","Mapping"
"Blocked","m160","cave","10","m160tile.wav","None","733.429011889","154","262633.6143","269499.436841","270266.558621","271033.697096","271782.885285","272550.490612","273316.715789","274083.059999","263383.371985","264150.212727","264916.701011","265683.124987","266450.690739","267200.03166","267966.779958","268733.338424","273325.881847","Mapping"
"Blocked","m160","cave","12","m160romp.wav","None","730.831957422","154","277217.069267","269499.436841","270266.558621","271033.697096","271782.885285","272550.490612","273316.715789","274083.059999","263383.371985","264150.212727","264916.701011","265683.124987","266450.690739","267200.03166","267966.779958","268733.338424","274092.273669","Mapping"
"Blocked","m160","cave","12","m160tile.wav","None","718.228821177","154","277217.069267","269499.436841","270266.558621","271033.697096","271782.885285","272550.490612","273316.715789","274083.059999","277966.577141","264150.212727","264916.701011","265683.124987","266450.690739","267200.03166","267966.779958","268733.338424","277227.430897","Mapping"
"Blocked","m160","cave","12","m160cave.wav","None","733.184147161","154","277217.069267","269499.436841","270266.558621","271033.697096","271782.885285","272550.490612","273316.715789","274083.059999","277966.577141","278733.139317","264916.701011","265683.124987","266450.690739","267200.03166","267966.779958","268733.338424","277976.032275","Mapping"
"Blocked","m160","cave","12","m160depth.wav","space","413.46288519","154","277217.069267","269499.436841","270266.558621","271033.697096","271782.885285","272550.490612","273316.715789","274083.059999","277966.577141","278733.139317","279499.878959","265683.124987","266450.690739","267200.03166","267966.779958","268733.338424","278742.57281","Mapping"
"Blocked","m160","cave","12","m160cave.wav","None","726.741595659","154","277217.069267","269499.436841","270266.558621","271033.697096","271782.885285","272550.490612","273316.715789","274083.059999","277966.577141","278733.139317","279499.878959","280267.169856","266450.690739","267200.03166","267966.779958","268733.338424","279509.129421","Mapping"
"Blocked","m160","cave","12","m160jaw.wav","space","567.052401137","154","277217.069267","269499.436841","270266.558621","271033.697096","271782.885285","272550.490612","273316.715789","274083.059999","277966.577141","278733.139317","279499.878959","280267.169856","281016.631354","267200.03166","267966.779958","268733.338424","280276.989197","Mapping"
"Blocked","m160","cave","12","m160jaw.wav","None","736.340496223","154","277217.069267","269499.436841","270266.558621","271033.697096","271782.885285","272550.490612","273316.715789","274083.059999","277966.577141","278733.139317","279499.878959","280267.169856","281016.631354","281783.051001","267966.779958","268733.338424","281025.854918","Mapping"
"Blocked","m160","cave","12","m160cad.wav","None","733.116438147","154","277217.069267","269499.436841","270266.558621","271033.697096","271782.885285","272550.490612","273316.715789","274083.059999","277966.577141","278733.139317","279499.878959","280267.169856","281016.631354","281783.051001","282549.628946","268733.338424","281792.758731","Mapping"
"Blocked","m160","cave","12","m160tile.wav","None","730.668713804","154","277217.069267","269499.436841","270266.558621","271033.697096","271782.885285","272550.490612","273316.715789","274083.059999","277966.577141","278733.139317","279499.878959","280267.169856","281016.631354","281783.051001","282549.628946","283316.452374","282558.858384","Mapping"
"Blocked","m160","cave","12","m160depth.wav","None","727.780726738","154","277217.069267","284082.974358","270266.558621","271033.697096","271782.885285","272550.490612","273316.715789","274083.059999","277966.577141","278733.139317","279499.878959","280267.169856","281016.631354","281783.051001","282549.628946","283316.452374","283325.609156","Mapping"
"Blocked","m160","cave","12","m160cling.wav","None","724.59840728","154","277217.069267","284082.974358","284850.196","271033.697096","271782.885285","272550.490612","273316.715789","274083.059999","277966.577141","278733.139317","279499.878959","280267.169856","281016.631354","281783.051001","282549.628946","283316.452374","284092.285417","Mapping"
"Blocked","m160","cave","12","m160cave.wav","None","719.927418511","154","277217.069267","284082.974358","284850.196","285599.912566","271782.885285","272550.490612","273316.715789","274083.059999","277966.577141","278733.139317","279499.878959","280267.169856","281016.631354","281783.051001","282549.628946","283316.452374","284860.637398","Mapping"
"Blocked","m160","cave","12","m160cad.wav","space","563.241532538","154","277217.069267","284082.974358","284850.196","285599.912566","286366.402705","272550.490612","273316.715789","274083.059999","277966.577141","278733.139317","279499.878959","280267.169856","281016.631354","281783.051001","282549.628946","283316.452374","285608.68752","Mapping"
"Blocked","m160","cave","12","m160cling.wav","None","731.360333972","154","277217.069267","284082.974358","284850.196","285599.912566","286366.402705","287132.90552","273316.715789","274083.059999","277966.577141","278733.139317","279499.878959","280267.169856","281016.631354","281783.051001","282549.628946","283316.452374","286375.852584","Mapping"
"Blocked","m160","cave","12","m160cave.wav","None","728.617658373","154","277217.069267","284082.974358","284850.196","285599.912566","286366.402705","287132.90552","287899.834067","274083.059999","277966.577141","278733.139317","279499.878959","280267.169856","281016.631354","281783.051001","282549.628946","283316.452374","287142.294183","Mapping"
"Blocked","m160","cave","12","m160cad.wav","space","534.513159189","154","277217.069267","284082.974358","284850.196","285599.912566","286366.402705","287132.90552","287899.834067","288666.676354","277966.577141","278733.139317","279499.878959","280267.169856","281016.631354","281783.051001","282549.628946","283316.452374","287909.336196","Mapping"
"Blocked","m160","ball","1","m160cave.wav","None","720.96654959","154","291783.379653","284082.974358","284850.196","285599.912566","286366.402705","287132.90552","287899.834067","288666.676354","277966.577141","278733.139317","279499.878959","280267.169856","281016.631354","281783.051001","282549.628946","283316.452374","288676.528158","Mapping"
"Blocked","m160","ball","1","m160done.wav","None","719.682244118","154","291783.379653","284082.974358","284850.196","285599.912566","286366.402705","287132.90552","287899.834067","288666.676354","292532.759219","278733.139317","279499.878959","280267.169856","281016.631354","281783.051001","282549.628946","283316.452374","291792.880236","Mapping"
"Blocked","m160","ball","1","m160ball.wav","None","733.882260043","154","291783.379653","284082.974358","284850.196","285599.912566","286366.402705","287132.90552","287899.834067","288666.676354","292532.759219","293299.69024","279499.878959","280267.169856","281016.631354","281783.051001","282549.628946","283316.452374","292542.400786","Mapping"
"Blocked","m160","ball","1","m160lash.wav","space","342.525877059","154","291783.379653","284082.974358","284850.196","285599.912566","286366.402705","287132.90552","287899.834067","288666.676354","292532.759219","293299.69024","294066.320125","280267.169856","281016.631354","281783.051001","282549.628946","283316.452374","293309.241836","Mapping"
"Blocked","m160","ball","1","m160bluff.wav","None","727.668497246","154","291783.379653","284082.974358","284850.196","285599.912566","286366.402705","287132.90552","287899.834067","288666.676354","292532.759219","293299.69024","294066.320125","294832.873026","281016.631354","281783.051001","282549.628946","283316.452374","294075.535341","Mapping"
"Blocked","m160","ball","1","m160priest.wav","None","724.71496556","154","291783.379653","284082.974358","284850.196","285599.912566","286366.402705","287132.90552","287899.834067","288666.676354","292532.759219","293299.69024","294066.320125","294832.873026","295600.047365","281783.051001","282549.628946","283316.452374","294842.20882","Mapping"
"Blocked","m160","ball","1","m160cling.wav","None","720.493823756","154","291783.379653","284082.974358","284850.196","285599.912566","286366.402705","287132.90552","287899.834067","288666.676354","292532.759219","293299.69024","294066.320125","294832.873026","295600.047365","296349.361697","282549.628946","283316.452374","295609.982646","Mapping"
"Blocked","m160","ball","1","m160priest.wav","None","735.455951653","154","291783.379653","284082.974358","284850.196","285599.912566","286366.402705","287132.90552","287899.834067","288666.676354","292532.759219","293299.69024","294066.320125","294832.873026","295600.047365","296349.361697","297115.859256","283316.452374","296358.747267","Mapping"
"Blocked","m160","ball","1","m160ball.wav","None","731.902314816","154","291783.379653","284082.974358","284850.196","285599.912566","286366.402705","287132.90552","287899.834067","288666.676354","292532.759219","293299.69024","294066.320125","294832.873026","295600.047365","296349.361697","297115.859256","297882.820575","297125.933664","Mapping"
"Blocked","m160","ball","1","m160bluff.wav","space","471.423894167","154","291783.379653","298649.598863","284850.196","285599.912566","286366.402705","287132.90552","287899.834067","288666.676354","292532.759219","293299.69024","294066.320125","294832.873026","295600.047365","296349.361697","297115.859256","297882.820575","297892.253449","Mapping"
"Blocked","m160","ball","1","m160jolt.wav","None","726.109645795","154","291783.379653","298649.598863","299416.560801","285599.912566","286366.402705","287132.90552","287899.834067","288666.676354","292532.759219","293299.69024","294066.320125","294832.873026","295600.047365","296349.361697","297115.859256","297882.820575","298658.656092","Mapping"
"Blocked","m160","ball","1","m160ball.wav","None","722.523236647","154","291783.379653","298649.598863","299416.560801","300183.060833","286366.402705","287132.90552","287899.834067","288666.676354","292532.759219","293299.69024","294066.320125","294832.873026","295600.047365","296349.361697","297115.859256","297882.820575","299426.433319","Mapping"
"Blocked","m160","ball","1","m160cad.wav","None","719.184475485","154","291783.379653","298649.598863","299416.560801","300183.060833","300932.580455","287132.90552","287899.834067","288666.676354","292532.759219","293299.69024","294066.320125","294832.873026","295600.047365","296349.361697","297115.859256","297882.820575","300193.75668","Mapping"
"Blocked","m160","ball","1","m160cling.wav","space","477.820069529","154","291783.379653","298649.598863","299416.560801","300183.060833","300932.580455","301699.220852","287899.834067","288666.676354","292532.759219","293299.69024","294066.320125","294832.873026","295600.047365","296349.361697","297115.859256","297882.820575","300941.822261","Mapping"
"Blocked","m160","ball","1","m160ball.wav","None","731.831823476","154","291783.379653","298649.598863","299416.560801","300183.060833","300932.580455","301699.220852","302465.808072","288666.676354","292532.759219","293299.69024","294066.320125","294832.873026","295600.047365","296349.361697","297115.859256","297882.820575","301708.394949","Mapping"
"Blocked","m160","ball","1","m160cave.wav","space","432.637806982","154","291783.379653","298649.598863","299416.560801","300183.060833","300932.580455","301699.220852","302465.808072","303232.662108","292532.759219","293299.69024","294066.320125","294832.873026","295600.047365","296349.361697","297115.859256","297882.820575","302474.960217","Mapping"
"Blocked","m160","tile","14","m160ball.wav","None","724.577074405","154","306349.770423","298649.598863","299416.560801","300183.060833","300932.580455","301699.220852","302465.808072","303232.662108","292532.759219","293299.69024","294066.320125","294832.873026","295600.047365","296349.361697","297115.859256","297882.820575","303242.594606","Mapping"
"Blocked","m160","tile","14","m160tile.wav","None","719.618245028","154","306349.770423","298649.598863","299416.560801","300183.060833","300932.580455","301699.220852","302465.808072","303232.662108","307099.418971","293299.69024","294066.320125","294832.873026","295600.047365","296349.361697","297115.859256","297882.820575","306359.869566","Mapping"
"Blocked","m160","tile","14","m160gnash.wav","space","526.996849105","154","306349.770423","298649.598863","299416.560801","300183.060833","300932.580455","301699.220852","302465.808072","303232.662108","307099.418971","307866.08472","294066.320125","294832.873026","295600.047365","296349.361697","297115.859256","297882.820575","307108.522267","Mapping"
"Blocked","m160","tile","14","m160park.wav","None","730.865347665","154","306349.770423","298649.598863","299416.560801","300183.060833","300932.580455","301699.220852","302465.808072","303232.662108","307099.418971","307866.08472","308632.577951","294832.873026","295600.047365","296349.361697","297115.859256","297882.820575","307875.502445","Mapping"
"Blocked","m160","tile","14","m160cling.wav","None","728.250361048","154","306349.770423","298649.598863","299416.560801","300183.060833","300932.580455","301699.220852","302465.808072","303232.662108","307099.418971","307866.08472","308632.577951","309399.381592","295600.047365","296349.361697","297115.859256","297882.820575","308642.006188","Mapping"
"Blocked","m160","tile","14","m160greet.wav","None","725.168213248","154","306349.770423","298649.598863","299416.560801","300183.060833","300932.580455","301699.220852","302465.808072","303232.662108","307099.418971","307866.08472","308632.577951","309399.381592","310165.872659","296349.361697","297115.859256","297882.820575","309408.898561","Mapping"
"Blocked","m160","tile","14","m160romp.wav","None","722.858998924","154","306349.770423","298649.598863","299416.560801","300183.060833","300932.580455","301699.220852","302465.808072","303232.662108","307099.418971","307866.08472","308632.577951","309399.381592","310165.872659","310932.725767","297115.859256","297882.820575","310174.988321","Mapping"
"Blocked","m160","tile","14","m160dime.wav","None","718.996807002","154","306349.770423","298649.598863","299416.560801","300183.060833","300932.580455","301699.220852","302465.808072","303232.662108","307099.418971","307866.08472","308632.577951","309399.381592","310165.872659","310932.725767","311682.15171","297882.820575","310942.685782","Mapping"
"Blocked","m160","tile","14","m160tile.wav","None","740.633365698","154","306349.770423","298649.598863","299416.560801","300183.060833","300932.580455","301699.220852","302465.808072","303232.662108","307099.418971","307866.08472","308632.577951","309399.381592","310165.872659","310932.725767","311682.15171","312449.017803","311685.832417","Mapping"
"Blocked","m160","tile","14","m160cad.wav","space","409.525255207","154","306349.770423","313215.670877","299416.560801","300183.060833","300932.580455","301699.220852","302465.808072","303232.662108","307099.418971","307866.08472","308632.577951","309399.381592","310165.872659","310932.725767","311682.15171","312449.017803","312457.924156","Mapping"
"Blocked","m160","tile","14","m160knife.wav","None","728.627243079","154","306349.770423","313215.670877","313982.55181","300183.060833","300932.580455","301699.220852","302465.808072","303232.662108","307099.418971","307866.08472","308632.577951","309399.381592","310165.872659","310932.725767","311682.15171","312449.017803","313224.814055","Mapping"
"Blocked","m160","tile","14","m160tile.wav","None","724.721767008","154","306349.770423","313215.670877","313982.55181","314749.512821","300932.580455","301699.220852","302465.808072","303232.662108","307099.418971","307866.08472","308632.577951","309399.381592","310165.872659","310932.725767","311682.15171","312449.017803","313992.575206","Mapping"
"Blocked","m160","tile","14","m160depth.wav","space","515.600106679","154","306349.770423","313215.670877","313982.55181","314749.512821","315499.132305","301699.220852","302465.808072","303232.662108","307099.418971","307866.08472","308632.577951","309399.381592","310165.872659","310932.725767","311682.15171","312449.017803","314759.802723","Mapping"
"Blocked","m160","tile","14","m160reek.wav","None","736.086046323","154","306349.770423","313215.670877","313982.55181","314749.512821","315499.132305","316265.877512","302465.808072","303232.662108","307099.418971","307866.08472","308632.577951","309399.381592","310165.872659","310932.725767","311682.15171","312449.017803","315508.379985","Mapping"
"Blocked","m160","tile","14","m160tile.wav","None","733.382327016","154","306349.770423","313215.670877","313982.55181","314749.512821","315499.132305","316265.877512","317032.434124","303232.662108","307099.418971","307866.08472","308632.577951","309399.381592","310165.872659","310932.725767","311682.15171","312449.017803","316275.059029","Mapping"
"Blocked","m160","tile","14","m160depth.wav","space","465.626278426","154","306349.770423","313215.670877","313982.55181","314749.512821","315499.132305","316265.877512","317032.434124","317799.29156","307099.418971","307866.08472","308632.577951","309399.381592","310165.872659","310932.725767","311682.15171","312449.017803","317041.753531","Mapping"
"Blocked","m160","done","24","m160tile.wav","None","726.940393914","154","320916.228903","313215.670877","313982.55181","314749.512821","315499.132305","316265.877512","317032.434124","317799.29156","307099.418971","307866.08472","308632.577951","309399.381592","310165.872659","310932.725767","311682.15171","312449.017803","317808.428865","Mapping"
"Blocked","m160","done","24","m160done.wav","None","719.313091598","154","320916.228903","313215.670877","313982.55181","314749.512821","315499.132305","316265.877512","317032.434124","317799.29156","321665.719772","307866.08472","308632.577951","309399.381592","310165.872659","310932.725767","311682.15171","312449.017803","320926.048244","Mapping"
"Blocked","m160","done","24","m160priest.wav","space","424.36433211","154","320916.228903","313215.670877","313982.55181","314749.512821","315499.132305","316265.877512","317032.434124","317799.29156","321665.719772","322432.340383","308632.577951","309399.381592","310165.872659","310932.725767","311682.15171","312449.017803","321674.916438","Mapping"
"Blocked","m160","done","24","m160knife.wav","None","730.234634597","154","320916.228903","313215.670877","313982.55181","314749.512821","315499.132305","316265.877512","317032.434124","317799.29156","321665.719772","322432.340383","323199.128564","309399.381592","310165.872659","310932.725767","311682.15171","312449.017803","322441.738011","Mapping"
"Blocked","m160","done","24","m160done.wav","None","727.362724487","154","320916.228903","313215.670877","313982.55181","314749.512821","315499.132305","316265.877512","317032.434124","317799.29156","321665.719772","322432.340383","323199.128564","323966.075043","310165.872659","310932.725767","311682.15171","312449.017803","323208.537323","Mapping"
"Blocked","m160","done","24","m160cad.wav","space","603.321200237","154","320916.228903","313215.670877","313982.55181","314749.512821","315499.132305","316265.877512","317032.434124","317799.29156","321665.719772","322432.340383","323199.128564","323966.075043","324732.649896","310932.725767","311682.15171","312449.017803","323975.911079","Mapping"
"Blocked","m160","done","24","m160depth.wav","None","720.079222228","154","320916.228903","313215.670877","313982.55181","314749.512821","315499.132305","316265.877512","317032.434124","317799.29156","321665.719772","322432.340383","323199.128564","323966.075043","324732.649896","325482.146639","311682.15171","312449.017803","324742.569718","Mapping"
"Blocked","m160","done","24","m160done.wav","None","735.009505413","154","320916.228903","313215.670877","313982.55181","314749.512821","315499.132305","316265.877512","317032.434124","317799.29156","321665.719772","322432.340383","323199.128564","323966.075043","324732.649896","325482.146639","326249.16701","312449.017803","325491.562818","Mapping"
"Blocked","m160","done","24","m160cad.wav","space","512.70655496","154","320916.228903","313215.670877","313982.55181","314749.512821","315499.132305","316265.877512","317032.434124","317799.29156","321665.719772","322432.340383","323199.128564","323966.075043","324732.649896","325482.146639","326249.16701","327015.73166","326258.479307","Mapping"
"Blocked","m160","done","24","m160cave.wav","None","728.172758594","154","320916.228903","327782.188718","313982.55181","314749.512821","315499.132305","316265.877512","317032.434124","317799.29156","321665.719772","322432.340383","323199.128564","323966.075043","324732.649896","325482.146639","326249.16701","327015.73166","327025.080748","Mapping"
"Blocked","m160","done","24","m160ball.wav","None","725.637538359","154","320916.228903","327782.188718","328549.268141","314749.512821","315499.132305","316265.877512","317032.434124","317799.29156","321665.719772","322432.340383","323199.128564","323966.075043","324732.649896","325482.146639","326249.16701","327015.73166","327791.504724","Mapping"
"Blocked","m160","done","24","m160lash.wav","None","721.813374665","154","320916.228903","327782.188718","328549.268141","329315.992015","315499.132305","316265.877512","317032.434124","317799.29156","321665.719772","322432.340383","323199.128564","323966.075043","324732.649896","325482.146639","326249.16701","327015.73166","328559.264638","Mapping"
"Blocked","m160","done","24","m160jaw.wav","None","719.051530585","154","320916.228903","327782.188718","328549.268141","329315.992015","330065.628814","316265.877512","317032.434124","317799.29156","321665.719772","322432.340383","323199.128564","323966.075043","324732.649896","325482.146639","326249.16701","327015.73166","329325.803008","Mapping"
"Blocked","m160","done","24","m160reek.wav","None","733.794454951","154","320916.228903","327782.188718","328549.268141","329315.992015","330065.628814","330832.150179","317032.434124","317799.29156","321665.719772","322432.340383","323199.128564","323966.075043","324732.649896","325482.146639","326249.16701","327015.73166","330075.023969","Mapping"
"Blocked","m160","done","24","m160done.wav","None","731.338383164","154","320916.228903","327782.188718","328549.268141","329315.992015","330065.628814","330832.150179","331599.034823","317799.29156","321665.719772","322432.340383","323199.128564","323966.075043","324732.649896","325482.146639","326249.16701","327015.73166","330841.511634","Mapping"
"Blocked","m160","done","24","m160knife.wav","space","370.895609725","154","320916.228903","327782.188718","328549.268141","329315.992015","330065.628814","330832.150179","331599.034823","332365.613386","321665.719772","322432.340383","323199.128564","323966.075043","324732.649896","325482.146639","326249.16701","327015.73166","331608.229325","Mapping"
"Blocked","m160","cave","11","m160done.wav","None","724.598097615","154","335499.334814","327782.188718","328549.268141","329315.992015","330065.628814","330832.150179","331599.034823","332365.613386","321665.719772","322432.340383","323199.128564","323966.075043","324732.649896","325482.146639","326249.16701","327015.73166","332375.075632","Mapping"
"Blocked","m160","cave","11","m160lash.wav","None","718.979184516","154","335499.334814","327782.188718","328549.268141","329315.992015","330065.628814","330832.150179","331599.034823","332365.613386","336248.973159","322432.340383","323199.128564","323966.075043","324732.649896","325482.146639","326249.16701","327015.73166","335509.044089","Mapping"
"Blocked","m160","cave","11","m160ball.wav","None","733.48280834","154","335499.334814","327782.188718","328549.268141","329315.992015","330065.628814","330832.150179","331599.034823","332365.613386","336248.973159","337015.307784","323199.128564","323966.075043","324732.649896","325482.146639","326249.16701","327015.73166","336258.368932","Mapping"
"Blocked","m160","cave","11","m160cling.wav","None","730.75373657","154","335499.334814","327782.188718","328549.268141","329315.992015","330065.628814","330832.150179","331599.034823","332365.613386","336248.973159","337015.307784","337782.001358","323966.075043","324732.649896","325482.146639","326249.16701","327015.73166","337024.91163","Mapping"
"Blocked","m160","cave","11","m160cave.wav","None","728.097629733","154","335499.334814","327782.188718","328549.268141","329315.992015","330065.628814","330832.150179","331599.034823","332365.613386","336248.973159","337015.307784","337782.001358","338548.885384","324732.649896","325482.146639","326249.16701","327015.73166","337791.596858","Mapping"
"Blocked","m160","cave","11","m160ball.wav","space","604.832747951","154","335499.334814","327782.188718","328549.268141","329315.992015","330065.628814","330832.150179","331599.034823","332365.613386","336248.973159","337015.307784","337782.001358","338548.885384","339315.849177","325482.146639","326249.16701","327015.73166","338558.095345","Mapping"
"Blocked","m160","cave","11","m160gnash.wav","None","721.151126083","154","335499.334814","327782.188718","328549.268141","329315.992015","330065.628814","330832.150179","331599.034823","332365.613386","336248.973159","337015.307784","337782.001358","338548.885384","339315.849177","340065.326751","326249.16701","327015.73166","339325.623997","Mapping"
"Blocked","m160","cave","11","m160cave.wav","None","736.553825904","154","335499.334814","327782.188718","328549.268141","329315.992015","330065.628814","330832.150179","331599.034823","332365.613386","336248.973159","337015.307784","337782.001358","338548.885384","339315.849177","340065.326751","340831.994356","327015.73166","340074.349043","Mapping"
"Blocked","m160","cave","11","m160reek.wav","space","449.079019018","154","335499.334814","327782.188718","328549.268141","329315.992015","330065.628814","330832.150179","331599.034823","332365.613386","336248.973159","337015.307784","337782.001358","338548.885384","339315.849177","340065.326751","340831.994356","341598.856121","340841.794837","Mapping"
"Blocked","m160","cave","11","m160cave.wav","None","730.084067211","154","335499.334814","342365.37996","328549.268141","329315.992015","330065.628814","330832.150179","331599.034823","332365.613386","336248.973159","337015.307784","337782.001358","338548.885384","339315.849177","340065.326751","340831.994356","341598.856121","341607.897891","Mapping"
"Blocked","m160","cave","11","m160lash.wav","space","452.119119465","154","335499.334814","342365.37996","343132.301396","329315.992015","330065.628814","330832.150179","331599.034823","332365.613386","336248.973159","337015.307784","337782.001358","338548.885384","339315.849177","340065.326751","340831.994356","341598.856121","342374.790574","Mapping"
"Blocked","m160","cave","11","m160cave.wav","None","722.807366867","154","335499.334814","342365.37996","343132.301396","343899.134717","330065.628814","330832.150179","331599.034823","332365.613386","336248.973159","337015.307784","337782.001358","338548.885384","339315.849177","340065.326751","340831.994356","341598.856121","343142.021492","Mapping"
"Blocked","m160","cave","11","m160knife.wav","space","453.613662627","154","335499.334814","342365.37996","343132.301396","343899.134717","344648.659286","330832.150179","331599.034823","332365.613386","336248.973159","337015.307784","337782.001358","338548.885384","339315.849177","340065.326751","340831.994356","341598.856121","343909.278381","Mapping"
"Blocked","m160","cave","11","m160depth.wav","None","734.169173054","154","335499.334814","342365.37996","343132.301396","343899.134717","344648.659286","345415.352552","331599.034823","332365.613386","336248.973159","337015.307784","337782.001358","338548.885384","339315.849177","340065.326751","340831.994356","341598.856121","344657.839566","Mapping"
"Blocked","m160","cave","11","m160bluff.wav","None","731.185651384","154","335499.334814","342365.37996","343132.301396","343899.134717","344648.659286","345415.352552","346181.943172","332365.613386","336248.973159","337015.307784","337782.001358","338548.885384","339315.849177","340065.326751","340831.994356","341598.856121","345424.842623","Mapping"
"Blocked","m160","cave","11","m160lash.wav","None","728.150188923","154","335499.334814","342365.37996","343132.301396","343899.134717","344648.659286","345415.352552","346181.943172","346948.387863","336248.973159","337015.307784","337782.001358","338548.885384","339315.849177","340065.326751","340831.994356","341598.856121","346191.836406","Mapping"
"Blocked","m160","tile","13","m160depth.wav","None","726.625656243","154","350065.572544","342365.37996","343132.301396","343899.134717","344648.659286","345415.352552","346181.943172","346948.387863","336248.973159","337015.307784","337782.001358","338548.885384","339315.849177","340065.326751","340831.994356","341598.856121","346957.443855","Mapping"
"Blocked","m160","tile","13","m160cave.wav","None","719.43552373","154","350065.572544","342365.37996","343132.301396","343899.134717","344648.659286","345415.352552","346181.943172","346948.387863","350815.207797","337015.307784","337782.001358","338548.885384","339315.849177","340065.326751","340831.994356","341598.856121","350075.224622","Mapping"
"Blocked","m160","tile","13","m160tile.wav","None","734.175665304","154","350065.572544","342365.37996","343132.301396","343899.134717","344648.659286","345415.352552","346181.943172","346948.387863","350815.207797","351582.058741","337782.001358","338548.885384","339315.849177","340065.326751","340831.994356","341598.856121","350824.631705","Mapping"
"Blocked","m160","tile","13","m160knife.wav","space","418.408419471","154","350065.572544","342365.37996","343132.301396","343899.134717","344648.659286","345415.352552","346181.943172","346948.387863","350815.207797","351582.058741","352348.299687","338548.885384","339315.849177","340065.326751","340831.994356","341598.856121","351592.281553","Mapping"
"Blocked","m160","tile","13","m160tile.wav","None","728.942600079","154","350065.572544","342365.37996","343132.301396","343899.134717","344648.659286","345415.352552","346181.943172","346948.387863","350815.207797","351582.058741","352348.299687","353115.146921","339315.849177","340065.326751","340831.994356","341598.856121","352357.307757","Mapping"
"Blocked","m160","tile","13","m160depth.wav","space","470.084555913","154","350065.572544","342365.37996","343132.301396","343899.134717","344648.659286","345415.352552","346181.943172","346948.387863","350815.207797","351582.058741","352348.299687","353115.146921","353882.17162","340065.326751","340831.994356","341598.856121","353124.605147","Mapping"
"Blocked","m160","tile","13","m160lash.wav","None","721.927151084","154","350065.572544","342365.37996","343132.301396","343899.134717","344648.659286","345415.352552","346181.943172","346948.387863","350815.207797","351582.058741","352348.299687","353115.146921","353882.17162","354649.047917","340831.994356","341598.856121","353891.666638","Mapping"
"Blocked","m160","tile","13","m160tile.wav","None","719.059569295","154","350065.572544","342365.37996","343132.301396","343899.134717","344648.659286","345415.352552","346181.943172","346948.387863","350815.207797","351582.058741","352348.299687","353115.146921","353882.17162","354649.047917","355398.597219","341598.856121","354658.666913","Mapping"
"Blocked","m160","tile","13","m160knife.wav","space","418.701515999","154","350065.572544","342365.37996","343132.301396","343899.134717","344648.659286","345415.352552","346181.943172","346948.387863","350815.207797","351582.058741","352348.299687","353115.146921","353882.17162","354649.047917","355398.597219","356164.870628","355407.954037","Mapping"
"Blocked","m160","tile","13","m160bluff.wav","None","731.177613139","154","350065.572544","356931.730229","343132.301396","343899.134717","344648.659286","345415.352552","346181.943172","346948.387863","350815.207797","351582.058741","352348.299687","353115.146921","353882.17162","354649.047917","355398.597219","356164.870628","356173.669697","Mapping"
"Blocked","m160","tile","13","m160priest.wav","None","727.358086966","154","350065.572544","356931.730229","357698.508827","343899.134717","344648.659286","345415.352552","346181.943172","346948.387863","350815.207797","351582.058741","352348.299687","353115.146921","353882.17162","354649.047917","355398.597219","356164.870628","356941.689935","Mapping"
"Blocked","m160","tile","13","m160jaw.wav","None","725.783468224","154","350065.572544","356931.730229","357698.508827","358465.442011","344648.659286","345415.352552","346181.943172","346948.387863","350815.207797","351582.058741","352348.299687","353115.146921","353882.17162","354649.047917","355398.597219","356164.870628","357707.701783","Mapping"
"Blocked","m160","tile","13","m160tile.wav","None","721.982493065","154","350065.572544","356931.730229","357698.508827","358465.442011","359231.478593","345415.352552","346181.943172","346948.387863","350815.207797","351582.058741","352348.299687","353115.146921","353882.17162","354649.047917","355398.597219","356164.870628","358475.563414","Mapping"
"Blocked","m160","tile","13","m160depth.wav","space","425.916381646","154","350065.572544","356931.730229","357698.508827","358465.442011","359231.478593","359981.608214","346181.943172","346948.387863","350815.207797","351582.058741","352348.299687","353115.146921","353882.17162","354649.047917","355398.597219","356164.870628","359240.696592","Mapping"
"Blocked","m160","tile","13","m160cave.wav","None","733.935128432","154","350065.572544","356931.730229","357698.508827","358465.442011","359231.478593","359981.608214","360748.48451","346948.387863","350815.207797","351582.058741","352348.299687","353115.146921","353882.17162","354649.047917","355398.597219","356164.870628","359990.923912","Mapping"
"Blocked","m160","tile","13","m160lash.wav","None","731.347967405","154","350065.572544","356931.730229","357698.508827","358465.442011","359231.478593","359981.608214","360748.48451","361514.762866","350815.207797","351582.058741","352348.299687","353115.146921","353882.17162","354649.047917","355398.597219","356164.870628","360757.715185","Mapping"
"Blocked","m160","tile","18","m160ball.wav","None","729.426764883","154","364648.663614","356931.730229","357698.508827","358465.442011","359231.478593","359981.608214","360748.48451","361514.762866","350815.207797","351582.058741","352348.299687","353115.146921","353882.17162","354649.047917","355398.597219","356164.870628","361523.798762","Mapping"
"Blocked","m160","tile","18","m160gnash.wav","None","719.143973663","154","364648.663614","356931.730229","357698.508827","358465.442011","359231.478593","359981.608214","360748.48451","361514.762866","365398.044108","351582.058741","352348.299687","353115.146921","353882.17162","354649.047917","355398.597219","356164.870628","364658.388348","Mapping"
"Blocked","m160","tile","18","m160bluff.wav","None","734.424859285","154","364648.663614","356931.730229","357698.508827","358465.442011","359231.478593","359981.608214","360748.48451","361514.762866","365398.044108","366164.981312","352348.299687","353115.146921","353882.17162","354649.047917","355398.597219","356164.870628","365407.290551","Mapping"
"Blocked","m160","tile","18","m160tile.wav","None","731.128145009","154","364648.663614","356931.730229","357698.508827","358465.442011","359231.478593","359981.608214","360748.48451","361514.762866","365398.044108","366164.981312","366931.542252","353115.146921","353882.17162","354649.047917","355398.597219","356164.870628","366174.933907","Mapping"
"Blocked","m160","tile","18","m160dime.wav","space","429.27245656","154","364648.663614","356931.730229","357698.508827","358465.442011","359231.478593","359981.608214","360748.48451","361514.762866","365398.044108","366164.981312","366931.542252","367698.304154","353882.17162","354649.047917","355398.597219","356164.870628","366941.207934","Mapping"
"Blocked","m160","tile","18","m160tile.wav","None","726.04564717","154","364648.663614","356931.730229","357698.508827","358465.442011","359231.478593","359981.608214","360748.48451","361514.762866","365398.044108","366164.981312","366931.542252","367698.304154","368465.167156","354649.047917","355398.597219","356164.870628","367707.572548","Mapping"
"Blocked","m160","tile","18","m160romp.wav","space","719.464586116","154","364648.663614","356931.730229","357698.508827","358465.442011","359231.478593","359981.608214","360748.48451","361514.762866","365398.044108","366164.981312","366931.542252","367698.304154","368465.167156","369231.691923","355398.597219","356164.870628","368474.954343","Mapping"
"Blocked","m160","tile","18","m160tile.wav","None","719.861255027","154","364648.663614","356931.730229","357698.508827","358465.442011","359231.478593","359981.608214","360748.48451","361514.762866","365398.044108","366164.981312","366931.542252","367698.304154","368465.167156","369231.691923","369981.143836","356164.870628","369241.024007","Mapping"
"Blocked","m160","tile","18","m160done.wav","space","476.084680296","154","364648.663614","356931.730229","357698.508827","358465.442011","359231.478593","359981.608214","360748.48451","361514.762866","365398.044108","366164.981312","366931.542252","367698.304154","368465.167156","369231.691923","369981.143836","370748.291895","369990.325352","Mapping"
"Blocked","m160","tile","18","m160lash.wav","None","730.920071714","154","364648.663614","371514.934148","357698.508827","358465.442011","359231.478593","359981.608214","360748.48451","361514.762866","365398.044108","366164.981312","366931.542252","367698.304154","368465.167156","369231.691923","369981.143836","370748.291895","370757.37695","Mapping"
"Blocked","m160","tile","18","m160bluff.wav","None","728.047543671","154","364648.663614","371514.934148","372281.384713","358465.442011","359231.478593","359981.608214","360748.48451","361514.762866","365398.044108","366164.981312","366931.542252","367698.304154","368465.167156","369231.691923","369981.143836","370748.291895","371524.377534","Mapping"
"Blocked","m160","tile","18","m160reek.wav","None","725.998343434","154","364648.663614","371514.934148","372281.384713","373048.47001","359231.478593","359981.608214","360748.48451","361514.762866","365398.044108","366164.981312","366931.542252","367698.304154","368465.167156","369231.691923","369981.143836","370748.291895","372290.790689","Mapping"
"Blocked","m160","tile","18","m160tile.wav","None","723.293696065","154","364648.663614","371514.934148","372281.384713","373048.47001","373815.148126","359981.608214","360748.48451","361514.762866","365398.044108","366164.981312","366931.542252","367698.304154","368465.167156","369231.691923","369981.143836","370748.291895","373058.040467","Mapping"
"Blocked","m160","tile","18","m160bluff.wav","space","433.227709495","154","364648.663614","371514.934148","372281.384713","373048.47001","373815.148126","374564.737312","360748.48451","361514.762866","365398.044108","366164.981312","366931.542252","367698.304154","368465.167156","369231.691923","369981.143836","370748.291895","373825.098248","Mapping"
"Blocked","m160","tile","18","m160lash.wav","None","734.439081047","154","364648.663614","371514.934148","372281.384713","373048.47001","373815.148126","374564.737312","375331.379256","361514.762866","365398.044108","366164.981312","366931.542252","367698.304154","368465.167156","369231.691923","369981.143836","370748.291895","374574.196776","Mapping"
"Blocked","m160","tile","18","m160greet.wav","None","732.083799783","154","364648.663614","371514.934148","372281.384713","373048.47001","373815.148126","374564.737312","375331.379256","376098.213195","365398.044108","366164.981312","366931.542252","367698.304154","368465.167156","369231.691923","369981.143836","370748.291895","375341.373588","Mapping"
"Blocked","m160","done","21","m160tile.wav","None","730.295232497","154","379231.688522","371514.934148","372281.384713","373048.47001","373815.148126","374564.737312","375331.379256","376098.213195","365398.044108","366164.981312","366931.542252","367698.304154","368465.167156","369231.691923","369981.143836","370748.291895","376107.425938","Mapping"
"Blocked","m160","done","21","m160dime.wav","None","719.936384819","154","379231.688522","371514.934148","372281.384713","373048.47001","373815.148126","374564.737312","375331.379256","376098.213195","379981.138889","366164.981312","366931.542252","367698.304154","368465.167156","369231.691923","369981.143836","370748.291895","379241.241973","Mapping"
"Blocked","m160","done","21","m160cling.wav","None","734.920154326","154","379231.688522","371514.934148","372281.384713","373048.47001","373815.148126","374564.737312","375331.379256","376098.213195","379981.138889","380748.123087","366931.542252","367698.304154","368465.167156","369231.691923","369981.143836","370748.291895","379990.499726","Mapping"
"Blocked","m160","done","21","m160done.wav","None","693.46590247","154","379231.688522","371514.934148","372281.384713","373048.47001","373815.148126","374564.737312","375331.379256","376098.213195","379981.138889","380748.123087","381514.709688","367698.304154","368465.167156","369231.691923","369981.143836","370748.291895","380796.285779","Mapping"
"Blocked","m160","done","21","m160depth.wav","space","445.973992813","154","379231.688522","371514.934148","372281.384713","373048.47001","373815.148126","374564.737312","375331.379256","376098.213195","379981.138889","380748.123087","381514.709688","382281.069974","368465.167156","369231.691923","369981.143836","370748.291895","381524.268705","Mapping"
"Blocked","m160","done","21","m160done.wav","None","727.112294175","154","379231.688522","371514.934148","372281.384713","373048.47001","373815.148126","374564.737312","375331.379256","376098.213195","379981.138889","380748.123087","381514.709688","382281.069974","383048.577293","369231.691923","369981.143836","370748.291895","382290.149773","Mapping"
"Blocked","m160","done","21","m160jaw.wav","space","415.810127743","154","379231.688522","371514.934148","372281.384713","373048.47001","373815.148126","374564.737312","375331.379256","376098.213195","379981.138889","380748.123087","381514.709688","382281.069974","383048.577293","383815.031259","369981.143836","370748.291895","383058.374992","Mapping"
"Blocked","m160","done","21","m160tile.wav","None","719.542497769","154","379231.688522","371514.934148","372281.384713","373048.47001","373815.148126","374564.737312","375331.379256","376098.213195","379981.138889","380748.123087","381514.709688","382281.069974","383048.577293","383815.031259","384564.18853","370748.291895","383825.195019","Mapping"
"Blocked","m160","done","21","m160greet.wav","None","735.780892894","154","379231.688522","371514.934148","372281.384713","373048.47001","373815.148126","374564.737312","375331.379256","376098.213195","379981.138889","380748.123087","381514.709688","382281.069974","383048.577293","383815.031259","384564.18853","385331.16469","384573.367264","Mapping"
"Blocked","m160","done","21","m160done.wav","None","733.360066544","154","379231.688522","386097.978224","372281.384713","373048.47001","373815.148126","374564.737312","375331.379256","376098.213195","379981.138889","380748.123087","381514.709688","382281.069974","383048.577293","383815.031259","384564.18853","385331.16469","385340.290864","Mapping"
"Blocked","m160","done","21","m160bluff.wav","space","433.175768238","154","379231.688522","386097.978224","386864.344075","373048.47001","373815.148126","374564.737312","375331.379256","376098.213195","379981.138889","380748.123087","381514.709688","382281.069974","383048.577293","383815.031259","384564.18853","385331.16469","386112.985182","Mapping"
"Blocked","m160","done","21","m160lash.wav","None","727.743626572","154","379231.688522","386097.978224","386864.344075","387631.150499","373815.148126","374564.737312","375331.379256","376098.213195","379981.138889","380748.123087","381514.709688","382281.069974","383048.577293","383815.031259","384564.18853","385331.16469","386873.641531","Mapping"
"Blocked","m160","done","21","m160tile.wav","None","724.640764296","154","379231.688522","386097.978224","386864.344075","387631.150499","388398.370596","374564.737312","375331.379256","376098.213195","379981.138889","380748.123087","381514.709688","382281.069974","383048.577293","383815.031259","384564.18853","385331.16469","387640.988389","Mapping"
"Blocked","m160","done","21","m160done.wav","None","722.048346419","154","379231.688522","386097.978224","386864.344075","387631.150499","388398.370596","389164.887014","375331.379256","376098.213195","379981.138889","380748.123087","381514.709688","382281.069974","383048.577293","383815.031259","384564.18853","385331.16469","388407.988355","Mapping"
"Blocked","m160","done","21","m160cad.wav","space","323.272734415","154","379231.688522","386097.978224","386864.344075","387631.150499","388398.370596","389164.887014","389914.48764","376098.213195","379981.138889","380748.123087","381514.709688","382281.069974","383048.577293","383815.031259","384564.18853","385331.16469","389174.774991","Mapping"
"Blocked","m160","done","21","m160dime.wav","None","733.081192244","154","379231.688522","386097.978224","386864.344075","387631.150499","388398.370596","389164.887014","389914.48764","390681.119998","379981.138889","380748.123087","381514.709688","382281.069974","383048.577293","383815.031259","384564.18853","385331.16469","389924.127351","Mapping"
"Blocked","m160","ball","5","m160jolt.wav","None","731.778645422","154","393814.725796","386097.978224","386864.344075","387631.150499","388398.370596","389164.887014","389914.48764","390681.119998","379981.138889","380748.123087","381514.709688","382281.069974","383048.577293","383815.031259","384564.18853","385331.16469","390690.499695","Mapping"
"Blocked","m160","ball","5","m160romp.wav","None","719.133770559","154","393814.725796","386097.978224","386864.344075","387631.150499","388398.370596","389164.887014","389914.48764","390681.119998","394564.439888","380748.123087","381514.709688","382281.069974","383048.577293","383815.031259","384564.18853","385331.16469","393824.959738","Mapping"
"Blocked","m160","ball","5","m160done.wav","None","734.391777776","154","393814.725796","386097.978224","386864.344075","387631.150499","388398.370596","389164.887014","389914.48764","390681.119998","394564.439888","395331.049677","381514.709688","382281.069974","383048.577293","383815.031259","384564.18853","385331.16469","394573.831951","Mapping"
"Blocked","m160","ball","5","m160ball.wav","None","730.21886684","154","393814.725796","386097.978224","386864.344075","387631.150499","388398.370596","389164.887014","389914.48764","390681.119998","394564.439888","395331.049677","396097.835077","382281.069974","383048.577293","383815.031259","384564.18853","385331.16469","395342.380875","Mapping"
"Blocked","m160","ball","5","m160done.wav","space","502.448188141","154","393814.725796","386097.978224","386864.344075","387631.150499","388398.370596","389164.887014","389914.48764","390681.119998","394564.439888","395331.049677","396097.835077","396864.017279","383048.577293","383815.031259","384564.18853","385331.16469","396107.442325","Mapping"
"Blocked","m160","ball","5","m160ball.wav","None","727.358396165","154","393814.725796","386097.978224","386864.344075","387631.150499","388398.370596","389164.887014","389914.48764","390681.119998","394564.439888","395331.049677","396097.835077","396864.017279","397631.024047","383815.031259","384564.18853","385331.16469","396875.52316","Mapping"
"Blocked","m160","ball","5","m160done.wav","space","409.32398336","154","393814.725796","386097.978224","386864.344075","387631.150499","388398.370596","389164.887014","389914.48764","390681.119998","394564.439888","395331.049677","396097.835077","396864.017279","397631.024047","398398.145827","384564.18853","385331.16469","397640.574098","Mapping"
"Blocked","m160","ball","5","m160ball.wav","None","705.75399138","154","393814.725796","386097.978224","386864.344075","387631.150499","388398.370596","389164.887014","389914.48764","390681.119998","394564.439888","395331.049677","396097.835077","396864.017279","397631.024047","398398.145827","399164.978839","385331.16469","398424.610743","Mapping"
"Blocked","m160","ball","5","m160bluff.wav","space","475.361214485","154","393814.725796","386097.978224","386864.344075","387631.150499","388398.370596","389164.887014","389914.48764","390681.119998","394564.439888","395331.049677","396097.835077","396864.017279","397631.024047","398398.145827","399164.978839","399914.058507","399174.529508","Mapping"
"Blocked","m160","ball","5","m160knife.wav","None","735.009505879","154","393814.725796","400680.898012","386864.344075","387631.150499","388398.370596","389164.887014","389914.48764","390681.119998","394564.439888","395331.049677","396097.835077","396864.017279","397631.024047","398398.145827","399164.978839","399914.058507","399922.912918","Mapping"
"Blocked","m160","ball","5","m160ball.wav","None","732.964633964","154","393814.725796","400680.898012","401447.763178","387631.150499","388398.370596","389164.887014","389914.48764","390681.119998","394564.439888","395331.049677","396097.835077","396864.017279","397631.024047","398398.145827","399164.978839","399914.058507","400689.879185","Mapping"
"Blocked","m160","ball","5","m160jolt.wav","space","465.083060786","154","393814.725796","400680.898012","401447.763178","402214.342669","388398.370596","389164.887014","389914.48764","390681.119998","394564.439888","395331.049677","396097.835077","396864.017279","397631.024047","398398.145827","399164.978839","399914.058507","401456.741259","Mapping"
"Blocked","m160","ball","5","m160cave.wav","None","726.854444016","154","393814.725796","400680.898012","401447.763178","402214.342669","402980.902371","389164.887014","389914.48764","390681.119998","394564.439888","395331.049677","396097.835077","396864.017279","397631.024047","398398.145827","399164.978839","399914.058507","402223.446582","Mapping"
"Blocked","m160","ball","5","m160dime.wav","None","724.906034302","154","393814.725796","400680.898012","401447.763178","402214.342669","402980.902371","403748.104227","389914.48764","390681.119998","394564.439888","395331.049677","396097.835077","396864.017279","397631.024047","398398.145827","399164.978839","399914.058507","402989.917553","Mapping"
"Blocked","m160","ball","5","m160romp.wav","None","721.719695255","154","393814.725796","400680.898012","401447.763178","402214.342669","402980.902371","403748.104227","404514.654655","390681.119998","394564.439888","395331.049677","396097.835077","396864.017279","397631.024047","398398.145827","399164.978839","399914.058507","403757.658298","Mapping"
"Blocked","m160","ball","5","m160lash.wav","None","719.603714067","154","393814.725796","400680.898012","401447.763178","402214.342669","402980.902371","403748.104227","404514.654655","405264.152017","394564.439888","395331.049677","396097.835077","396864.017279","397631.024047","398398.145827","399164.978839","399914.058507","404524.316009","Mapping"
"Blocked","m160","cave","8","m160depth.wav","None","735.217269976","154","408397.978255","400680.898012","401447.763178","402214.342669","402980.902371","403748.104227","404514.654655","405264.152017","394564.439888","395331.049677","396097.835077","396864.017279","397631.024047","398398.145827","399164.978839","399914.058507","405273.191005","Mapping"
"Blocked","m160","cave","8","m160bluff.wav","None","719.056786504","154","408397.978255","400680.898012","401447.763178","402214.342669","402980.902371","403748.104227","404514.654655","405264.152017","409147.640715","395331.049677","396097.835077","396864.017279","397631.024047","398398.145827","399164.978839","399914.058507","408407.572518","Mapping"
"Blocked","m160","cave","8","m160cave.wav","None","738.943734672","154","408397.978255","400680.898012","401447.763178","402214.342669","402980.902371","403748.104227","404514.654655","405264.152017","409147.640715","409913.950915","396097.835077","396864.017279","397631.024047","398398.145827","399164.978839","399914.058507","409152.004076","Mapping"
"Blocked","m160","cave","8","m160jolt.wav","space","423.071987927","154","408397.978255","400680.898012","401447.763178","402214.342669","402980.902371","403748.104227","404514.654655","405264.152017","409147.640715","409913.950915","410680.700451","396864.017279","397631.024047","398398.145827","399164.978839","399914.058507","409922.587978","Mapping"
"Blocked","m160","cave","8","m160ball.wav","None","729.155310895","154","408397.978255","400680.898012","401447.763178","402214.342669","402980.902371","403748.104227","404514.654655","405264.152017","409147.640715","409913.950915","410680.700451","411447.54181","397631.024047","398398.145827","399164.978839","399914.058507","410689.698627","Mapping"
"Blocked","m160","cave","8","m160depth.wav","None","726.709750947","154","408397.978255","400680.898012","401447.763178","402214.342669","402980.902371","403748.104227","404514.654655","405264.152017","409147.640715","409913.950915","410680.700451","411447.54181","412214.498492","398398.145827","399164.978839","399914.058507","411456.597184","Mapping"
"Blocked","m160","cave","8","m160bluff.wav","None","723.517538048","154","408397.978255","400680.898012","401447.763178","402214.342669","402980.902371","403748.104227","404514.654655","405264.152017","409147.640715","409913.950915","410680.700451","411447.54181","412214.498492","412981.146618","399164.978839","399914.058507","412224.151497","Mapping"
"Blocked","m160","cave","8","m160gnash.wav","None","721.271394286","154","408397.978255","400680.898012","401447.763178","402214.342669","402980.902371","403748.104227","404514.654655","405264.152017","409147.640715","409913.950915","410680.700451","411447.54181","412214.498492","412981.146618","413747.902028","399914.058507","412990.720785","Mapping"
"Blocked","m160","cave","8","m160lash.wav","None","719.078738242","154","408397.978255","400680.898012","401447.763178","402214.342669","402980.902371","403748.104227","404514.654655","405264.152017","409147.640715","409913.950915","410680.700451","411447.54181","412214.498492","412981.146618","413747.902028","414497.411138","413757.49289","Mapping"
"Blocked","m160","cave","8","m160cave.wav","None","734.1163042","154","408397.978255","415264.117699","401447.763178","402214.342669","402980.902371","403748.104227","404514.654655","405264.152017","409147.640715","409913.950915","410680.700451","411447.54181","412214.498492","412981.146618","413747.902028","414497.411138","414506.743531","Mapping"
"Blocked","m160","cave","8","m160tile.wav","space","440.309321508","154","408397.978255","415264.117699","416030.61835","402214.342669","402980.902371","403748.104227","404514.654655","405264.152017","409147.640715","409913.950915","410680.700451","411447.54181","412214.498492","412981.146618","413747.902028","414497.411138","415273.254076","Mapping"
"Blocked","m160","cave","8","m160park.wav","None","728.258708492","154","408397.978255","415264.117699","416030.61835","416797.499902","402980.902371","403748.104227","404514.654655","405264.152017","409147.640715","409913.950915","410680.700451","411447.54181","412214.498492","412981.146618","413747.902028","414497.411138","416039.999283","Mapping"
"Blocked","m160","cave","8","m160cave.wav","None","726.296695415","154","408397.978255","415264.117699","416030.61835","416797.499902","417564.346209","403748.104227","404514.654655","405264.152017","409147.640715","409913.950915","410680.700451","411447.54181","412214.498492","412981.146618","413747.902028","414497.411138","416806.533325","Mapping"
"Blocked","m160","cave","8","m160priest.wav","space","539.122312795","154","408397.978255","415264.117699","416030.61835","416797.499902","417564.346209","418331.044112","404514.654655","405264.152017","409147.640715","409913.950915","410680.700451","411447.54181","412214.498492","412981.146618","413747.902028","414497.411138","417574.44226","Mapping"
"Blocked","m160","cave","8","m160cave.wav","None","719.57836207","154","408397.978255","415264.117699","416030.61835","416797.499902","417564.346209","418331.044112","419080.521377","405264.152017","409147.640715","409913.950915","410680.700451","411447.54181","412214.498492","412981.146618","413747.902028","414497.411138","418340.447924","Mapping"
"Blocked","m160","cave","8","m160bluff.wav","space","695.545401424","154","408397.978255","415264.117699","416030.61835","416797.499902","417564.346209","418331.044112","419080.521377","419847.269058","409147.640715","409913.950915","410680.700451","411447.54181","412214.498492","412981.146618","413747.902028","414497.411138","419089.997536","Mapping"
"Blocked","m160","cave","9","m160cad.wav","None","733.200842515","154","422980.927106","415264.117699","416030.61835","416797.499902","417564.346209","418331.044112","419080.521377","419847.269058","409147.640715","409913.950915","410680.700451","411447.54181","412214.498492","412981.146618","413747.902028","414497.411138","419856.108938","Mapping"
"Blocked","m160","cave","9","m160ball.wav","None","719.539406244","154","422980.927106","415264.117699","416030.61835","416797.499902","417564.346209","418331.044112","419080.521377","419847.269058","423730.438689","409913.950915","410680.700451","411447.54181","412214.498492","412981.146618","413747.902028","414497.411138","422990.919583","Mapping"
"Blocked","m160","cave","9","m160cave.wav","None","735.434618779","154","422980.927106","415264.117699","416030.61835","416797.499902","417564.346209","418331.044112","419080.521377","419847.269058","423730.438689","424497.331681","410680.700451","411447.54181","412214.498492","412981.146618","413747.902028","414497.411138","423739.419243","Mapping"
"Blocked","m160","cave","9","m160gnash.wav","space","451.963296626","154","422980.927106","415264.117699","416030.61835","416797.499902","417564.346209","418331.044112","419080.521377","419847.269058","423730.438689","424497.331681","425263.82924","411447.54181","412214.498492","412981.146618","413747.902028","414497.411138","424501.48264","Mapping"
"Blocked","m160","cave","9","m160cave.wav","None","729.880940635","154","422980.927106","415264.117699","416030.61835","416797.499902","417564.346209","418331.044112","419080.521377","419847.269058","423730.438689","424497.331681","425263.82924","426030.488497","412214.498492","412981.146618","413747.902028","414497.411138","425272.712404","Mapping"
"Blocked","m160","cave","9","m160knife.wav","space","441.866317764","154","422980.927106","415264.117699","416030.61835","416797.499902","417564.346209","418331.044112","419080.521377","419847.269058","423730.438689","424497.331681","425263.82924","426030.488497","426797.626045","412981.146618","413747.902028","414497.411138","426039.509553","Mapping"
"Blocked","m160","cave","9","m160cave.wav","None","722.641031723","154","422980.927106","415264.117699","416030.61835","416797.499902","417564.346209","418331.044112","419080.521377","419847.269058","423730.438689","424497.331681","425263.82924","426030.488497","426797.626045","427564.23336","413747.902028","414497.411138","426807.696434","Mapping"
"Blocked","m160","cave","9","m160priest.wav","space","363.630039617","154","422980.927106","415264.117699","416030.61835","416797.499902","417564.346209","418331.044112","419080.521377","419847.269058","423730.438689","424497.331681","425263.82924","426030.488497","426797.626045","427564.23336","428313.771842","414497.411138","427573.769499","Mapping"
"Blocked","m160","cave","9","m160bluff.wav","None","734.847807791","154","422980.927106","415264.117699","416030.61835","416797.499902","417564.346209","418331.044112","419080.521377","419847.269058","423730.438689","424497.331681","425263.82924","426030.488497","426797.626045","427564.23336","428313.771842","429080.38194","428322.91935","Mapping"
"Blocked","m160","cave","9","m160bluff.wav","None","732.770473231","154","422980.927106","429847.255145","416030.61835","416797.499902","417564.346209","418331.044112","419080.521377","419847.269058","423730.438689","424497.331681","425263.82924","426030.488497","426797.626045","427564.23336","428313.771842","429080.38194","429089.389083","Mapping"
"Blocked","m160","cave","9","m160romp.wav","None","730.244528037","154","422980.927106","429847.255145","430613.839273","416797.499902","417564.346209","418331.044112","419080.521377","419847.269058","423730.438689","424497.331681","425263.82924","426030.488497","426797.626045","427564.23336","428313.771842","429080.38194","429856.703478","Mapping"
"Blocked","m160","cave","9","m160depth.wav","None","728.422879707","154","422980.927106","429847.255145","430613.839273","431380.350436","417564.346209","418331.044112","419080.521377","419847.269058","423730.438689","424497.331681","425263.82924","426030.488497","426797.626045","427564.23336","428313.771842","429080.38194","430623.085715","Mapping"
"Blocked","m160","cave","9","m160cad.wav","None","726.704185829","154","422980.927106","429847.255145","430613.839273","431380.350436","432147.428931","418331.044112","419080.521377","419847.269058","423730.438689","424497.331681","425263.82924","426030.488497","426797.626045","427564.23336","428313.771842","429080.38194","431389.350777","Mapping"
"Blocked","m160","cave","9","m160cave.wav","None","723.627912346","154","422980.927106","429847.255145","430613.839273","431380.350436","432147.428931","432914.123743","419080.521377","419847.269058","423730.438689","424497.331681","425263.82924","426030.488497","426797.626045","427564.23336","428313.771842","429080.38194","432157.208079","Mapping"
"Blocked","m160","cave","9","m160park.wav","space","477.418452967","154","422980.927106","429847.255145","430613.839273","431380.350436","432147.428931","432914.123743","433663.385824","419847.269058","423730.438689","424497.331681","425263.82924","426030.488497","426797.626045","427564.23336","428313.771842","429080.38194","432923.862081","Mapping"
"Blocked","m160","cave","9","m160gnash.wav","None","736.278661527","154","422980.927106","429847.255145","430613.839273","431380.350436","432147.428931","432914.123743","433663.385824","434430.234604","423730.438689","424497.331681","425263.82924","426030.488497","426797.626045","427564.23336","428313.771842","429080.38194","433672.154285","Mapping"
"Blocked","m160","tile","17","m160park.wav","None","733.858144376","154","437564.09114","429847.255145","430613.839273","431380.350436","432147.428931","432914.123743","433663.385824","434430.234604","423730.438689","424497.331681","425263.82924","426030.488497","426797.626045","427564.23336","428313.771842","429080.38194","434439.257515","Mapping"
"Blocked","m160","tile","17","m160tile.wav","None","719.118621666","154","437564.09114","429847.255145","430613.839273","431380.350436","432147.428931","432914.123743","433663.385824","434430.234604","438313.573971","424497.331681","425263.82924","426030.488497","426797.626045","427564.23336","428313.771842","429080.38194","437574.043426","Mapping"
"Blocked","m160","tile","17","m160park.wav","space","574.695162941","154","437564.09114","429847.255145","430613.839273","431380.350436","432147.428931","432914.123743","433663.385824","434430.234604","438313.573971","439080.27713","425263.82924","426030.488497","426797.626045","427564.23336","428313.771842","429080.38194","438322.497019","Mapping"
"Blocked","m160","tile","17","m160tile.wav","None","731.901696417","154","437564.09114","429847.255145","430613.839273","431380.350436","432147.428931","432914.123743","433663.385824","434430.234604","438313.573971","439080.27713","439847.110452","426030.488497","426797.626045","427564.23336","428313.771842","429080.38194","439089.28551","Mapping"
"Blocked","m160","tile","17","m160jolt.wav","space","448.99306912","154","437564.09114","429847.255145","430613.839273","431380.350436","432147.428931","432914.123743","433663.385824","434430.234604","438313.573971","439080.27713","439847.110452","440613.688705","426797.626045","427564.23336","428313.771842","429080.38194","439856.129962","Mapping"
"Blocked","m160","tile","17","m160jolt.wav","None","726.020294707","154","437564.09114","429847.255145","430613.839273","431380.350436","432147.428931","432914.123743","433663.385824","434430.234604","438313.573971","439080.27713","439847.110452","440613.688705","441380.437622","427564.23336","428313.771842","429080.38194","440622.869913","Mapping"
"Blocked","m160","tile","17","m160romp.wav","None","723.695621826","154","437564.09114","429847.255145","430613.839273","431380.350436","432147.428931","432914.123743","433663.385824","434430.234604","438313.573971","439080.27713","439847.110452","440613.688705","441380.437622","442146.802546","428313.771842","429080.38194","441390.032194","Mapping"
"Blocked","m160","tile","17","m160knife.wav","None","722.735329531","154","437564.09114","429847.255145","430613.839273","431380.350436","432147.428931","432914.123743","433663.385824","434430.234604","438313.573971","439080.27713","439847.110452","440613.688705","441380.437622","442146.802546","442913.91907","429080.38194","442155.72714","Mapping"
"Blocked","m160","tile","17","m160tile.wav","None","719.885061961","154","437564.09114","429847.255145","430613.839273","431380.350436","432147.428931","432914.123743","433663.385824","434430.234604","438313.573971","439080.27713","439847.110452","440613.688705","441380.437622","442146.802546","442913.91907","443663.198774","442923.504058","Mapping"
"Blocked","m160","tile","17","m160dime.wav","space","472.965431865","154","437564.09114","444430.11248","430613.839273","431380.350436","432147.428931","432914.123743","433663.385824","434430.234604","438313.573971","439080.27713","439847.110452","440613.688705","441380.437622","442146.802546","442913.91907","443663.198774","443672.095851","Mapping"
"Blocked","m160","tile","17","m160reek.wav","None","732.042370364","154","437564.09114","444430.11248","445196.989704","431380.350436","432147.428931","432914.123743","433663.385824","434430.234604","438313.573971","439080.27713","439847.110452","440613.688705","441380.437622","442146.802546","442913.91907","443663.198774","444439.169709","Mapping"
"Blocked","m160","tile","17","m160cad.wav","None","729.955141898","154","437564.09114","444430.11248","445196.989704","445963.636904","432147.428931","432914.123743","433663.385824","434430.234604","438313.573971","439080.27713","439847.110452","440613.688705","441380.437622","442146.802546","442913.91907","443663.198774","445205.994683","Mapping"
"Blocked","m160","tile","17","m160tile.wav","None","727.897594683","154","437564.09114","444430.11248","445196.989704","445963.636904","446730.092415","432914.123743","433663.385824","434430.234604","438313.573971","439080.27713","439847.110452","440613.688705","441380.437622","442146.802546","442913.91907","443663.198774","445972.744836","Mapping"
