"Condition","Talker","Target","Trial","current_stimulus","response_response","response_time_response","subject_nr","time_Audio1","time_Audio10","time_Audio11","time_Audio12","time_Audio13","time_Audio14","time_Audio15","time_Audio16","time_Audio2","time_Audio3","time_Audio4","time_Audio5","time_Audio6","time_Audio7","time_Audio8","time_Audio9","time_response","title"
"Blocked","m160","tile","18","m160dime.wav","NA","NA","110","252799.001553","NA","NA","NA","NA","NA","NA","NA","NA","NA","NA","NA","NA","NA","NA","NA","NA","Mapping"
"Blocked","m160","tile","18","m160tile.wav","None","717.934852699","110","252799.001553","NA","NA","NA","NA","NA","NA","NA","253565.750058","NA","NA","NA","NA","NA","NA","NA","252813.729373","Mapping"
"Blocked","m160","tile","18","m160cling.wav","space","595.09315883","110","252799.001553","NA","NA","NA","NA","NA","NA","NA","253565.750058","254331.758091","NA","NA","NA","NA","NA","NA","253575.236139","Mapping"
"Blocked","m160","tile","18","m160jolt.wav","None","723.862648767","110","252799.001553","NA","NA","NA","NA","NA","NA","NA","253565.750058","254331.758091","255098.354482","NA","NA","NA","NA","NA","254341.007345","Mapping"
"Blocked","m160","tile","18","m160depth.wav","None","724.127610971","110","252799.001553","NA","NA","NA","NA","NA","NA","NA","253565.750058","254331.758091","255098.354482","255865.799248","NA","NA","NA","NA","255107.424725","Mapping"
"Blocked","m160","tile","18","m160knife.wav","None","722.448486194","110","252799.001553","NA","NA","NA","NA","NA","NA","NA","253565.750058","254331.758091","255098.354482","255865.799248","256631.988148","NA","NA","NA","255875.712917","Mapping"
"Blocked","m160","tile","18","m160tile.wav","None","723.348492116","110","252799.001553","NA","NA","NA","NA","NA","NA","NA","253565.750058","254331.758091","255098.354482","255865.799248","256631.988148","257399.109826","NA","NA","256641.348086","Mapping"
"Blocked","m160","tile","18","m160cling.wav","space","409.16138672","110","252799.001553","NA","NA","NA","NA","NA","NA","NA","253565.750058","254331.758091","255098.354482","255865.799248","256631.988148","257399.109826","258148.509951","NA","257409.132324","Mapping"
"Blocked","m160","tile","18","m160tile.wav","None","732.850650675","110","252799.001553","NA","NA","NA","NA","NA","NA","NA","253565.750058","254331.758091","255098.354482","255865.799248","256631.988148","257399.109826","258148.509951","258915.251963","258158.288202","Mapping"
"Blocked","m160","tile","18","m160cave.wav","space","709.618686233","110","252799.001553","259681.475181","NA","NA","NA","NA","NA","NA","253565.750058","254331.758091","255098.354482","255865.799248","256631.988148","257399.109826","258148.509951","258915.251963","258924.644056","Mapping"
"Blocked","m160","tile","18","m160priest.wav","None","729.864337482","110","252799.001553","259681.475181","260448.47319","NA","NA","NA","NA","NA","253565.750058","254331.758091","255098.354482","255865.799248","256631.988148","257399.109826","258148.509951","258915.251963","259690.788743","Mapping"
"Blocked","m160","tile","18","m160reek.wav","None","729.774986103","110","252799.001553","259681.475181","260448.47319","261215.080402","NA","NA","NA","NA","253565.750058","254331.758091","255098.354482","255865.799248","256631.988148","257399.109826","258148.509951","258915.251963","260457.595682","Mapping"
"Blocked","m160","tile","18","m160priest.wav","None","721.750370925","110","252799.001553","259681.475181","260448.47319","261215.080402","261981.453879","NA","NA","NA","253565.750058","254331.758091","255098.354482","255865.799248","256631.988148","257399.109826","258148.509951","258915.251963","261232.416725","Mapping"
"Blocked","m160","tile","18","m160reek.wav","None","726.753427123","110","252799.001553","259681.475181","260448.47319","261215.080402","261981.453879","262748.894007","NA","NA","253565.750058","254331.758091","255098.354482","255865.799248","256631.988148","257399.109826","258148.509951","258915.251963","261991.016636","Mapping"
"Blocked","m160","tile","18","m160tile.wav","None","722.117360681","110","252799.001553","259681.475181","260448.47319","261215.080402","261981.453879","262748.894007","263515.59459","NA","253565.750058","254331.758091","255098.354482","255865.799248","256631.988148","257399.109826","258148.509951","258915.251963","262758.911559","Mapping"
"Blocked","m160","tile","18","m160romp.wav","space","460.172649007","110","252799.001553","259681.475181","260448.47319","261215.080402","261981.453879","262748.894007","263515.59459","264282.02681","253565.750058","254331.758091","255098.354482","255865.799248","256631.988148","257399.109826","258148.509951","258915.251963","263526.008503","Mapping"
"Blocked","m160","cave","12","m160cling.wav","None","718.29411306","110","267448.537807","259681.475181","260448.47319","261215.080402","261981.453879","262748.894007","263515.59459","264282.02681","253565.750058","254331.758091","255098.354482","255865.799248","256631.988148","257399.109826","258148.509951","258915.251963","264292.531311","Mapping"
"Blocked","m160","cave","12","m160ball.wav","None","718.736232084","110","267448.537807","259681.475181","260448.47319","261215.080402","261981.453879","262748.894007","263515.59459","264282.02681","268215.321867","254331.758091","255098.354482","255865.799248","256631.988148","257399.109826","258148.509951","258915.251963","267459.293049","Mapping"
"Blocked","m160","cave","12","m160jaw.wav","None","719.727753603","110","267448.537807","259681.475181","260448.47319","261215.080402","261981.453879","262748.894007","263515.59459","264282.02681","268215.321867","268981.570438","255098.354482","255865.799248","256631.988148","257399.109826","258148.509951","258915.251963","268225.392906","Mapping"
"Blocked","m160","cave","12","m160knife.wav","None","721.109762089","110","267448.537807","259681.475181","260448.47319","261215.080402","261981.453879","262748.894007","263515.59459","264282.02681","268215.321867","268981.570438","269731.590148","255865.799248","256631.988148","257399.109826","258148.509951","258915.251963","268990.815363","Mapping"
"Blocked","m160","cave","12","m160priest.wav","None","734.482471831","110","267448.537807","259681.475181","260448.47319","261215.080402","261981.453879","262748.894007","263515.59459","264282.02681","268215.321867","268981.570438","269731.590148","270498.244355","256631.988148","257399.109826","258148.509951","258915.251963","269741.132808","Mapping"
"Blocked","m160","cave","12","m160romp.wav","None","730.661079288","110","267448.537807","259681.475181","260448.47319","261215.080402","261981.453879","262748.894007","263515.59459","264282.02681","268215.321867","268981.570438","269731.590148","270498.244355","271264.943083","257399.109826","258148.509951","258915.251963","270508.336727","Mapping"
"Blocked","m160","cave","12","m160cave.wav","None","728.453266667","110","267448.537807","259681.475181","260448.47319","261215.080402","261981.453879","262748.894007","263515.59459","264282.02681","268215.321867","268981.570438","269731.590148","270498.244355","271264.943083","272031.542566","258148.509951","258915.251963","271274.120299","Mapping"
"Blocked","m160","cave","12","m160reek.wav","space","448.879135482","110","267448.537807","259681.475181","260448.47319","261215.080402","261981.453879","262748.894007","263515.59459","264282.02681","268215.321867","268981.570438","269731.590148","270498.244355","271264.943083","272031.542566","272798.677229","258915.251963","272041.193128","Mapping"
"Blocked","m160","cave","12","m160cave.wav","None","719.98189477","110","267448.537807","259681.475181","260448.47319","261215.080402","261981.453879","262748.894007","263515.59459","264282.02681","268215.321867","268981.570438","269731.590148","270498.244355","271264.943083","272031.542566","272798.677229","273548.373543","272808.678086","Mapping"
"Blocked","m160","cave","12","m160jolt.wav","space","443.673879374","110","267448.537807","274314.875636","260448.47319","261215.080402","261981.453879","262748.894007","263515.59459","264282.02681","268215.321867","268981.570438","269731.590148","270498.244355","271264.943083","272031.542566","272798.677229","273548.373543","273558.371308","Mapping"
"Blocked","m160","cave","12","m160reek.wav","None","730.565853592","110","267448.537807","274314.875636","275081.452859","261215.080402","261981.453879","262748.894007","263515.59459","264282.02681","268215.321867","268981.570438","269731.590148","270498.244355","271264.943083","272031.542566","272798.677229","273548.373543","274324.286898","Mapping"
"Blocked","m160","cave","12","m160cave.wav","None","727.019935206","110","267448.537807","274314.875636","275081.452859","275848.557842","261981.453879","262748.894007","263515.59459","264282.02681","268215.321867","268981.570438","269731.590148","270498.244355","271264.943083","272031.542566","272798.677229","273548.373543","275091.066629","Mapping"
"Blocked","m160","cave","12","m160lash.wav","space","358.934808464","110","267448.537807","274314.875636","275081.452859","275848.557842","276615.211739","262748.894007","263515.59459","264282.02681","268215.321867","268981.570438","269731.590148","270498.244355","271264.943083","272031.542566","272798.677229","273548.373543","275859.062961","Mapping"
"Blocked","m160","cave","12","m160gnash.wav","None","722.198055126","110","267448.537807","274314.875636","275081.452859","275848.557842","276615.211739","277381.801947","263515.59459","264282.02681","268215.321867","268981.570438","269731.590148","270498.244355","271264.943083","272031.542566","272798.677229","273548.373543","276625.783331","Mapping"
"Blocked","m160","cave","12","m160cave.wav","None","722.724887892","110","267448.537807","274314.875636","275081.452859","275848.557842","276615.211739","277381.801947","278148.440696","264282.02681","268215.321867","268981.570438","269731.590148","270498.244355","271264.943083","272031.542566","272798.677229","273548.373543","277391.831557","Mapping"
"Blocked","m160","cave","12","m160tile.wav","space","355.445778114","110","267448.537807","274314.875636","275081.452859","275848.557842","276615.211739","277381.801947","278148.440696","278897.839275","268215.321867","268981.570438","269731.590148","270498.244355","271264.943083","272031.542566","272798.677229","273548.373543","278158.529357","Mapping"
"Blocked","m160","done","19","m160cling.wav","None","733.736125403","110","282031.651395","274314.875636","275081.452859","275848.557842","276615.211739","277381.801947","278148.440696","278897.839275","268215.321867","268981.570438","269731.590148","270498.244355","271264.943083","272031.542566","272798.677229","273548.373543","278907.231367","Mapping"
"Blocked","m160","done","19","m160priest.wav","None","719.12795573","110","282031.651395","274314.875636","275081.452859","275848.557842","276615.211739","277381.801947","278148.440696","278897.839275","282781.074708","268981.570438","269731.590148","270498.244355","271264.943083","272031.542566","272798.677229","273548.373543","282041.761699","Mapping"
"Blocked","m160","done","19","m160jolt.wav","None","733.949764748","110","282031.651395","274314.875636","275081.452859","275848.557842","276615.211739","277381.801947","278148.440696","278897.839275","282781.074708","283548.290993","269731.590148","270498.244355","271264.943083","272031.542566","272798.677229","273548.373543","282790.258417","Mapping"
"Blocked","m160","done","19","m160gnash.wav","None","729.542796325","110","282031.651395","274314.875636","275081.452859","275848.557842","276615.211739","277381.801947","278148.440696","278897.839275","282781.074708","283548.290993","284314.734653","270498.244355","271264.943083","272031.542566","272798.677229","273548.373543","283557.992878","Mapping"
"Blocked","m160","done","19","m160priest.wav","None","726.60069511","110","282031.651395","274314.875636","275081.452859","275848.557842","276615.211739","277381.801947","278148.440696","278897.839275","282781.074708","283548.290993","284314.734653","285081.490578","271264.943083","272031.542566","272798.677229","273548.373543","284324.308231","Mapping"
"Blocked","m160","done","19","m160done.wav","None","721.815606696","110","282031.651395","274314.875636","275081.452859","275848.557842","276615.211739","277381.801947","278148.440696","278897.839275","282781.074708","283548.290993","284314.734653","285081.490578","285848.550112","272031.542566","272798.677229","273548.373543","285092.430087","Mapping"
"Blocked","m160","done","19","m160park.wav","space","599.05893571","110","282031.651395","274314.875636","275081.452859","275848.557842","276615.211739","277381.801947","278148.440696","278897.839275","282781.074708","283548.290993","284314.734653","285081.490578","285848.550112","286615.153306","272798.677229","273548.373543","285858.7677","Mapping"
"Blocked","m160","done","19","m160park.wav","None","722.212586261","110","282031.651395","274314.875636","275081.452859","275848.557842","276615.211739","277381.801947","278148.440696","278897.839275","282781.074708","283548.290993","284314.734653","285081.490578","285848.550112","286615.153306","287381.596347","273548.373543","286625.165601","Mapping"
"Blocked","m160","done","19","m160done.wav","None","719.203085057","110","282031.651395","274314.875636","275081.452859","275848.557842","276615.211739","277381.801947","278148.440696","278897.839275","282781.074708","283548.290993","284314.734653","285081.490578","285848.550112","286615.153306","287381.596347","288131.239173","287391.536296","Mapping"
"Blocked","m160","done","19","m160cave.wav","space","588.692017074","110","282031.651395","288897.970674","275081.452859","275848.557842","276615.211739","277381.801947","278148.440696","278897.839275","282781.074708","283548.290993","284314.734653","285081.490578","285848.550112","286615.153306","287381.596347","288131.239173","288141.14233","Mapping"
"Blocked","m160","done","19","m160done.wav","None","728.96742326","110","282031.651395","288897.970674","289664.678058","275848.557842","276615.211739","277381.801947","278148.440696","278897.839275","282781.074708","283548.290993","284314.734653","285081.490578","285848.550112","286615.153306","287381.596347","288131.239173","288908.13261","Mapping"
"Blocked","m160","done","19","m160jolt.wav","space","455.084569985","110","282031.651395","288897.970674","289664.678058","290431.762018","276615.211739","277381.801947","278148.440696","278897.839275","282781.074708","283548.290993","284314.734653","285081.490578","285848.550112","286615.153306","287381.596347","288131.239173","289674.689118","Mapping"
"Blocked","m160","done","19","m160cave.wav","None","721.564248088","110","282031.651395","288897.970674","289664.678058","290431.762018","291198.433538","277381.801947","278148.440696","278897.839275","282781.074708","283548.290993","284314.734653","285081.490578","285848.550112","286615.153306","287381.596347","288131.239173","290441.813269","Mapping"
"Blocked","m160","done","19","m160done.wav","space","257.239699306","110","282031.651395","288897.970674","289664.678058","290431.762018","291198.433538","291948.057196","278148.440696","278897.839275","282781.074708","283548.290993","284314.734653","285081.490578","285848.550112","286615.153306","287381.596347","288131.239173","291208.551572","Mapping"
"Blocked","m160","done","19","m160bluff.wav","None","732.610113162","110","282031.651395","288897.970674","289664.678058","290431.762018","291198.433538","291948.057196","292714.619578","278897.839275","282781.074708","283548.290993","284314.734653","285081.490578","285848.550112","286615.153306","287381.596347","288131.239173","291957.572958","Mapping"
"Blocked","m160","done","19","m160cling.wav","space","308.216334146","110","282031.651395","288897.970674","289664.678058","290431.762018","291198.433538","291948.057196","292714.619578","293481.162482","282781.074708","283548.290993","284314.734653","285081.490578","285848.550112","286615.153306","287381.596347","288131.239173","292725.506219","Mapping"
"Blocked","m160","done","22","m160park.wav","None","728.906206728","110","296614.923589","288897.970674","289664.678058","290431.762018","291198.433538","291948.057196","292714.619578","293481.162482","282781.074708","283548.290993","284314.734653","285081.490578","285848.550112","286615.153306","287381.596347","288131.239173","293490.989583","Mapping"
"Blocked","m160","done","22","m160done.wav","None","718.904422829","110","296614.923589","288897.970674","289664.678058","290431.762018","291198.433538","291948.057196","292714.619578","293481.162482","297364.541063","283548.290993","284314.734653","285081.490578","285848.550112","286615.153306","287381.596347","288131.239173","296624.683599","Mapping"
"Blocked","m160","done","22","m160gnash.wav","space","515.533064143","110","296614.923589","288897.970674","289664.678058","290431.762018","291198.433538","291948.057196","292714.619578","293481.162482","297364.541063","298131.138692","284314.734653","285081.490578","285848.550112","286615.153306","287381.596347","288131.239173","297374.173384","Mapping"
"Blocked","m160","done","22","m160greet.wav","None","728.768005909","110","296614.923589","288897.970674","289664.678058","290431.762018","291198.433538","291948.057196","292714.619578","293481.162482","297364.541063","298131.138692","298897.723025","285081.490578","285848.550112","286615.153306","287381.596347","288131.239173","298141.151297","Mapping"
"Blocked","m160","done","22","m160ball.wav","None","728.486966633","110","296614.923589","288897.970674","289664.678058","290431.762018","291198.433538","291948.057196","292714.619578","293481.162482","297364.541063","298131.138692","298897.723025","299664.51265","285848.550112","286615.153306","287381.596347","288131.239173","298908.131682","Mapping"
"Blocked","m160","done","22","m160park.wav","None","725.575164368","110","296614.923589","288897.970674","289664.678058","290431.762018","291198.433538","291948.057196","292714.619578","293481.162482","297364.541063","298131.138692","298897.723025","299664.51265","300431.472631","286615.153306","287381.596347","288131.239173","299674.44858","Mapping"
"Blocked","m160","done","22","m160gnash.wav","None","722.019352426","110","296614.923589","288897.970674","289664.678058","290431.762018","291198.433538","291948.057196","292714.619578","293481.162482","297364.541063","298131.138692","298897.723025","299664.51265","300431.472631","301198.158682","287381.596347","288131.239173","300441.357856","Mapping"
"Blocked","m160","done","22","m160knife.wav","None","718.174153473","110","296614.923589","288897.970674","289664.678058","290431.762018","291198.433538","291948.057196","292714.619578","293481.162482","297364.541063","298131.138692","298897.723025","299664.51265","300431.472631","301198.158682","301947.779248","288131.239173","301208.532094","Mapping"
"Blocked","m160","done","22","m160cave.wav","None","732.95205977","110","296614.923589","288897.970674","289664.678058","290431.762018","291198.433538","291948.057196","292714.619578","293481.162482","297364.541063","298131.138692","298897.723025","299664.51265","300431.472631","301198.158682","301947.779248","302714.478286","301957.554408","Mapping"
"Blocked","m160","done","22","m160romp.wav","None","729.66337431","110","296614.923589","303480.87526","289664.678058","290431.762018","291198.433538","291948.057196","292714.619578","293481.162482","297364.541063","298131.138692","298897.723025","299664.51265","300431.472631","301198.158682","301947.779248","302714.478286","302724.216035","Mapping"
"Blocked","m160","done","22","m160done.wav","None","727.722069772","110","296614.923589","303480.87526","304248.335793","290431.762018","291198.433538","291948.057196","292714.619578","293481.162482","297364.541063","298131.138692","298897.723025","299664.51265","300431.472631","301198.158682","301947.779248","302714.478286","303490.138427","Mapping"
"Blocked","m160","done","22","m160cad.wav","space","375.050202128","110","296614.923589","303480.87526","304248.335793","305014.931875","291198.433538","291948.057196","292714.619578","293481.162482","297364.541063","298131.138692","298897.723025","299664.51265","300431.472631","301198.158682","301947.779248","302714.478286","304258.536067","Mapping"
"Blocked","m160","done","22","m160done.wav","None","723.286657361","110","296614.923589","303480.87526","304248.335793","305014.931875","305781.286492","291948.057196","292714.619578","293481.162482","297364.541063","298131.138692","298897.723025","299664.51265","300431.472631","301198.158682","301947.779248","302714.478286","305024.65633","Mapping"
"Blocked","m160","done","22","m160greet.wav","space","610.235272266","110","296614.923589","303480.87526","304248.335793","305014.931875","305781.286492","306530.921899","292714.619578","293481.162482","297364.541063","298131.138692","298897.723025","299664.51265","300431.472631","301198.158682","301947.779248","302714.478286","305791.332179","Mapping"
"Blocked","m160","done","22","m160done.wav","None","734.029840853","110","296614.923589","303480.87526","304248.335793","305014.931875","305781.286492","306530.921899","307297.800875","293481.162482","297364.541063","298131.138692","298897.723025","299664.51265","300431.472631","301198.158682","301947.779248","302714.478286","306540.431168","Mapping"
"Blocked","m160","done","22","m160tile.wav","space","366.233173583","110","296614.923589","303480.87526","304248.335793","305014.931875","305781.286492","306530.921899","307297.800875","308064.362021","297364.541063","298131.138692","298897.723025","299664.51265","300431.472631","301198.158682","301947.779248","302714.478286","307307.280155","Mapping"
"Blocked","m160","done","20","m160jaw.wav","None","726.637177635","110","311181.383202","303480.87526","304248.335793","305014.931875","305781.286492","306530.921899","307297.800875","308064.362021","297364.541063","298131.138692","298897.723025","299664.51265","300431.472631","301198.158682","301947.779248","302714.478286","308074.177063","Mapping"
"Blocked","m160","done","20","m160cad.wav","None","718.703768798","110","311181.383202","303480.87526","304248.335793","305014.931875","305781.286492","306530.921899","307297.800875","308064.362021","311930.819191","298131.138692","298897.723025","299664.51265","300431.472631","301198.158682","301947.779248","302714.478286","311191.704981","Mapping"
"Blocked","m160","done","20","m160done.wav","None","732.372358209","110","311181.383202","303480.87526","304248.335793","305014.931875","305781.286492","306530.921899","307297.800875","308064.362021","311930.819191","312697.184629","298897.723025","299664.51265","300431.472631","301198.158682","301947.779248","302714.478286","311941.42541","Mapping"
"Blocked","m160","done","20","m160park.wav","space","423.107614566","110","311181.383202","303480.87526","304248.335793","305014.931875","305781.286492","306530.921899","307297.800875","308064.362021","311930.819191","312697.184629","313463.939318","299664.51265","300431.472631","301198.158682","301947.779248","302714.478286","312706.350097","Mapping"
"Blocked","m160","done","20","m160cave.wav","None","726.972631586","110","311181.383202","303480.87526","304248.335793","305014.931875","305781.286492","306530.921899","307297.800875","308064.362021","311930.819191","312697.184629","313463.939318","314230.491806","300431.472631","301198.158682","301947.779248","302714.478286","313473.504857","Mapping"
"Blocked","m160","done","20","m160done.wav","None","725.90350738","110","311181.383202","303480.87526","304248.335793","305014.931875","305781.286492","306530.921899","307297.800875","308064.362021","311930.819191","312697.184629","313463.939318","314230.491806","314998.174327","301198.158682","301947.779248","302714.478286","314239.497122","Mapping"
"Blocked","m160","done","20","m160reek.wav","space","358.816085616","110","311181.383202","303480.87526","304248.335793","305014.931875","305781.286492","306530.921899","307297.800875","308064.362021","311930.819191","312697.184629","313463.939318","314230.491806","314998.174327","315747.359885","301947.779248","302714.478286","315002.612212","Mapping"
"Blocked","m160","done","20","m160lash.wav","None","734.797211131","110","311181.383202","303480.87526","304248.335793","305014.931875","305781.286492","306530.921899","307297.800875","308064.362021","311930.819191","312697.184629","313463.939318","314230.491806","314998.174327","315747.359885","316514.259576","302714.478286","315757.032089","Mapping"
"Blocked","m160","done","20","m160bluff.wav","None","731.350846821","110","311181.383202","303480.87526","304248.335793","305014.931875","305781.286492","306530.921899","307297.800875","308064.362021","311930.819191","312697.184629","313463.939318","314230.491806","314998.174327","315747.359885","316514.259576","317280.755795","316523.995161","Mapping"
"Blocked","m160","done","20","m160knife.wav","None","728.619293193","110","311181.383202","318047.673418","304248.335793","305014.931875","305781.286492","306530.921899","307297.800875","308064.362021","311930.819191","312697.184629","313463.939318","314230.491806","314998.174327","315747.359885","316514.259576","317280.755795","317290.313914","Mapping"
"Blocked","m160","done","20","m160done.wav","None","725.013394956","110","311181.383202","318047.673418","318814.578984","305014.931875","305781.286492","306530.921899","307297.800875","308064.362021","311930.819191","312697.184629","313463.939318","314230.491806","314998.174327","315747.359885","316514.259576","317280.755795","318057.318724","Mapping"
"Blocked","m160","done","20","m160greet.wav","space","312.811898766","110","311181.383202","318047.673418","318814.578984","319563.717856","305781.286492","306530.921899","307297.800875","308064.362021","311930.819191","312697.184629","313463.939318","314230.491806","314998.174327","315747.359885","316514.259576","317280.755795","318824.561599","Mapping"
"Blocked","m160","done","20","m160tile.wav","None","736.210446223","110","311181.383202","318047.673418","318814.578984","319563.717856","320330.487076","306530.921899","307297.800875","308064.362021","311930.819191","312697.184629","313463.939318","314230.491806","314998.174327","315747.359885","316514.259576","317280.755795","319573.164363","Mapping"
"Blocked","m160","done","20","m160done.wav","None","732.592799352","110","311181.383202","318047.673418","318814.578984","319563.717856","320330.487076","321097.541045","307297.800875","308064.362021","311930.819191","312697.184629","313463.939318","314230.491806","314998.174327","315747.359885","316514.259576","317280.755795","320340.274293","Mapping"
"Blocked","m160","done","20","m160dime.wav","space","318.353227165","110","311181.383202","318047.673418","318814.578984","319563.717856","320330.487076","321097.541045","321863.846813","308064.362021","311930.819191","312697.184629","313463.939318","314230.491806","314998.174327","315747.359885","316514.259576","317280.755795","321107.01074","Mapping"
"Blocked","m160","done","20","m160reek.wav","None","726.374379592","110","311181.383202","318047.673418","318814.578984","319563.717856","320330.487076","321097.541045","321863.846813","322631.092161","311930.819191","312697.184629","313463.939318","314230.491806","314998.174327","315747.359885","316514.259576","317280.755795","321873.045981","Mapping"
"Blocked","m160","done","21","m160bluff.wav","None","721.697811328","110","325747.87466","318047.673418","318814.578984","319563.717856","320330.487076","321097.541045","321863.846813","322631.092161","311930.819191","312697.184629","313463.939318","314230.491806","314998.174327","315747.359885","316514.259576","317280.755795","322641.210503","Mapping"
"Blocked","m160","done","21","m160done.wav","None","719.024691556","110","325747.87466","318047.673418","318814.578984","319563.717856","320330.487076","321097.541045","321863.846813","322631.092161","326497.304156","312697.184629","313463.939318","314230.491806","314998.174327","315747.359885","316514.259576","317280.755795","325758.160884","Mapping"
"Blocked","m160","done","21","m160bluff.wav","space","414.073236578","110","325747.87466","318047.673418","318814.578984","319563.717856","320330.487076","321097.541045","321863.846813","322631.092161","326497.304156","327264.086361","313463.939318","314230.491806","314998.174327","315747.359885","316514.259576","317280.755795","326507.189381","Mapping"
"Blocked","m160","done","21","m160done.wav","None","730.231327179","110","325747.87466","318047.673418","318814.578984","319563.717856","320330.487076","321097.541045","321863.846813","322631.092161","326497.304156","327264.086361","328030.341115","314230.491806","314998.174327","315747.359885","316514.259576","317280.755795","327273.847607","Mapping"
"Blocked","m160","done","21","m160jaw.wav","space","369.835361664","110","325747.87466","318047.673418","318814.578984","319563.717856","320330.487076","321097.541045","321863.846813","322631.092161","326497.304156","327264.086361","328030.341115","328797.734866","314998.174327","315747.359885","316514.259576","317280.755795","328039.39528","Mapping"
"Blocked","m160","done","21","m160cling.wav","None","722.520523763","110","325747.87466","318047.673418","318814.578984","319563.717856","320330.487076","321097.541045","321863.846813","322631.092161","326497.304156","327264.086361","328030.341115","328797.734866","329563.966432","315747.359885","316514.259576","317280.755795","328808.206595","Mapping"
"Blocked","m160","done","21","m160done.wav","None","721.31041612","110","325747.87466","318047.673418","318814.578984","319563.717856","320330.487076","321097.541045","321863.846813","322631.092161","326497.304156","327264.086361","328030.341115","328797.734866","329563.966432","330313.824444","316514.259576","317280.755795","329573.087997","Mapping"
"Blocked","m160","done","21","m160park.wav","space","421.40901176","110","325747.87466","318047.673418","318814.578984","319563.717856","320330.487076","321097.541045","321863.846813","322631.092161","326497.304156","327264.086361","328030.341115","328797.734866","329563.966432","330313.824444","331080.606649","317280.755795","330323.80304","Mapping"
"Blocked","m160","done","21","m160done.wav","None","730.469082133","110","325747.87466","318047.673418","318814.578984","319563.717856","320330.487076","321097.541045","321863.846813","322631.092161","326497.304156","327264.086361","328030.341115","328797.734866","329563.966432","330313.824444","331080.606649","331847.338768","331090.533613","Mapping"
"Blocked","m160","done","21","m160cad.wav","space","296.085267735","110","325747.87466","332614.361511","318814.578984","319563.717856","320330.487076","321097.541045","321863.846813","322631.092161","326497.304156","327264.086361","328030.341115","328797.734866","329563.966432","330313.824444","331080.606649","331847.338768","331857.07559","Mapping"
"Blocked","m160","done","21","m160tile.wav","None","723.062196863","110","325747.87466","332614.361511","333381.062094","319563.717856","320330.487076","321097.541045","321863.846813","322631.092161","326497.304156","327264.086361","328030.341115","328797.734866","329563.966432","330313.824444","331080.606649","331847.338768","332624.379372","Mapping"
"Blocked","m160","done","21","m160lash.wav","None","719.60130136","110","325747.87466","332614.361511","333381.062094","334130.580014","320330.487076","321097.541045","321863.846813","322631.092161","326497.304156","327264.086361","328030.341115","328797.734866","329563.966432","330313.824444","331080.606649","331847.338768","333391.499195","Mapping"
"Blocked","m160","done","21","m160ball.wav","None","734.68869098","110","325747.87466","332614.361511","333381.062094","334130.580014","334897.364074","321097.541045","321863.846813","322631.092161","326497.304156","327264.086361","328030.341115","328797.734866","329563.966432","330313.824444","331080.606649","331847.338768","334140.34126","Mapping"
"Blocked","m160","done","21","m160reek.wav","None","731.793584186","110","325747.87466","332614.361511","333381.062094","334130.580014","334897.364074","335663.961702","321863.846813","322631.092161","326497.304156","327264.086361","328030.341115","328797.734866","329563.966432","330313.824444","331080.606649","331847.338768","334906.803779","Mapping"
"Blocked","m160","done","21","m160cave.wav","None","728.534270253","110","325747.87466","332614.361511","333381.062094","334130.580014","334897.364074","335663.961702","336430.64528","322631.092161","326497.304156","327264.086361","328030.341115","328797.734866","329563.966432","330313.824444","331080.606649","331847.338768","335673.920511","Mapping"
"Blocked","m160","done","21","m160ball.wav","None","725.527242466","110","325747.87466","332614.361511","333381.062094","334130.580014","334897.364074","335663.961702","336430.64528","337197.603406","326497.304156","327264.086361","328030.341115","328797.734866","329563.966432","330313.824444","331080.606649","331847.338768","336440.543491","Mapping"
"Blocked","m160","cave","10","m160priest.wav","None","721.966483688","110","340314.339219","332614.361511","333381.062094","334130.580014","334897.364074","335663.961702","336430.64528","337197.603406","326497.304156","327264.086361","328030.341115","328797.734866","329563.966432","330313.824444","331080.606649","331847.338768","337207.76967","Mapping"
"Blocked","m160","cave","10","m160cave.wav","None","718.457356968","110","340314.339219","332614.361511","333381.062094","334130.580014","334897.364074","335663.961702","336430.64528","337197.603406","341063.891767","327264.086361","328030.341115","328797.734866","329563.966432","330313.824444","331080.606649","331847.338768","340324.424789","Mapping"
"Blocked","m160","cave","10","m160depth.wav","space","463.213376817","110","340314.339219","332614.361511","333381.062094","334130.580014","334897.364074","335663.961702","336430.64528","337197.603406","341063.891767","341830.541954","328030.341115","328797.734866","329563.966432","330313.824444","331080.606649","331847.338768","341073.840373","Mapping"
"Blocked","m160","cave","10","m160bluff.wav","None","729.165294673","110","340314.339219","332614.361511","333381.062094","334130.580014","334897.364074","335663.961702","336430.64528","337197.603406","341063.891767","341830.541954","342597.248721","328797.734866","329563.966432","330313.824444","331080.606649","331847.338768","341840.241675","Mapping"
"Blocked","m160","cave","10","m160priest.wav","None","726.201242069","110","340314.339219","332614.361511","333381.062094","334130.580014","334897.364074","335663.961702","336430.64528","337197.603406","341063.891767","341830.541954","342597.248721","343364.341955","329563.966432","330313.824444","331080.606649","331847.338768","342606.745314","Mapping"
"Blocked","m160","cave","10","m160tile.wav","None","722.533818276","110","340314.339219","332614.361511","333381.062094","334130.580014","334897.364074","335663.961702","336430.64528","337197.603406","341063.891767","341830.541954","342597.248721","343364.341955","344130.826116","330313.824444","331080.606649","331847.338768","343373.910277","Mapping"
"Blocked","m160","cave","10","m160depth.wav","None","718.966257642","110","340314.339219","332614.361511","333381.062094","334130.580014","334897.364074","335663.961702","336430.64528","337197.603406","341063.891767","341830.541954","342597.248721","343364.341955","344130.826116","344880.508826","331080.606649","331847.338768","344141.189634","Mapping"
"Blocked","m160","cave","10","m160cave.wav","None","733.288132062","110","340314.339219","332614.361511","333381.062094","334130.580014","334897.364074","335663.961702","336430.64528","337197.603406","341063.891767","341830.541954","342597.248721","343364.341955","344130.826116","344880.508826","345646.691852","331847.338768","344890.734762","Mapping"
"Blocked","m160","cave","10","m160greet.wav","space","432.987893058","110","340314.339219","332614.361511","333381.062094","334130.580014","334897.364074","335663.961702","336430.64528","337197.603406","341063.891767","341830.541954","342597.248721","343364.341955","344130.826116","344880.508826","345646.691852","346413.643484","345655.993047","Mapping"
"Blocked","m160","cave","10","m160bluff.wav","None","727.405784593","110","340314.339219","347180.340357","333381.062094","334130.580014","334897.364074","335663.961702","336430.64528","337197.603406","341063.891767","341830.541954","342597.248721","343364.341955","344130.826116","344880.508826","345646.691852","346413.643484","346423.272095","Mapping"
"Blocked","m160","cave","10","m160romp.wav","None","724.309096229","110","340314.339219","347180.340357","347947.571483","334130.580014","334897.364074","335663.961702","336430.64528","337197.603406","341063.891767","341830.541954","342597.248721","343364.341955","344130.826116","344880.508826","345646.691852","346413.643484","347190.055228","Mapping"
"Blocked","m160","cave","10","m160cave.wav","None","720.25242215","110","340314.339219","347180.340357","347947.571483","348696.873909","334897.364074","335663.961702","336430.64528","337197.603406","341063.891767","341830.541954","342597.248721","343364.341955","344130.826116","344880.508826","345646.691852","346413.643484","347957.822153","Mapping"
"Blocked","m160","cave","10","m160cling.wav","space","358.186297817","110","340314.339219","347180.340357","347947.571483","348696.873909","349463.777001","335663.961702","336430.64528","337197.603406","341063.891767","341830.541954","342597.248721","343364.341955","344130.826116","344880.508826","345646.691852","346413.643484","348706.748932","Mapping"
"Blocked","m160","cave","10","m160cave.wav","None","731.420720171","110","340314.339219","347180.340357","347947.571483","348696.873909","349463.777001","350230.31836","336430.64528","337197.603406","341063.891767","341830.541954","342597.248721","343364.341955","344130.826116","344880.508826","345646.691852","346413.643484","349473.590807","Mapping"
"Blocked","m160","cave","10","m160priest.wav","space","528.412022803","110","340314.339219","347180.340357","347947.571483","348696.873909","349463.777001","350230.31836","350997.073357","337197.603406","341063.891767","341830.541954","342597.248721","343364.341955","344130.826116","344880.508826","345646.691852","346413.643484","350240.506266","Mapping"
"Blocked","m160","cave","10","m160depth.wav","None","724.563237396","110","340314.339219","347180.340357","347947.571483","348696.873909","349463.777001","350230.31836","350997.073357","351764.084042","341063.891767","341830.541954","342597.248721","343364.341955","344130.826116","344880.508826","345646.691852","346413.643484","351007.140995","Mapping"
"Blocked","m160","tile","17","m160bluff.wav","None","721.089665778","110","354880.558913","347180.340357","347947.571483","348696.873909","349463.777001","350230.31836","350997.073357","351764.084042","341063.891767","341830.541954","342597.248721","343364.341955","344130.826116","344880.508826","345646.691852","346413.643484","351774.271021","Mapping"
"Blocked","m160","tile","17","m160romp.wav","None","719.262755651","110","354880.558913","347180.340357","347947.571483","348696.873909","349463.777001","350230.31836","350997.073357","351764.084042","355630.301602","341830.541954","342597.248721","343364.341955","344130.826116","344880.508826","345646.691852","346413.643484","354890.605527","Mapping"
"Blocked","m160","tile","17","m160greet.wav","None","733.305755013","110","354880.558913","347180.340357","347947.571483","348696.873909","349463.777001","350230.31836","350997.073357","351764.084042","355630.301602","356397.308577","342597.248721","343364.341955","344130.826116","344880.508826","345646.691852","346413.643484","355640.254846","Mapping"
"Blocked","m160","tile","17","m160lash.wav","None","730.112604331","110","354880.558913","347180.340357","347947.571483","348696.873909","349463.777001","350230.31836","350997.073357","351764.084042","355630.301602","356397.308577","357163.70957","343364.341955","344130.826116","344880.508826","345646.691852","346413.643484","356407.168759","Mapping"
"Blocked","m160","tile","17","m160greet.wav","None","727.75082296","110","354880.558913","347180.340357","347947.571483","348696.873909","349463.777001","350230.31836","350997.073357","351764.084042","355630.301602","356397.308577","357163.70957","357930.020594","344130.826116","344880.508826","345646.691852","346413.643484","357173.401253","Mapping"
"Blocked","m160","tile","17","m160priest.wav","None","725.441910385","110","354880.558913","347180.340357","347947.571483","348696.873909","349463.777001","350230.31836","350997.073357","351764.084042","355630.301602","356397.308577","357163.70957","357930.020594","358697.352511","344880.508826","345646.691852","346413.643484","357939.495854","Mapping"
"Blocked","m160","tile","17","m160tile.wav","None","721.253528085","110","354880.558913","347180.340357","347947.571483","348696.873909","349463.777001","350230.31836","350997.073357","351764.084042","355630.301602","356397.308577","357163.70957","357930.020594","358697.352511","359463.46288","345646.691852","346413.643484","358707.743854","Mapping"
"Blocked","m160","tile","17","m160jaw.wav","space","447.697781026","110","354880.558913","347180.340357","347947.571483","348696.873909","349463.777001","350230.31836","350997.073357","351764.084042","355630.301602","356397.308577","357163.70957","357930.020594","358697.352511","359463.46288","360213.234323","346413.643484","359473.072322","Mapping"
"Blocked","m160","tile","17","m160jaw.wav","None","733.293388039","110","354880.558913","347180.340357","347947.571483","348696.873909","349463.777001","350230.31836","350997.073357","351764.084042","355630.301602","356397.308577","357163.70957","357930.020594","358697.352511","359463.46288","360213.234323","360980.164314","360223.172417","Mapping"
"Blocked","m160","tile","17","m160tile.wav","None","730.168874026","110","354880.558913","361746.967543","347947.571483","348696.873909","349463.777001","350230.31836","350997.073357","351764.084042","355630.301602","356397.308577","357163.70957","357930.020594","358697.352511","359463.46288","360213.234323","360980.164314","360990.099625","Mapping"
"Blocked","m160","tile","17","m160romp.wav","space","644.150440465","110","354880.558913","361746.967543","362513.573518","348696.873909","349463.777001","350230.31836","350997.073357","351764.084042","355630.301602","356397.308577","357163.70957","357930.020594","358697.352511","359463.46288","360213.234323","360980.164314","361756.585332","Mapping"
"Blocked","m160","tile","17","m160tile.wav","None","731.31158168","110","354880.558913","361746.967543","362513.573518","363280.009758","349463.777001","350230.31836","350997.073357","351764.084042","355630.301602","356397.308577","357163.70957","357930.020594","358697.352511","359463.46288","360213.234323","360980.164314","362517.711505","Mapping"
"Blocked","m160","tile","17","m160bluff.wav","space","471.240774612","110","354880.558913","361746.967543","362513.573518","363280.009758","364046.778359","350230.31836","350997.073357","351764.084042","355630.301602","356397.308577","357163.70957","357930.020594","358697.352511","359463.46288","360213.234323","360980.164314","363289.480999","Mapping"
"Blocked","m160","tile","17","m160gnash.wav","None","720.167090069","110","354880.558913","361746.967543","362513.573518","363280.009758","364046.778359","364796.739326","350997.073357","351764.084042","355630.301602","356397.308577","357163.70957","357930.020594","358697.352511","359463.46288","360213.234323","360980.164314","364056.071516","Mapping"
"Blocked","m160","tile","17","m160tile.wav","None","734.393738909","110","354880.558913","361746.967543","362513.573518","363280.009758","364046.778359","364796.739326","365563.538535","351764.084042","355630.301602","356397.308577","357163.70957","357930.020594","358697.352511","359463.46288","360213.234323","360980.164314","364806.403491","Mapping"
"Blocked","m160","tile","17","m160ball.wav","space","394.997500349","110","354880.558913","361746.967543","362513.573518","363280.009758","364046.778359","364796.739326","365563.538535","366329.836574","355630.301602","356397.308577","357163.70957","357930.020594","358697.352511","359463.46288","360213.234323","360980.164314","365573.676665","Mapping"
"Blocked","m160","ball","5","m160bluff.wav","None","728.596105066","110","369463.820595","361746.967543","362513.573518","363280.009758","364046.778359","364796.739326","365563.538535","366329.836574","355630.301602","356397.308577","357163.70957","357930.020594","358697.352511","359463.46288","360213.234323","360980.164314","366339.146426","Mapping"
"Blocked","m160","ball","5","m160ball.wav","None","719.015725481","110","369463.820595","361746.967543","362513.573518","363280.009758","364046.778359","364796.739326","365563.538535","366329.836574","370213.467441","356397.308577","357163.70957","357930.020594","358697.352511","359463.46288","360213.234323","360980.164314","369473.476104","Mapping"
"Blocked","m160","ball","5","m160reek.wav","None","733.434371417","110","369463.820595","361746.967543","362513.573518","363280.009758","364046.778359","364796.739326","365563.538535","366329.836574","370213.467441","370980.106807","357163.70957","357930.020594","358697.352511","359463.46288","360213.234323","360980.164314","370222.864789","Mapping"
"Blocked","m160","ball","5","m160cad.wav","space","194.373772421","110","369463.820595","361746.967543","362513.573518","363280.009758","364046.778359","364796.739326","365563.538535","366329.836574","370213.467441","370980.106807","371746.860259","357930.020594","358697.352511","359463.46288","360213.234323","360980.164314","370990.23999","Mapping"
"Blocked","m160","ball","5","m160gnash.wav","None","726.649853808","110","369463.820595","361746.967543","362513.573518","363280.009758","364046.778359","364796.739326","365563.538535","366329.836574","370213.467441","370980.106807","371746.860259","372513.89846","358697.352511","359463.46288","360213.234323","360980.164314","371756.509275","Mapping"
"Blocked","m160","ball","5","m160ball.wav","None","723.236261925","110","369463.820595","361746.967543","362513.573518","363280.009758","364046.778359","364796.739326","365563.538535","366329.836574","370213.467441","370980.106807","371746.860259","372513.89846","373280.429307","359463.46288","360213.234323","360980.164314","372523.912921","Mapping"
"Blocked","m160","ball","5","m160priest.wav","space","518.21391331","110","369463.820595","361746.967543","362513.573518","363280.009758","364046.778359","364796.739326","365563.538535","366329.836574","370213.467441","370980.106807","371746.860259","372513.89846","373280.429307","374029.825722","360213.234323","360980.164314","373290.355034","Mapping"
"Blocked","m160","ball","5","m160cling.wav","None","734.52822963","110","369463.820595","361746.967543","362513.573518","363280.009758","364046.778359","364796.739326","365563.538535","366329.836574","370213.467441","370980.106807","371746.860259","372513.89846","373280.429307","374029.825722","374796.653994","360980.164314","374039.565635","Mapping"
"Blocked","m160","ball","5","m160cave.wav","None","732.262910518","110","369463.820595","361746.967543","362513.573518","363280.009758","364046.778359","364796.739326","365563.538535","366329.836574","370213.467441","370980.106807","371746.860259","372513.89846","373280.429307","374029.825722","374796.653994","375563.404663","374806.211494","Mapping"
"Blocked","m160","ball","5","m160ball.wav","None","729.34987169","110","369463.820595","376329.658798","362513.573518","363280.009758","364046.778359","364796.739326","365563.538535","366329.836574","370213.467441","370980.106807","371746.860259","372513.89846","373280.429307","374029.825722","374796.653994","375563.404663","375573.00081","Mapping"
"Blocked","m160","ball","5","m160jolt.wav","space","317.721584346","110","369463.820595","376329.658798","377096.962271","363280.009758","364046.778359","364796.739326","365563.538535","366329.836574","370213.467441","370980.106807","371746.860259","372513.89846","373280.429307","374029.825722","374796.653994","375563.404663","376338.806334","Mapping"
"Blocked","m160","ball","5","m160jaw.wav","None","722.192799149","110","369463.820595","376329.658798","377096.962271","377863.795181","364046.778359","364796.739326","365563.538535","366329.836574","370213.467441","370980.106807","371746.860259","372513.89846","373280.429307","374029.825722","374796.653994","375563.404663","377107.504801","Mapping"
"Blocked","m160","ball","5","m160bluff.wav","None","719.276050164","110","369463.820595","376329.658798","377096.962271","377863.795181","378613.355767","364796.739326","365563.538535","366329.836574","370213.467441","370980.106807","371746.860259","372513.89846","373280.429307","374029.825722","374796.653994","375563.404663","377874.386869","Mapping"
"Blocked","m160","ball","5","m160ball.wav","None","734.44289749","110","369463.820595","376329.658798","377096.962271","377863.795181","378613.355767","379379.912275","365563.538535","366329.836574","370213.467441","370980.106807","371746.860259","372513.89846","373280.429307","374029.825722","374796.653994","375563.404663","378623.117632","Mapping"
"Blocked","m160","ball","5","m160bluff.wav","space","314.769280318","110","369463.820595","376329.658798","377096.962271","377863.795181","378613.355767","379379.912275","380146.20011","366329.836574","370213.467441","370980.106807","371746.860259","372513.89846","373280.429307","374029.825722","374796.653994","375563.404663","379389.710004","Mapping"
"Blocked","m160","ball","5","m160priest.wav","None","730.346958328","110","369463.820595","376329.658798","377096.962271","377863.795181","378613.355767","379379.912275","380146.20011","380913.323025","370213.467441","370980.106807","371746.860259","372513.89846","373280.429307","374029.825722","374796.653994","375563.404663","380155.259841","Mapping"
"Blocked","m160","tile","13","m160depth.wav","None","726.291830069","110","384030.213735","376329.658798","377096.962271","377863.795181","378613.355767","379379.912275","380146.20011","380913.323025","370213.467441","370980.106807","371746.860259","372513.89846","373280.429307","374029.825722","374796.653994","375563.404663","380923.211652","Mapping"
"Blocked","m160","tile","13","m160tile.wav","None","720.144211198","110","384030.213735","376329.658798","377096.962271","377863.795181","378613.355767","379379.912275","380146.20011","380913.323025","384779.442268","370980.106807","371746.860259","372513.89846","373280.429307","374029.825722","374796.653994","375563.404663","384040.397314","Mapping"
"Blocked","m160","tile","13","m160done.wav","space","531.713693577","110","384030.213735","376329.658798","377096.962271","377863.795181","378613.355767","379379.912275","380146.20011","380913.323025","384779.442268","385546.193556","371746.860259","372513.89846","373280.429307","374029.825722","374796.653994","375563.404663","384788.693377","Mapping"
"Blocked","m160","tile","13","m160depth.wav","None","732.745222282","110","384030.213735","376329.658798","377096.962271","377863.795181","378613.355767","379379.912275","380146.20011","380913.323025","384779.442268","385546.193556","386312.851782","372513.89846","373280.429307","374029.825722","374796.653994","375563.404663","385555.009657","Mapping"
"Blocked","m160","tile","13","m160tile.wav","None","729.788280616","110","384030.213735","376329.658798","377096.962271","377863.795181","378613.355767","379379.912275","380146.20011","380913.323025","384779.442268","385546.193556","386312.851782","387079.517119","373280.429307","374029.825722","374796.653994","375563.404663","386321.969946","Mapping"
"Blocked","m160","tile","13","m160jolt.wav","space","487.435007701","110","384030.213735","376329.658798","377096.962271","377863.795181","378613.355767","379379.912275","380146.20011","380913.323025","384779.442268","385546.193556","386312.851782","387079.517119","387846.479573","374029.825722","374796.653994","375563.404663","387088.892207","Mapping"
"Blocked","m160","tile","13","m160dime.wav","None","728.823038924","110","384030.213735","376329.658798","377096.962271","377863.795181","378613.355767","379379.912275","380146.20011","380913.323025","384779.442268","385546.193556","386312.851782","387079.517119","387846.479573","388613.516538","374796.653994","375563.404663","387850.132157","Mapping"
"Blocked","m160","tile","13","m160park.wav","None","718.843206356","110","384030.213735","376329.658798","377096.962271","377863.795181","378613.355767","379379.912275","380146.20011","380913.323025","384779.442268","385546.193556","386312.851782","387079.517119","387846.479573","388613.516538","389362.728685","375563.404663","388624.087202","Mapping"
"Blocked","m160","tile","13","m160cave.wav","None","735.242421913","110","384030.213735","376329.658798","377096.962271","377863.795181","378613.355767","379379.912275","380146.20011","380913.323025","384779.442268","385546.193556","386312.851782","387079.517119","387846.479573","388613.516538","389362.728685","390129.540879","389371.657325","Mapping"
"Blocked","m160","tile","13","m160romp.wav","None","732.048343692","110","384030.213735","390896.427276","377096.962271","377863.795181","378613.355767","379379.912275","380146.20011","380913.323025","384779.442268","385546.193556","386312.851782","387079.517119","387846.479573","388613.516538","389362.728685","390129.540879","390138.912257","Mapping"
"Blocked","m160","tile","13","m160bluff.wav","None","728.576317895","110","384030.213735","390896.427276","391663.128478","377863.795181","378613.355767","379379.912275","380146.20011","380913.323025","384779.442268","385546.193556","386312.851782","387079.517119","387846.479573","388613.516538","389362.728685","390129.540879","390906.374336","Mapping"
"Blocked","m160","tile","13","m160tile.wav","None","725.827759714","110","384030.213735","390896.427276","391663.128478","392429.737854","378613.355767","379379.912275","380146.20011","380913.323025","384779.442268","385546.193556","386312.851782","387079.517119","387846.479573","388613.516538","389362.728685","390129.540879","391673.127479","Mapping"
"Blocked","m160","tile","13","m160romp.wav","space","457.102858869","110","384030.213735","390896.427276","391663.128478","392429.737854","393196.892923","379379.912275","380146.20011","380913.323025","384779.442268","385546.193556","386312.851782","387079.517119","387846.479573","388613.516538","389362.728685","390129.540879","392439.192091","Mapping"
"Blocked","m160","tile","13","m160tile.wav","None","718.76838617","110","384030.213735","390896.427276","391663.128478","392429.737854","393196.892923","393946.20617","380146.20011","380913.323025","384779.442268","385546.193556","386312.851782","387079.517119","387846.479573","388613.516538","389362.728685","390129.540879","393207.500998","Mapping"
"Blocked","m160","tile","13","m160greet.wav","space","732.740275445","110","384030.213735","390896.427276","391663.128478","392429.737854","393196.892923","393946.20617","394713.114828","380913.323025","384779.442268","385546.193556","386312.851782","387079.517119","387846.479573","388613.516538","389362.728685","390129.540879","393955.488197","Mapping"
"Blocked","m160","tile","13","m160greet.wav","None","730.732807657","110","384030.213735","390896.427276","391663.128478","392429.737854","393196.892923","393946.20617","394713.114828","395479.633925","384779.442268","385546.193556","386312.851782","387079.517119","387846.479573","388613.516538","389362.728685","390129.540879","394722.711593","Mapping"
"Blocked","m160","tile","15","m160bluff.wav","None","727.787305543","110","398612.8379","390896.427276","391663.128478","392429.737854","393196.892923","393946.20617","394713.114828","395479.633925","384779.442268","385546.193556","386312.851782","387079.517119","387846.479573","388613.516538","389362.728685","390129.540879","395489.726916","Mapping"
"Blocked","m160","tile","15","m160jolt.wav","None","720.023942471","110","398612.8379","390896.427276","391663.128478","392429.737854","393196.892923","393946.20617","394713.114828","395479.633925","399362.627894","385546.193556","386312.851782","387079.517119","387846.479573","388613.516538","389362.728685","390129.540879","398622.140951","Mapping"
"Blocked","m160","tile","15","m160knife.wav","None","734.438259911","110","398612.8379","390896.427276","391663.128478","392429.737854","393196.892923","393946.20617","394713.114828","395479.633925","399362.627894","400129.397732","386312.851782","387079.517119","387846.479573","388613.516538","389362.728685","390129.540879","399371.814076","Mapping"
"Blocked","m160","tile","15","m160ball.wav","None","731.624156761","110","398612.8379","390896.427276","391663.128478","392429.737854","393196.892923","393946.20617","394713.114828","395479.633925","399362.627894","400129.397732","400895.973409","387079.517119","387846.479573","388613.516538","389362.728685","390129.540879","400138.748395","Mapping"
"Blocked","m160","tile","15","m160jaw.wav","None","729.468594538","110","398612.8379","390896.427276","391663.128478","392429.737854","393196.892923","393946.20617","394713.114828","395479.633925","399362.627894","400129.397732","400895.973409","401663.042527","387846.479573","388613.516538","389362.728685","390129.540879","400905.270894","Mapping"
"Blocked","m160","tile","15","m160jaw.wav","None","725.676573522","110","398612.8379","390896.427276","391663.128478","392429.737854","393196.892923","393946.20617","394713.114828","395479.633925","399362.627894","400129.397732","400895.973409","401663.042527","402429.824423","388613.516538","389362.728685","390129.540879","401673.219922","Mapping"
"Blocked","m160","tile","15","m160bluff.wav","None","722.679748433","110","398612.8379","390896.427276","391663.128478","392429.737854","393196.892923","393946.20617","394713.114828","395479.633925","399362.627894","400129.397732","400895.973409","401663.042527","402429.824423","403196.630744","389362.728685","390129.540879","402440.323668","Mapping"
"Blocked","m160","tile","15","m160tile.wav","None","720.287667995","110","398612.8379","390896.427276","391663.128478","392429.737854","393196.892923","393946.20617","394713.114828","395479.633925","399362.627894","400129.397732","400895.973409","401663.042527","402429.824423","403196.630744","403945.956667","390129.540879","403206.765473","Mapping"
"Blocked","m160","tile","15","m160gnash.wav","space","460.217788466","110","398612.8379","390896.427276","391663.128478","392429.737854","393196.892923","393946.20617","394713.114828","395479.633925","399362.627894","400129.397732","400895.973409","401663.042527","402429.824423","403196.630744","403945.956667","404712.722176","403955.911765","Mapping"
"Blocked","m160","tile","15","m160tile.wav","None","731.831303448","110","398612.8379","405479.473155","391663.128478","392429.737854","393196.892923","393946.20617","394713.114828","395479.633925","399362.627894","400129.397732","400895.973409","401663.042527","402429.824423","403196.630744","403945.956667","404712.722176","404722.400564","Mapping"
"Blocked","m160","tile","15","m160cad.wav","space","502.975955838","110","398612.8379","405479.473155","406246.295862","392429.737854","393196.892923","393946.20617","394713.114828","395479.633925","399362.627894","400129.397732","400895.973409","401663.042527","402429.824423","403196.630744","403945.956667","404712.722176","405489.098365","Mapping"
"Blocked","m160","tile","15","m160tile.wav","None","725.305564527","110","398612.8379","405479.473155","406246.295862","407013.295725","393196.892923","393946.20617","394713.114828","395479.633925","399362.627894","400129.397732","400895.973409","401663.042527","402429.824423","403196.630744","403945.956667","404712.722176","406256.33351","Mapping"
"Blocked","m160","tile","15","m160cave.wav","space","400.596953463","110","398612.8379","405479.473155","406246.295862","407013.295725","407779.80493","393946.20617","394713.114828","395479.633925","399362.627894","400129.397732","400895.973409","401663.042527","402429.824423","403196.630744","403945.956667","404712.722176","407023.457971","Mapping"
"Blocked","m160","tile","15","m160tile.wav","None","719.134757586","110","398612.8379","405479.473155","406246.295862","407013.295725","407779.80493","408529.28915","394713.114828","395479.633925","399362.627894","400129.397732","400895.973409","401663.042527","402429.824423","403196.630744","403945.956667","404712.722176","407789.866384","Mapping"
"Blocked","m160","tile","15","m160jaw.wav","space","253.072649997","110","398612.8379","405479.473155","406246.295862","407013.295725","407779.80493","408529.28915","409295.710549","395479.633925","399362.627894","400129.397732","400895.973409","401663.042527","402429.824423","403196.630744","403945.956667","404712.722176","408538.954243","Mapping"
"Blocked","m160","tile","15","m160park.wav","None","733.399125631","110","398612.8379","405479.473155","406246.295862","407013.295725","407779.80493","408529.28915","409295.710549","410062.862526","399362.627894","400129.397732","400895.973409","401663.042527","402429.824423","403196.630744","403945.956667","404712.722176","409304.841389","Mapping"
"Blocked","m160","ball","2","m160bluff.wav","None","730.126517185","110","413196.360835","405479.473155","406246.295862","407013.295725","407779.80493","408529.28915","409295.710549","410062.862526","399362.627894","400129.397732","400895.973409","401663.042527","402429.824423","403196.630744","403945.956667","404712.722176","410072.260184","Mapping"
"Blocked","m160","ball","2","m160cling.wav","None","720.105873595","110","413196.360835","405479.473155","406246.295862","407013.295725","407779.80493","408529.28915","409295.710549","410062.862526","413945.573909","400129.397732","400895.973409","401663.042527","402429.824423","403196.630744","403945.956667","404712.722176","413206.450733","Mapping"
"Blocked","m160","ball","2","m160ball.wav","None","735.97361875","110","413196.360835","405479.473155","406246.295862","407013.295725","407779.80493","408529.28915","409295.710549","410062.862526","413945.573909","414713.06536","400895.973409","401663.042527","402429.824423","403196.630744","403945.956667","404712.722176","413954.760401","Mapping"
"Blocked","m160","ball","2","m160cad.wav","space","493.225221348","110","413196.360835","405479.473155","406246.295862","407013.295725","407779.80493","408529.28915","409295.710549","410062.862526","413945.573909","414713.06536","415479.354123","401663.042527","402429.824423","403196.630744","403945.956667","404712.722176","414722.717158","Mapping"
"Blocked","m160","ball","2","m160romp.wav","None","728.595486726","110","413196.360835","405479.473155","406246.295862","407013.295725","407779.80493","408529.28915","409295.710549","410062.862526","413945.573909","414713.06536","415479.354123","416245.683697","402429.824423","403196.630744","403945.956667","404712.722176","415489.240276","Mapping"
"Blocked","m160","ball","2","m160ball.wav","None","727.206985641","110","413196.360835","405479.473155","406246.295862","407013.295725","407779.80493","408529.28915","409295.710549","410062.862526","413945.573909","414713.06536","415479.354123","416245.683697","417013.104965","403196.630744","403945.956667","404712.722176","416254.729205","Mapping"
"Blocked","m160","ball","2","m160lash.wav","space","328.38438265","110","413196.360835","405479.473155","406246.295862","407013.295725","407779.80493","408529.28915","409295.710549","410062.862526","413945.573909","414713.06536","415479.354123","416245.683697","417013.104965","417779.638594","403945.956667","404712.722176","417023.52568","Mapping"
"Blocked","m160","ball","2","m160lash.wav","None","719.508549082","110","413196.360835","405479.473155","406246.295862","407013.295725","407779.80493","408529.28915","409295.710549","410062.862526","413945.573909","414713.06536","415479.354123","416245.683697","417013.104965","417779.638594","418529.227315","404712.722176","417789.56834","Mapping"
"Blocked","m160","ball","2","m160ball.wav","None","734.428057156","110","413196.360835","405479.473155","406246.295862","407013.295725","407779.80493","408529.28915","409295.710549","410062.862526","413945.573909","414713.06536","415479.354123","416245.683697","417013.104965","417779.638594","418529.227315","419295.750123","418538.742768","Mapping"
"Blocked","m160","ball","2","m160bluff.wav","space","319.069583667","110","413196.360835","420062.721543","406246.295862","407013.295725","407779.80493","408529.28915","409295.710549","410062.862526","413945.573909","414713.06536","415479.354123","416245.683697","417013.104965","417779.638594","418529.227315","419295.750123","419304.804288","Mapping"
"Blocked","m160","ball","2","m160priest.wav","None","727.241922286","110","413196.360835","420062.721543","420829.250843","407013.295725","407779.80493","408529.28915","409295.710549","410062.862526","413945.573909","414713.06536","415479.354123","416245.683697","417013.104965","417779.638594","418529.227315","419295.750123","420073.042394","Mapping"
"Blocked","m160","ball","2","m160lash.wav","None","725.232599478","110","413196.360835","420062.721543","420829.250843","421596.473621","407779.80493","408529.28915","409295.710549","410062.862526","413945.573909","414713.06536","415479.354123","416245.683697","417013.104965","417779.638594","418529.227315","419295.750123","420839.208106","Mapping"
"Blocked","m160","ball","2","m160ball.wav","None","722.072221222","110","413196.360835","420062.721543","420829.250843","421596.473621","422363.04868","408529.28915","409295.710549","410062.862526","413945.573909","414713.06536","415479.354123","416245.683697","417013.104965","417779.638594","418529.227315","419295.750123","421606.540332","Mapping"
"Blocked","m160","ball","2","m160dime.wav","space","371.070512396","110","413196.360835","420062.721543","420829.250843","421596.473621","422363.04868","423112.673883","409295.710549","410062.862526","413945.573909","414713.06536","415479.354123","416245.683697","417013.104965","417779.638594","418529.227315","419295.750123","422372.784265","Mapping"
"Blocked","m160","ball","2","m160cling.wav","None","733.481984294","110","413196.360835","420062.721543","420829.250843","421596.473621","422363.04868","423112.673883","423879.32438","410062.862526","413945.573909","414713.06536","415479.354123","416245.683697","417013.104965","417779.638594","418529.227315","419295.750123","423122.598992","Mapping"
"Blocked","m160","ball","2","m160depth.wav","None","731.216665241","110","413196.360835","420062.721543","420829.250843","421596.473621","422363.04868","423112.673883","423879.32438","424646.220052","413945.573909","414713.06536","415479.354123","416245.683697","417013.104965","417779.638594","418529.227315","419295.750123","423889.07326","Mapping"
"Blocked","m160","tile","14","m160priest.wav","None","728.055050306","110","427779.410114","420062.721543","420829.250843","421596.473621","422363.04868","423112.673883","423879.32438","424646.220052","413945.573909","414713.06536","415479.354123","416245.683697","417013.104965","417779.638594","418529.227315","419295.750123","424656.330975","Mapping"
"Blocked","m160","tile","14","m160ball.wav","None","719.478250074","110","427779.410114","420062.721543","420829.250843","421596.473621","422363.04868","423112.673883","423879.32438","424646.220052","428529.080766","414713.06536","415479.354123","416245.683697","417013.104965","417779.638594","418529.227315","419295.750123","427789.352228","Mapping"
"Blocked","m160","tile","14","m160cad.wav","None","733.42664208","110","427779.410114","420062.721543","420829.250843","421596.473621","422363.04868","423112.673883","423879.32438","424646.220052","428529.080766","429295.625835","415479.354123","416245.683697","417013.104965","417779.638594","418529.227315","419295.750123","428539.646175","Mapping"
"Blocked","m160","tile","14","m160knife.wav","None","732.987305615","110","427779.410114","420062.721543","420829.250843","421596.473621","422363.04868","423112.673883","423879.32438","424646.220052","428529.080766","429295.625835","430062.559535","416245.683697","417013.104965","417779.638594","418529.227315","419295.750123","429304.603325","Mapping"
"Blocked","m160","tile","14","m160tile.wav","None","729.880414496","110","427779.410114","420062.721543","420829.250843","421596.473621","422363.04868","423112.673883","423879.32438","424646.220052","428529.080766","429295.625835","430062.559535","430829.126864","417013.104965","417779.638594","418529.227315","419295.750123","430071.940188","Mapping"
"Blocked","m160","tile","14","m160romp.wav","space","544.762698002","110","427779.410114","420062.721543","420829.250843","421596.473621","422363.04868","423112.673883","423879.32438","424646.220052","428529.080766","429295.625835","430062.559535","430829.126864","431596.263383","417779.638594","418529.227315","419295.750123","430838.942525","Mapping"
"Blocked","m160","tile","14","m160tile.wav","None","723.22605917","110","427779.410114","420062.721543","420829.250843","421596.473621","422363.04868","423112.673883","423879.32438","424646.220052","428529.080766","429295.625835","430062.559535","430829.126864","431596.263383","432362.998594","418529.227315","419295.750123","431606.509415","Mapping"
"Blocked","m160","tile","14","m160romp.wav","None","720.631778822","110","427779.410114","420062.721543","420829.250843","421596.473621","422363.04868","423112.673883","423879.32438","424646.220052","428529.080766","429295.625835","430062.559535","430829.126864","431596.263383","432362.998594","433129.475335","419295.750123","432373.425801","Mapping"
"Blocked","m160","tile","14","m160jolt.wav","space","92.1199855511","110","427779.410114","420062.721543","420829.250843","421596.473621","422363.04868","423112.673883","423879.32438","424646.220052","428529.080766","429295.625835","430062.559535","430829.126864","431596.263383","432362.998594","433129.475335","433878.805277","433139.545446","Mapping"
"Blocked","m160","tile","14","m160lash.wav","None","732.54487745","110","427779.410114","434645.287583","420829.250843","421596.473621","422363.04868","423112.673883","423879.32438","424646.220052","428529.080766","429295.625835","430062.559535","430829.126864","431596.263383","432362.998594","433129.475335","433878.805277","433888.958556","Mapping"
"Blocked","m160","tile","14","m160tile.wav","None","731.345590844","110","427779.410114","434645.287583","435412.493047","421596.473621","422363.04868","423112.673883","423879.32438","424646.220052","428529.080766","429295.625835","430062.559535","430829.126864","431596.263383","432362.998594","433129.475335","433878.805277","434654.593107","Mapping"
"Blocked","m160","tile","14","m160cling.wav","space","577.55401812","110","427779.410114","434645.287583","435412.493047","436178.993595","422363.04868","423112.673883","423879.32438","424646.220052","428529.080766","429295.625835","430062.559535","430829.126864","431596.263383","432362.998594","433129.475335","433878.805277","435422.112692","Mapping"
"Blocked","m160","tile","14","m160dime.wav","None","724.832528096","110","427779.410114","434645.287583","435412.493047","436178.993595","436946.241416","423112.673883","423879.32438","424646.220052","428529.080766","429295.625835","430062.559535","430829.126864","431596.263383","432362.998594","433129.475335","433878.805277","436188.576757","Mapping"
"Blocked","m160","tile","14","m160greet.wav","space","419.195633964","110","427779.410114","434645.287583","435412.493047","436178.993595","436946.241416","437696.02368","423879.32438","424646.220052","428529.080766","429295.625835","430062.559535","430829.126864","431596.263383","432362.998594","433129.475335","433878.805277","436956.402734","Mapping"
"Blocked","m160","tile","14","m160tile.wav","None","734.984261508","110","427779.410114","434645.287583","435412.493047","436178.993595","436946.241416","437696.02368","438462.11921","424646.220052","428529.080766","429295.625835","430062.559535","430829.126864","431596.263383","432362.998594","433129.475335","433878.805277","437705.984035","Mapping"
"Blocked","m160","tile","14","m160reek.wav","space","455.964170396","110","427779.410114","434645.287583","435412.493047","436178.993595","436946.241416","437696.02368","438462.11921","439228.964177","428529.080766","429295.625835","430062.559535","430829.126864","431596.263383","432362.998594","433129.475335","433878.805277","438471.645174","Mapping"
"Blocked","m160","cave","7","m160priest.wav","None","730.136101542","110","442362.853591","434645.287583","435412.493047","436178.993595","436946.241416","437696.02368","438462.11921","439228.964177","428529.080766","429295.625835","430062.559535","430829.126864","431596.263383","432362.998594","433129.475335","433878.805277","439238.571764","Mapping"
"Blocked","m160","cave","7","m160lash.wav","None","719.089308986","110","442362.853591","434645.287583","435412.493047","436178.993595","436946.241416","437696.02368","438462.11921","439228.964177","443112.136539","429295.625835","430062.559535","430829.126864","431596.263383","432362.998594","433129.475335","433878.805277","442373.326247","Mapping"
"Blocked","m160","cave","7","m160cave.wav","None","734.996319283","110","442362.853591","434645.287583","435412.493047","436178.993595","436946.241416","437696.02368","438462.11921","439228.964177","443112.136539","443878.594729","430062.559535","430829.126864","431596.263383","432362.998594","433129.475335","433878.805277","443121.572225","Mapping"
"Blocked","m160","cave","7","m160cling.wav","space","551.602867024","110","442362.853591","434645.287583","435412.493047","436178.993595","436946.241416","437696.02368","438462.11921","439228.964177","443112.136539","443878.594729","444645.567386","430829.126864","431596.263383","432362.998594","433129.475335","433878.805277","443887.924059","Mapping"
"Blocked","m160","cave","7","m160tile.wav","None","728.159242019","110","442362.853591","434645.287583","435412.493047","436178.993595","436946.241416","437696.02368","438462.11921","439228.964177","443112.136539","443878.594729","444645.567386","445412.344335","431596.263383","432362.998594","433129.475335","433878.805277","444655.788683","Mapping"
"Blocked","m160","cave","7","m160lash.wav","None","726.433741045","110","442362.853591","434645.287583","435412.493047","436178.993595","436946.241416","437696.02368","438462.11921","439228.964177","443112.136539","443878.594729","444645.567386","445412.344335","446179.321938","432362.998594","433129.475335","433878.805277","445421.896579","Mapping"
"Blocked","m160","cave","7","m160cave.wav","None","723.363641649","110","442362.853591","434645.287583","435412.493047","436178.993595","436946.241416","437696.02368","438462.11921","439228.964177","443112.136539","443878.594729","444645.567386","445412.344335","446179.321938","446946.069825","433129.475335","433878.805277","446189.42173","Mapping"
"Blocked","m160","cave","7","m160knife.wav","space","515.140722157","110","442362.853591","434645.287583","435412.493047","436178.993595","436946.241416","437696.02368","438462.11921","439228.964177","443112.136539","443878.594729","444645.567386","445412.344335","446179.321938","446946.069825","447695.361429","433878.805277","446956.339662","Mapping"
"Blocked","m160","cave","7","m160dime.wav","None","734.616653412","110","442362.853591","434645.287583","435412.493047","436178.993595","436946.241416","437696.02368","438462.11921","439228.964177","443112.136539","443878.594729","444645.567386","445412.344335","446179.321938","446946.069825","447695.361429","448462.034496","447705.412681","Mapping"
"Blocked","m160","cave","7","m160bluff.wav","None","732.982049638","110","442362.853591","449228.808044","435412.493047","436178.993595","436946.241416","437696.02368","438462.11921","439228.964177","443112.136539","443878.594729","444645.567386","445412.344335","446179.321938","446946.069825","447695.361429","448462.034496","448471.412675","Mapping"
"Blocked","m160","cave","7","m160priest.wav","None","730.344175769","110","442362.853591","449228.808044","449995.597051","436178.993595","436946.241416","437696.02368","438462.11921","439228.964177","443112.136539","443878.594729","444645.567386","445412.344335","446179.321938","446946.069825","447695.361429","448462.034496","449238.319478","Mapping"
"Blocked","m160","cave","7","m160reek.wav","None","728.299916256","110","442362.853591","449228.808044","449995.597051","450761.961871","436946.241416","437696.02368","438462.11921","439228.964177","443112.136539","443878.594729","444645.567386","445412.344335","446179.321938","446946.069825","447695.361429","448462.034496","450005.232154","Mapping"
"Blocked","m160","cave","7","m160cave.wav","None","726.188256755","110","442362.853591","449228.808044","449995.597051","450761.961871","451529.186813","437696.02368","438462.11921","439228.964177","443112.136539","443878.594729","444645.567386","445412.344335","446179.321938","446946.069825","447695.361429","448462.034496","450771.519681","Mapping"
"Blocked","m160","cave","7","m160cad.wav","space","452.110314567","110","442362.853591","449228.808044","449995.597051","450761.961871","451529.186813","452295.768983","438462.11921","439228.964177","443112.136539","443878.594729","444645.567386","445412.344335","446179.321938","446946.069825","447695.361429","448462.034496","451539.293098","Mapping"
"Blocked","m160","cave","7","m160cave.wav","None","718.49662211","110","442362.853591","449228.808044","449995.597051","450761.961871","451529.186813","452295.768983","453045.478591","439228.964177","443112.136539","443878.594729","444645.567386","445412.344335","446179.321938","446946.069825","447695.361429","448462.034496","452306.397463","Mapping"
"Blocked","m160","cave","7","m160jaw.wav","space","432.248039288","110","442362.853591","449228.808044","449995.597051","450761.961871","451529.186813","452295.768983","453045.478591","453812.203289","443112.136539","443878.594729","444645.567386","445412.344335","446179.321938","446946.069825","447695.361429","448462.034496","453055.147085","Mapping"
"Blocked","m160","ball","4","m160cling.wav","None","730.270283122","110","456946.029941","449228.808044","449995.597051","450761.961871","451529.186813","452295.768983","453045.478591","453812.203289","443112.136539","443878.594729","444645.567386","445412.344335","446179.321938","446946.069825","447695.361429","448462.034496","453821.908575","Mapping"
"Blocked","m160","ball","4","m160dime.wav","None","719.522461994","110","456946.029941","449228.808044","449995.597051","450761.961871","451529.186813","452295.768983","453045.478591","453812.203289","457695.21519","443878.594729","444645.567386","445412.344335","446179.321938","446946.069825","447695.361429","448462.034496","456955.770782","Mapping"
"Blocked","m160","ball","4","m160cad.wav","None","734.669213009","110","456946.029941","449228.808044","449995.597051","450761.961871","451529.186813","452295.768983","453045.478591","453812.203289","457695.21519","458462.189701","444645.567386","445412.344335","446179.321938","446946.069825","447695.361429","448462.034496","457705.106599","Mapping"
"Blocked","m160","ball","4","m160ball.wav","None","732.070913422","110","456946.029941","449228.808044","449995.597051","450761.961871","451529.186813","452295.768983","453045.478591","453812.203289","457695.21519","458462.189701","459228.691176","445412.344335","446179.321938","446946.069825","447695.361429","448462.034496","458472.105226","Mapping"
"Blocked","m160","ball","4","m160priest.wav","space","400.664044253","110","456946.029941","449228.808044","449995.597051","450761.961871","451529.186813","452295.768983","453045.478591","453812.203289","457695.21519","458462.189701","459228.691176","459995.50739","446179.321938","446946.069825","447695.361429","448462.034496","459238.620922","Mapping"
"Blocked","m160","ball","4","m160cling.wav","None","725.654622191","110","456946.029941","449228.808044","449995.597051","450761.961871","451529.186813","452295.768983","453045.478591","453812.203289","457695.21519","458462.189701","459228.691176","459995.50739","460762.116767","446946.069825","447695.361429","448462.034496","460006.020857","Mapping"
"Blocked","m160","ball","4","m160bluff.wav","None","723.889546876","110","456946.029941","449228.808044","449995.597051","450761.961871","451529.186813","452295.768983","453045.478591","453812.203289","457695.21519","458462.189701","459228.691176","459995.50739","460762.116767","461528.901446","447695.361429","448462.034496","460772.202646","Mapping"
"Blocked","m160","ball","4","m160priest.wav","None","721.388946346","110","456946.029941","449228.808044","449995.597051","450761.961871","451529.186813","452295.768983","453045.478591","453812.203289","457695.21519","458462.189701","459228.691176","459995.50739","460762.116767","461528.901446","462295.222054","448462.034496","461539.140057","Mapping"
"Blocked","m160","ball","4","m160dime.wav","None","720.713710005","110","456946.029941","449228.808044","449995.597051","450761.961871","451529.186813","452295.768983","453045.478591","453812.203289","457695.21519","458462.189701","459228.691176","459995.50739","460762.116767","461528.901446","462295.222054","463045.190131","462304.264779","Mapping"
"Blocked","m160","ball","4","m160jaw.wav","None","734.693328617","110","456946.029941","463811.672128","449995.597051","450761.961871","451529.186813","452295.768983","453045.478591","453812.203289","457695.21519","458462.189701","459228.691176","459995.50739","460762.116767","461528.901446","462295.222054","463045.190131","463054.746086","Mapping"
"Blocked","m160","ball","4","m160ball.wav","None","732.833646063","110","456946.029941","463811.672128","464578.611085","450761.961871","451529.186813","452295.768983","453045.478591","453812.203289","457695.21519","458462.189701","459228.691176","459995.50739","460762.116767","461528.901446","462295.222054","463045.190131","463821.006405","Mapping"
"Blocked","m160","ball","4","m160reek.wav","space","442.706473463","110","456946.029941","463811.672128","464578.611085","465345.249833","451529.186813","452295.768983","453045.478591","453812.203289","457695.21519","458462.189701","459228.691176","459995.50739","460762.116767","461528.901446","462295.222054","463045.190131","464588.506203","Mapping"
"Blocked","m160","ball","4","m160ball.wav","None","726.3109989","110","456946.029941","463811.672128","464578.611085","465345.249833","466112.388516","452295.768983","453045.478591","453812.203289","457695.21519","458462.189701","459228.691176","459995.50739","460762.116767","461528.901446","462295.222054","463045.190131","465354.952645","Mapping"
"Blocked","m160","ball","4","m160bluff.wav","space","692.630493897","110","456946.029941","463811.672128","464578.611085","465345.249833","466112.388516","466878.756427","453045.478591","453812.203289","457695.21519","458462.189701","459228.691176","459995.50739","460762.116767","461528.901446","462295.222054","463045.190131","466122.550452","Mapping"
"Blocked","m160","ball","4","m160ball.wav","None","719.373749162","110","456946.029941","463811.672128","464578.611085","465345.249833","466112.388516","466878.756427","467628.457379","453812.203289","457695.21519","458462.189701","459228.691176","459995.50739","460762.116767","461528.901446","462295.222054","463045.190131","466889.37254","Mapping"
"Blocked","m160","ball","4","m160reek.wav","space","520.623616641","110","456946.029941","463811.672128","464578.611085","465345.249833","466112.388516","466878.756427","467628.457379","468395.253497","457695.21519","458462.189701","459228.691176","459995.50739","460762.116767","461528.901446","462295.222054","463045.190131","467638.530582","Mapping"
"Blocked","m160","ball","6","m160jolt.wav","None","731.619209924","110","471528.840847","463811.672128","464578.611085","465345.249833","466112.388516","466878.756427","467628.457379","468395.253497","457695.21519","458462.189701","459228.691176","459995.50739","460762.116767","461528.901446","462295.222054","463045.190131","468404.609416","Mapping"
"Blocked","m160","ball","6","m160ball.wav","None","719.148052041","110","471528.840847","463811.672128","464578.611085","465345.249833","466112.388516","466878.756427","467628.457379","468395.253497","472278.416892","458462.189701","459228.691176","459995.50739","460762.116767","461528.901446","462295.222054","463045.190131","471538.803366","Mapping"
"Blocked","m160","ball","6","m160greet.wav","space","374.706091301","110","471528.840847","463811.672128","464578.611085","465345.249833","466112.388516","466878.756427","467628.457379","468395.253497","472278.416892","473045.140354","459228.691176","459995.50739","460762.116767","461528.901446","462295.222054","463045.190131","472288.373228","Mapping"
"Blocked","m160","ball","6","m160knife.wav","None","730.604809592","110","471528.840847","463811.672128","464578.611085","465345.249833","466112.388516","466878.756427","467628.457379","468395.253497","472278.416892","473045.140354","473811.541038","459995.50739","460762.116767","461528.901446","462295.222054","463045.190131","473054.778549","Mapping"
"Blocked","m160","ball","6","m160jolt.wav","None","729.736030218","110","471528.840847","463811.672128","464578.611085","465345.249833","466112.388516","466878.756427","467628.457379","468395.253497","472278.416892","473045.140354","473811.541038","474578.25708","460762.116767","461528.901446","462295.222054","463045.190131","473820.66755","Mapping"
"Blocked","m160","ball","6","m160knife.wav","None","726.350264042","110","471528.840847","463811.672128","464578.611085","465345.249833","466112.388516","466878.756427","467628.457379","468395.253497","472278.416892","473045.140354","473811.541038","474578.25708","475344.692083","461528.901446","462295.222054","463045.190131","474588.559381","Mapping"
"Blocked","m160","ball","6","m160ball.wav","None","725.43139843","110","471528.840847","463811.672128","464578.611085","465345.249833","466112.388516","466878.756427","467628.457379","468395.253497","472278.416892","473045.140354","473811.541038","474578.25708","475344.692083","476112.310913","462295.222054","463045.190131","475353.918458","Mapping"
"Blocked","m160","ball","6","m160park.wav","space","484.570199973","110","471528.840847","463811.672128","464578.611085","465345.249833","466112.388516","466878.756427","467628.457379","468395.253497","472278.416892","473045.140354","473811.541038","474578.25708","475344.692083","476112.310913","476861.832543","463045.190131","476122.508404","Mapping"
"Blocked","m160","ball","6","m160jolt.wav","None","735.290962271","110","471528.840847","463811.672128","464578.611085","465345.249833","466112.388516","466878.756427","467628.457379","468395.253497","472278.416892","473045.140354","473811.541038","474578.25708","475344.692083","476112.310913","476861.832543","477628.314849","476871.67232","Mapping"
"Blocked","m160","ball","6","m160tile.wav","None","733.214239473","110","471528.840847","478394.756035","464578.611085","465345.249833","466112.388516","466878.756427","467628.457379","468395.253497","472278.416892","473045.140354","473811.541038","474578.25708","475344.692083","476112.310913","476861.832543","477628.314849","477638.135457","Mapping"
"Blocked","m160","ball","6","m160depth.wav","None","731.895302481","110","471528.840847","478394.756035","479161.436522","465345.249833","466112.388516","466878.756427","467628.457379","468395.253497","472278.416892","473045.140354","473811.541038","474578.25708","475344.692083","476112.310913","476861.832543","477628.314849","478404.03497","Mapping"
"Blocked","m160","ball","6","m160ball.wav","None","729.944104387","110","471528.840847","478394.756035","479161.436522","479928.333122","466112.388516","466878.756427","467628.457379","468395.253497","472278.416892","473045.140354","473811.541038","474578.25708","475344.692083","476112.310913","476861.832543","477628.314849","479170.4709","Mapping"
"Blocked","m160","ball","6","m160knife.wav","None","726.749717025","110","471528.840847","478394.756035","479161.436522","479928.333122","480695.186437","466878.756427","467628.457379","468395.253497","472278.416892","473045.140354","473811.541038","474578.25708","475344.692083","476112.310913","476861.832543","477628.314849","479938.424566","Mapping"
"Blocked","m160","ball","6","m160cad.wav","space","62.1375126066","110","471528.840847","478394.756035","479161.436522","479928.333122","480695.186437","481462.273487","467628.457379","468395.253497","472278.416892","473045.140354","473811.541038","474578.25708","475344.692083","476112.310913","476861.832543","477628.314849","480704.843491","Mapping"
"Blocked","m160","ball","6","m160ball.wav","None","720.625595364","110","471528.840847","478394.756035","479161.436522","479928.333122","480695.186437","481462.273487","482211.97011","468395.253497","472278.416892","473045.140354","473811.541038","474578.25708","475344.692083","476112.310913","476861.832543","477628.314849","481472.161186","Mapping"
"Blocked","m160","ball","6","m160done.wav","None","735.475848429","110","471528.840847","478394.756035","479161.436522","479928.333122","480695.186437","481462.273487","482211.97011","482978.313288","472278.416892","473045.140354","473811.541038","474578.25708","475344.692083","476112.310913","476861.832543","477628.314849","482221.78639","Mapping"
"Blocked","m160","ball","3","m160bluff.wav","space","58.0595055362","110","486112.15478","478394.756035","479161.436522","479928.333122","480695.186437","481462.273487","482211.97011","482978.313288","472278.416892","473045.140354","473811.541038","474578.25708","475344.692083","476112.310913","476861.832543","477628.314849","482988.890136","Mapping"
"Blocked","m160","ball","3","m160lash.wav","None","719.66715547","110","486112.15478","478394.756035","479161.436522","479928.333122","480695.186437","481462.273487","482211.97011","482978.313288","486861.484104","473045.140354","473811.541038","474578.25708","475344.692083","476112.310913","476861.832543","477628.314849","486122.082053","Mapping"
"Blocked","m160","ball","3","m160ball.wav","None","734.906967962","110","486112.15478","478394.756035","479161.436522","479928.333122","480695.186437","481462.273487","482211.97011","482978.313288","486861.484104","487628.023607","473811.541038","474578.25708","475344.692083","476112.310913","476861.832543","477628.314849","486871.41014","Mapping"
"Blocked","m160","ball","3","m160lash.wav","space","361.346366873","110","486112.15478","478394.756035","479161.436522","479928.333122","480695.186437","481462.273487","482211.97011","482978.313288","486861.484104","487628.023607","488394.928554","474578.25708","475344.692083","476112.310913","476861.832543","477628.314849","487637.549572","Mapping"
"Blocked","m160","ball","3","m160gnash.wav","None","729.151691077","110","486112.15478","478394.756035","479161.436522","479928.333122","480695.186437","481462.273487","482211.97011","482978.313288","486861.484104","487628.023607","488394.928554","489161.329857","475344.692083","476112.310913","476861.832543","477628.314849","488404.75751","Mapping"
"Blocked","m160","ball","3","m160park.wav","None","727.732581669","110","486112.15478","478394.756035","479161.436522","479928.333122","480695.186437","481462.273487","482211.97011","482978.313288","486861.484104","487628.023607","488394.928554","489161.329857","489928.335904","476112.310913","476861.832543","477628.314849","489170.764616","Mapping"
"Blocked","m160","ball","3","m160jaw.wav","None","724.738229939","110","486112.15478","478394.756035","479161.436522","479928.333122","480695.186437","481462.273487","482211.97011","482978.313288","486861.484104","487628.023607","488394.928554","489161.329857","489928.335904","490695.408424","476861.832543","477628.314849","489938.229786","Mapping"
"Blocked","m160","ball","3","m160reek.wav","None","721.443670162","110","486112.15478","478394.756035","479161.436522","479928.333122","480695.186437","481462.273487","482211.97011","482978.313288","486861.484104","487628.023607","488394.928554","489161.329857","489928.335904","490695.408424","491461.582792","477628.314849","490706.228901","Mapping"
"Blocked","m160","ball","3","m160ball.wav","None","721.774486476","110","486112.15478","478394.756035","479161.436522","479928.333122","480695.186437","481462.273487","482211.97011","482978.313288","486861.484104","487628.023607","488394.928554","489161.329857","489928.335904","490695.408424","491461.582792","492211.592918","491470.686425","Mapping"
"Blocked","m160","ball","3","m160dime.wav","space","393.4448277","110","486112.15478","492978.159319","479161.436522","479928.333122","480695.186437","481462.273487","482211.97011","482978.313288","486861.484104","487628.023607","488394.928554","489161.329857","489928.335904","490695.408424","491461.582792","492211.592918","492221.362512","Mapping"
"Blocked","m160","ball","3","m160ball.wav","None","731.990837317","110","486112.15478","492978.159319","493744.470034","479928.333122","480695.186437","481462.273487","482211.97011","482978.313288","486861.484104","487628.023607","488394.928554","489161.329857","489928.335904","490695.408424","491461.582792","492211.592918","492988.133896","Mapping"
"Blocked","m160","ball","3","m160depth.wav","space","370.466076944","110","486112.15478","492978.159319","493744.470034","494511.621702","480695.186437","481462.273487","482211.97011","482978.313288","486861.484104","487628.023607","488394.928554","489161.329857","489928.335904","490695.408424","491461.582792","492211.592918","493748.32389","Mapping"
"Blocked","m160","ball","3","m160tile.wav","None","726.661293185","110","486112.15478","492978.159319","493744.470034","494511.621702","495278.136471","481462.273487","482211.97011","482978.313288","486861.484104","487628.023607","488394.928554","489161.329857","489928.335904","490695.408424","491461.582792","492211.592918","494521.285559","Mapping"
"Blocked","m160","ball","3","m160ball.wav","None","723.531523254","110","486112.15478","492978.159319","493744.470034","494511.621702","495278.136471","496045.260932","482211.97011","482978.313288","486861.484104","487628.023607","488394.928554","489161.329857","489928.335904","490695.408424","491461.582792","492211.592918","495288.993431","Mapping"
"Blocked","m160","ball","3","m160done.wav","space","359.177819337","110","486112.15478","492978.159319","493744.470034","494511.621702","495278.136471","496045.260932","496811.997998","482978.313288","486861.484104","487628.023607","488394.928554","489161.329857","489928.335904","490695.408424","491461.582792","492211.592918","496055.555813","Mapping"
"Blocked","m160","ball","3","m160cad.wav","None","719.213597011","110","486112.15478","492978.159319","493744.470034","494511.621702","495278.136471","496045.260932","496811.997998","497561.471088","486861.484104","487628.023607","488394.928554","489161.329857","489928.335904","490695.408424","491461.582792","492211.592918","496821.630319","Mapping"
"Blocked","m160","cave","11","m160dime.wav","None","734.153819736","110","500694.978362","492978.159319","493744.470034","494511.621702","495278.136471","496045.260932","496811.997998","497561.471088","486861.484104","487628.023607","488394.928554","489161.329857","489928.335904","490695.408424","491461.582792","492211.592918","497571.331579","Mapping"
"Blocked","m160","cave","11","m160bluff.wav","None","719.66653713","110","500694.978362","492978.159319","493744.470034","494511.621702","495278.136471","496045.260932","496811.997998","497561.471088","501444.531529","487628.023607","488394.928554","489161.329857","489928.335904","490695.408424","491461.582792","492211.592918","500704.806391","Mapping"
"Blocked","m160","cave","11","m160cave.wav","None","735.641565756","110","500694.978362","492978.159319","493744.470034","494511.621702","495278.136471","496045.260932","496811.997998","497561.471088","501444.531529","502211.318062","488394.928554","489161.329857","489928.335904","490695.408424","491461.582792","492211.592918","501453.894249","Mapping"
"Blocked","m160","cave","11","m160cad.wav","None","733.106956002","110","500694.978362","492978.159319","493744.470034","494511.621702","495278.136471","496045.260932","496811.997998","497561.471088","501444.531529","502211.318062","502978.063784","489161.329857","489928.335904","490695.408424","491461.582792","492211.592918","502220.9813","Mapping"
"Blocked","m160","cave","11","m160priest.wav","space","122.717714985","110","500694.978362","492978.159319","493744.470034","494511.621702","495278.136471","496045.260932","496811.997998","497561.471088","501444.531529","502211.318062","502978.063784","503744.372953","489928.335904","490695.408424","491461.582792","492211.592918","502987.911909","Mapping"
"Blocked","m160","cave","11","m160ball.wav","None","728.098025545","110","500694.978362","492978.159319","493744.470034","494511.621702","495278.136471","496045.260932","496811.997998","497561.471088","501444.531529","502211.318062","502978.063784","503744.372953","504511.07941","490695.408424","491461.582792","492211.592918","503753.661472","Mapping"
"Blocked","m160","cave","11","m160knife.wav","None","726.316873217","110","500694.978362","492978.159319","493744.470034","494511.621702","495278.136471","496045.260932","496811.997998","497561.471088","501444.531529","502211.318062","502978.063784","503744.372953","504511.07941","505277.879238","491461.582792","492211.592918","504520.494691","Mapping"
"Blocked","m160","cave","11","m160cave.wav","None","723.845025816","110","500694.978362","492978.159319","493744.470034","494511.621702","495278.136471","496045.260932","496811.997998","497561.471088","501444.531529","502211.318062","502978.063784","503744.372953","504511.07941","505277.879238","506045.198788","492211.592918","505287.568447","Mapping"
"Blocked","m160","cave","11","m160bluff.wav","space","487.300207838","110","500694.978362","492978.159319","493744.470034","494511.621702","495278.136471","496045.260932","496811.997998","497561.471088","501444.531529","502211.318062","502978.063784","503744.372953","504511.07941","505277.879238","506045.198788","506794.404133","506055.295179","Mapping"
"Blocked","m160","cave","11","m160depth.wav","None","735.216142086","110","500694.978362","507561.222821","493744.470034","494511.621702","495278.136471","496045.260932","496811.997998","497561.471088","501444.531529","502211.318062","502978.063784","503744.372953","504511.07941","505277.879238","506045.198788","506794.404133","506804.200316","Mapping"
"Blocked","m160","cave","11","m160priest.wav","None","733.840935456","110","500694.978362","507561.222821","508327.991113","494511.621702","495278.136471","496045.260932","496811.997998","497561.471088","501444.531529","502211.318062","502978.063784","503744.372953","504511.07941","505277.879238","506045.198788","506794.404133","507570.600382","Mapping"
"Blocked","m160","cave","11","m160priest.wav","None","731.703305326","110","500694.978362","507561.222821","508327.991113","509094.683967","495278.136471","496045.260932","496811.997998","497561.471088","501444.531529","502211.318062","502978.063784","503744.372953","504511.07941","505277.879238","506045.198788","506794.404133","508337.947139","Mapping"
