"Condition","Talker","Target","Trial","current_stimulus","response_response","response_time_response","subject_nr","time_Audio1","time_Audio10","time_Audio11","time_Audio12","time_Audio13","time_Audio14","time_Audio15","time_Audio16","time_Audio2","time_Audio3","time_Audio4","time_Audio5","time_Audio6","time_Audio7","time_Audio8","time_Audio9","time_response","title"
"Blocked","m150","ball","3","m150bluff.wav","NA","NA","185","154717.447903","NA","NA","NA","NA","NA","NA","NA","NA","NA","NA","NA","NA","NA","NA","NA","NA","Mapping"
"Blocked","m150","ball","3","m150ball.wav","None","719.008923741","185","154717.447903","NA","NA","NA","NA","NA","NA","NA","155484.560616","NA","NA","NA","NA","NA","NA","NA","154731.266751","Mapping"
"Blocked","m150","ball","3","m150lash.wav","space","618.097261759","185","154717.447903","NA","NA","NA","NA","NA","NA","NA","155484.560616","156250.076134","NA","NA","NA","NA","NA","NA","155494.765527","Mapping"
"Blocked","m150","ball","3","m150cave.wav","None","723.891401896","185","154717.447903","NA","NA","NA","NA","NA","NA","NA","155484.560616","156250.076134","157017.02653","NA","NA","NA","NA","NA","156259.773073","Mapping"
"Blocked","m150","ball","3","m150romp.wav","None","723.538634134","185","154717.447903","NA","NA","NA","NA","NA","NA","NA","155484.560616","156250.076134","157017.02653","157783.631269","NA","NA","NA","NA","157026.886094","Mapping"
"Blocked","m150","ball","3","m150gnash.wav","None","724.549633684","185","154717.447903","NA","NA","NA","NA","NA","NA","NA","155484.560616","156250.076134","157017.02653","157783.631269","158549.910448","NA","NA","NA","157793.000483","Mapping"
"Blocked","m150","ball","3","m150tile.wav","None","725.398625946","185","154717.447903","NA","NA","NA","NA","NA","NA","NA","155484.560616","156250.076134","157017.02653","157783.631269","158549.910448","159316.911548","NA","NA","158558.866295","Mapping"
"Blocked","m150","ball","3","m150cad.wav","None","726.201551268","185","154717.447903","NA","NA","NA","NA","NA","NA","NA","155484.560616","156250.076134","157017.02653","157783.631269","158549.910448","159316.911548","160083.309759","NA","159324.763644","Mapping"
"Blocked","m150","ball","3","m150ball.wav","None","724.582097027","185","154717.447903","NA","NA","NA","NA","NA","NA","NA","155484.560616","156250.076134","157017.02653","157783.631269","158549.910448","159316.911548","160083.309759","160849.766713","160093.134386","Mapping"
"Blocked","m150","ball","3","m150cling.wav","space","382.121942705","185","154717.447903","161616.399277","NA","NA","NA","NA","NA","NA","155484.560616","156250.076134","157017.02653","157783.631269","158549.910448","159316.911548","160083.309759","160849.766713","160858.666291","Mapping"
"Blocked","m150","ball","3","m150ball.wav","None","722.23051847","185","154717.447903","161616.399277","162366.320979","NA","NA","NA","NA","NA","155484.560616","156250.076134","157017.02653","157783.631269","158549.910448","159316.911548","160083.309759","160849.766713","161625.348942","Mapping"
"Blocked","m150","ball","3","m150lash.wav","space","480.848670704","185","154717.447903","161616.399277","162366.320979","163132.926646","NA","NA","NA","NA","155484.560616","156250.076134","157017.02653","157783.631269","158549.910448","159316.911548","160083.309759","160849.766713","162375.850654","Mapping"
"Blocked","m150","ball","3","m150gnash.wav","None","732.953914907","185","154717.447903","161616.399277","162366.320979","163132.926646","163899.362267","NA","NA","NA","155484.560616","156250.076134","157017.02653","157783.631269","158549.910448","159316.911548","160083.309759","160849.766713","163142.019458","Mapping"
"Blocked","m150","ball","3","m150gnash.wav","None","569.805186242","185","154717.447903","161616.399277","162366.320979","163132.926646","163899.362267","164666.591847","NA","NA","155484.560616","156250.076134","157017.02653","157783.631269","158549.910448","159316.911548","160083.309759","160849.766713","164069.411453","Mapping"
"Blocked","m150","ball","3","m150ball.wav","None","726.773214061","185","154717.447903","161616.399277","162366.320979","163132.926646","163899.362267","164666.591847","165433.767939","NA","155484.560616","156250.076134","157017.02653","157783.631269","158549.910448","159316.911548","160083.309759","160849.766713","164675.630553","Mapping"
"Blocked","m150","ball","3","m150cad.wav","space","332.736318","185","154717.447903","161616.399277","162366.320979","163132.926646","163899.362267","164666.591847","165433.767939","166200.34207","155484.560616","156250.076134","157017.02653","157783.631269","158549.910448","159316.911548","160083.309759","160849.766713","165443.99573","Mapping"
"Blocked","m150","ball","6","m150dime.wav","None","718.102425104","185","169350.294628","161616.399277","162366.320979","163132.926646","163899.362267","164666.591847","165433.767939","166200.34207","155484.560616","156250.076134","157017.02653","157783.631269","158549.910448","159316.911548","160083.309759","160849.766713","166210.743617","Mapping"
"Blocked","m150","ball","6","m150ball.wav","None","722.806200618","185","169350.294628","161616.399277","162366.320979","163132.926646","163899.362267","164666.591847","165433.767939","166200.34207","170116.274835","156250.076134","157017.02653","157783.631269","158549.910448","159316.911548","160083.309759","160849.766713","169360.205514","Mapping"
"Blocked","m150","ball","6","m150reek.wav","space","414.837514982","185","169350.294628","161616.399277","162366.320979","163132.926646","163899.362267","164666.591847","165433.767939","166200.34207","170116.274835","170882.921003","157017.02653","157783.631269","158549.910448","159316.911548","160083.309759","160849.766713","170129.84789","Mapping"
"Blocked","m150","ball","6","m150knife.wav","None","721.110689687","185","169350.294628","161616.399277","162366.320979","163132.926646","163899.362267","164666.591847","165433.767939","166200.34207","170116.274835","170882.921003","171650.732758","157783.631269","158549.910448","159316.911548","160083.309759","160849.766713","170892.324535","Mapping"
"Blocked","m150","ball","6","m150ball.wav","None","720.206664409","185","169350.294628","161616.399277","162366.320979","163132.926646","163899.362267","164666.591847","165433.767939","166200.34207","170116.274835","170882.921003","171650.732758","172399.547926","158549.910448","159316.911548","160083.309759","160849.766713","171660.506681","Mapping"
"Blocked","m150","ball","6","m150park.wav","space","327.759232372","185","169350.294628","161616.399277","162366.320979","163132.926646","163899.362267","164666.591847","165433.767939","166200.34207","170116.274835","170882.921003","171650.732758","172399.547926","173166.12453","159316.911548","160083.309759","160849.766713","172408.87942","Mapping"
"Blocked","m150","ball","6","m150priest.wav","None","735.265300842","185","169350.294628","161616.399277","162366.320979","163132.926646","163899.362267","164666.591847","165433.767939","166200.34207","170116.274835","170882.921003","171650.732758","172399.547926","173166.12453","173932.90859","160083.309759","160849.766713","173175.517241","Mapping"
"Blocked","m150","ball","6","m150cave.wav","None","735.216451343","185","169350.294628","161616.399277","162366.320979","163132.926646","163899.362267","164666.591847","165433.767939","166200.34207","170116.274835","170882.921003","171650.732758","172399.547926","173166.12453","173932.90859","174699.690177","160849.766713","173942.306248","Mapping"
"Blocked","m150","ball","6","m150jaw.wav","None","731.833776925","185","169350.294628","161616.399277","162366.320979","163132.926646","163899.362267","164666.591847","165433.767939","166200.34207","170116.274835","170882.921003","171650.732758","172399.547926","173166.12453","173932.90859","174699.690177","175466.397871","174709.008067","Mapping"
"Blocked","m150","ball","6","m150ball.wav","None","731.809970457","185","169350.294628","176233.065681","162366.320979","163132.926646","163899.362267","164666.591847","165433.767939","166200.34207","170116.274835","170882.921003","171650.732758","172399.547926","173166.12453","173932.90859","174699.690177","175466.397871","175476.01937","Mapping"
"Blocked","m150","ball","6","m150lash.wav","space","398.123251041","185","169350.294628","176233.065681","176999.781414","163132.926646","163899.362267","164666.591847","165433.767939","166200.34207","170116.274835","170882.921003","171650.732758","172399.547926","173166.12453","173932.90859","174699.690177","175466.397871","176242.466121","Mapping"
"Blocked","m150","ball","6","m150jaw.wav","None","725.96255946","185","169350.294628","176233.065681","176999.781414","177766.638748","163899.362267","164666.591847","165433.767939","166200.34207","170116.274835","170882.921003","171650.732758","172399.547926","173166.12453","173932.90859","174699.690177","175466.397871","177009.137642","Mapping"
"Blocked","m150","ball","6","m150cling.wav","None","722.066656221","185","169350.294628","176233.065681","176999.781414","177766.638748","178516.943207","164666.591847","165433.767939","166200.34207","170116.274835","170882.921003","171650.732758","172399.547926","173166.12453","173932.90859","174699.690177","175466.397871","177776.422564","Mapping"
"Blocked","m150","ball","6","m150ball.wav","None","735.51171273","185","169350.294628","176233.065681","176999.781414","177766.638748","178516.943207","179282.962062","165433.767939","166200.34207","170116.274835","170882.921003","171650.732758","172399.547926","173166.12453","173932.90859","174699.690177","175466.397871","178526.309948","Mapping"
"Blocked","m150","ball","6","m150done.wav","space","340.012731729","185","169350.294628","176233.065681","176999.781414","177766.638748","178516.943207","179282.962062","180049.746431","166200.34207","170116.274835","170882.921003","171650.732758","172399.547926","173166.12453","173932.90859","174699.690177","175466.397871","179292.505031","Mapping"
"Blocked","m150","ball","6","m150priest.wav","None","733.115303796","185","169350.294628","176233.065681","176999.781414","177766.638748","178516.943207","179282.962062","180049.746431","180815.866385","170116.274835","170882.921003","171650.732758","172399.547926","173166.12453","173932.90859","174699.690177","175466.397871","180058.978371","Mapping"
"Blocked","m150","cave","11","m150jaw.wav","None","732.242505299","185","183950.050442","176233.065681","176999.781414","177766.638748","178516.943207","179282.962062","180049.746431","180815.866385","170116.274835","170882.921003","171650.732758","172399.547926","173166.12453","173932.90859","174699.690177","175466.397871","180824.674756","Mapping"
"Blocked","m150","cave","11","m150cave.wav","None","719.636547379","185","183950.050442","176233.065681","176999.781414","177766.638748","178516.943207","179282.962062","180049.746431","180815.866385","184699.123151","170882.921003","171650.732758","172399.547926","173166.12453","173932.90859","174699.690177","175466.397871","183959.81849","Mapping"
"Blocked","m150","cave","11","m150reek.wav","space","588.112315629","185","183950.050442","176233.065681","176999.781414","177766.638748","178516.943207","179282.962062","180049.746431","180815.866385","184699.123151","185466.025007","171650.732758","172399.547926","173166.12453","173932.90859","174699.690177","175466.397871","184708.312116","Mapping"
"Blocked","m150","cave","11","m150park.wav","None","730.365817901","185","183950.050442","176233.065681","176999.781414","177766.638748","178516.943207","179282.962062","180049.746431","180815.866385","184699.123151","185466.025007","186232.905529","172399.547926","173166.12453","173932.90859","174699.690177","175466.397871","185475.493465","Mapping"
"Blocked","m150","cave","11","m150lash.wav","None","726.86071042","185","183950.050442","176233.065681","176999.781414","177766.638748","178516.943207","179282.962062","180049.746431","180815.866385","184699.123151","185466.025007","186232.905529","186999.983305","173166.12453","173932.90859","174699.690177","175466.397871","186242.329776","Mapping"
"Blocked","m150","cave","11","m150gnash.wav","None","722.625952214","185","183950.050442","176233.065681","176999.781414","177766.638748","178516.943207","179282.962062","180049.746431","180815.866385","184699.123151","185466.025007","186232.905529","186999.983305","187766.564237","173932.90859","174699.690177","175466.397871","187009.848743","Mapping"
"Blocked","m150","cave","11","m150cave.wav","None","719.630672829","185","183950.050442","176233.065681","176999.781414","177766.638748","178516.943207","179282.962062","180049.746431","180815.866385","184699.123151","185466.025007","186232.905529","186999.983305","187766.564237","188516.029289","174699.690177","175466.397871","187776.227476","Mapping"
"Blocked","m150","cave","11","m150knife.wav","space","418.690752704","185","183950.050442","176233.065681","176999.781414","177766.638748","178516.943207","179282.962062","180049.746431","180815.866385","184699.123151","185466.025007","186232.905529","186999.983305","187766.564237","188516.029289","189282.844575","175466.397871","188525.704585","Mapping"
"Blocked","m150","cave","11","m150cling.wav","None","729.723972268","185","183950.050442","176233.065681","176999.781414","177766.638748","178516.943207","179282.962062","180049.746431","180815.866385","184699.123151","185466.025007","186232.905529","186999.983305","187766.564237","188516.029289","189282.844575","190049.574221","189292.661164","Mapping"
"Blocked","m150","cave","11","m150park.wav","None","726.828247309","185","183950.050442","190816.524617","176999.781414","177766.638748","178516.943207","179282.962062","180049.746431","180815.866385","184699.123151","185466.025007","186232.905529","186999.983305","187766.564237","188516.029289","189282.844575","190049.574221","190058.943744","Mapping"
"Blocked","m150","cave","11","m150jolt.wav","None","722.911938094","185","183950.050442","190816.524617","191582.83193","177766.638748","178516.943207","179282.962062","180049.746431","180815.866385","184699.123151","185466.025007","186232.905529","186999.983305","187766.564237","188516.029289","189282.844575","190049.574221","190826.203623","Mapping"
"Blocked","m150","cave","11","m150cave.wav","None","724.58116943","185","183950.050442","190816.524617","191582.83193","192349.944643","178516.943207","179282.962062","180049.746431","180815.866385","184699.123151","185466.025007","186232.905529","186999.983305","187766.564237","188516.029289","189282.844575","190049.574221","191592.32976","Mapping"
"Blocked","m150","cave","11","m150depth.wav","space","440.455067204","185","183950.050442","190816.524617","191582.83193","192349.944643","193116.450755","179282.962062","180049.746431","180815.866385","184699.123151","185466.025007","186232.905529","186999.983305","187766.564237","188516.029289","189282.844575","190049.574221","192359.877481","Mapping"
"Blocked","m150","cave","11","m150knife.wav","None","720.609209035","185","183950.050442","190816.524617","191582.83193","192349.944643","193116.450755","193865.84717","180049.746431","180815.866385","184699.123151","185466.025007","186232.905529","186999.983305","187766.564237","188516.029289","189282.844575","190049.574221","193126.431206","Mapping"
"Blocked","m150","cave","11","m150cave.wav","None","735.384332947","185","183950.050442","190816.524617","191582.83193","192349.944643","193116.450755","193865.84717","194632.800967","180815.866385","184699.123151","185466.025007","186232.905529","186999.983305","187766.564237","188516.029289","189282.844575","190049.574221","193875.038608","Mapping"
"Blocked","m150","cave","11","m150tile.wav","space","406.125605805","185","183950.050442","190816.524617","191582.83193","192349.944643","193116.450755","193865.84717","194632.800967","195399.458884","184699.123151","185466.025007","186232.905529","186999.983305","187766.564237","188516.029289","189282.844575","190049.574221","194642.157504","Mapping"
"Blocked","m150","tile","17","m150cling.wav","None","728.059378918","185","198533.052418","190816.524617","191582.83193","192349.944643","193116.450755","193865.84717","194632.800967","195399.458884","184699.123151","185466.025007","186232.905529","186999.983305","187766.564237","188516.029289","189282.844575","190049.574221","195408.828715","Mapping"
"Blocked","m150","tile","17","m150knife.wav","None","719.547505025","185","198533.052418","190816.524617","191582.83193","192349.944643","193116.450755","193865.84717","194632.800967","195399.458884","199282.641757","185466.025007","186232.905529","186999.983305","187766.564237","188516.029289","189282.844575","190049.574221","198542.728641","Mapping"
"Blocked","m150","tile","17","m150tile.wav","None","733.229388949","185","198533.052418","190816.524617","191582.83193","192349.944643","193116.450755","193865.84717","194632.800967","195399.458884","199282.641757","200049.525062","186232.905529","186999.983305","187766.564237","188516.029289","189282.844575","190049.574221","199292.689299","Mapping"
"Blocked","m150","tile","17","m150done.wav","space","349.396785721","185","198533.052418","190816.524617","191582.83193","192349.944643","193116.450755","193865.84717","194632.800967","195399.458884","199282.641757","200049.525062","200815.657692","186999.983305","187766.564237","188516.029289","189282.844575","190049.574221","200058.835224","Mapping"
"Blocked","m150","tile","17","m150priest.wav","None","728.243955877","185","198533.052418","190816.524617","191582.83193","192349.944643","193116.450755","193865.84717","194632.800967","195399.458884","199282.641757","200049.525062","200815.657692","201582.459375","187766.564237","188516.029289","189282.844575","190049.574221","200824.496363","Mapping"
"Blocked","m150","tile","17","m150cad.wav","None","726.050674217","185","198533.052418","190816.524617","191582.83193","192349.944643","193116.450755","193865.84717","194632.800967","195399.458884","199282.641757","200049.525062","200815.657692","201582.459375","202349.778925","188516.029289","189282.844575","190049.574221","201591.228173","Mapping"
"Blocked","m150","tile","17","m150park.wav","None","721.232504118","185","198533.052418","190816.524617","191582.83193","192349.944643","193116.450755","193865.84717","194632.800967","195399.458884","199282.641757","200049.525062","200815.657692","201582.459375","202349.778925","203099.060327","189282.844575","190049.574221","202359.709908","Mapping"
"Blocked","m150","tile","17","m150tile.wav","None","736.606807448","185","198533.052418","190816.524617","191582.83193","192349.944643","193116.450755","193865.84717","194632.800967","195399.458884","199282.641757","200049.525062","200815.657692","201582.459375","202349.778925","203099.060327","203865.632294","190049.574221","203108.031634","Mapping"
"Blocked","m150","tile","17","m150gnash.wav","space","405.622270191","185","198533.052418","190816.524617","191582.83193","192349.944643","193116.450755","193865.84717","194632.800967","195399.458884","199282.641757","200049.525062","200815.657692","201582.459375","202349.778925","203099.060327","203865.632294","204632.361939","203874.462308","Mapping"
"Blocked","m150","tile","17","m150tile.wav","None","729.843004374","185","198533.052418","205399.36644","191582.83193","192349.944643","193116.450755","193865.84717","194632.800967","195399.458884","199282.641757","200049.525062","200815.657692","201582.459375","202349.778925","203099.060327","203865.632294","204632.361939","204641.616758","Mapping"
"Blocked","m150","tile","17","m150bluff.wav","space","471.181104193","185","198533.052418","205399.36644","206165.770835","192349.944643","193116.450755","193865.84717","194632.800967","195399.458884","199282.641757","200049.525062","200815.657692","201582.459375","202349.778925","203099.060327","203865.632294","204632.361939","205408.96166","Mapping"
"Blocked","m150","tile","17","m150priest.wav","None","723.248010501","185","198533.052418","205399.36644","206165.770835","206932.992995","193116.450755","193865.84717","194632.800967","195399.458884","199282.641757","200049.525062","200815.657692","201582.459375","202349.778925","203099.060327","203865.632294","204632.361939","206174.976804","Mapping"
"Blocked","m150","tile","17","m150knife.wav","None","718.462303746","185","198533.052418","205399.36644","206165.770835","206932.992995","207682.580479","193865.84717","194632.800967","195399.458884","199282.641757","200049.525062","200815.657692","201582.459375","202349.778925","203099.060327","203865.632294","204632.361939","206943.431023","Mapping"
"Blocked","m150","tile","17","m150tile.wav","None","733.456941321","185","198533.052418","205399.36644","206165.770835","206932.992995","207682.580479","208449.324965","194632.800967","195399.458884","199282.641757","200049.525062","200815.657692","201582.459375","202349.778925","203099.060327","203865.632294","204632.361939","207692.081091","Mapping"
"Blocked","m150","tile","17","m150done.wav","space","341.173371533","185","198533.052418","205399.36644","206165.770835","206932.992995","207682.580479","208449.324965","209215.901569","195399.458884","199282.641757","200049.525062","200815.657692","201582.459375","202349.778925","203099.060327","203865.632294","204632.361939","208458.927296","Mapping"
"Blocked","m150","tile","17","m150jaw.wav","None","728.254158515","185","198533.052418","205399.36644","206165.770835","206932.992995","207682.580479","208449.324965","209215.901569","209982.562887","199282.641757","200049.525062","200815.657692","201582.459375","202349.778925","203099.060327","203865.632294","204632.361939","209225.370027","Mapping"
"Blocked","m150","done","20","m150dime.wav","None","725.143866381","185","213099.57232","205399.36644","206165.770835","206932.992995","207682.580479","208449.324965","209215.901569","209982.562887","199282.641757","200049.525062","200815.657692","201582.459375","202349.778925","203099.060327","203865.632294","204632.361939","209992.071847","Mapping"
"Blocked","m150","done","20","m150romp.wav","None","719.374676701","185","213099.57232","205399.36644","206165.770835","206932.992995","207682.580479","208449.324965","209215.901569","209982.562887","213848.993777","200049.525062","200815.657692","201582.459375","202349.778925","203099.060327","203865.632294","204632.361939","213109.501138","Mapping"
"Blocked","m150","done","20","m150gnash.wav","None","734.066632576","185","213099.57232","205399.36644","206165.770835","206932.992995","207682.580479","208449.324965","209215.901569","209982.562887","213848.993777","214615.78433","200815.657692","201582.459375","202349.778925","203099.060327","203865.632294","204632.361939","213858.399164","Mapping"
"Blocked","m150","done","20","m150done.wav","None","730.860805837","185","213099.57232","205399.36644","206165.770835","206932.992995","207682.580479","208449.324965","209215.901569","209982.562887","213848.993777","214615.78433","215382.477802","201582.459375","202349.778925","203099.060327","203865.632294","204632.361939","214625.206413","Mapping"
"Blocked","m150","done","20","m150lash.wav","space","376.032448374","185","213099.57232","205399.36644","206165.770835","206932.992995","207682.580479","208449.324965","209215.901569","209982.562887","213848.993777","214615.78433","215382.477802","216149.620504","202349.778925","203099.060327","203865.632294","204632.361939","215391.971613","Mapping"
"Blocked","m150","done","20","m150romp.wav","None","723.206890281","185","213099.57232","205399.36644","206165.770835","206932.992995","207682.580479","208449.324965","209215.901569","209982.562887","213848.993777","214615.78433","215382.477802","216149.620504","216915.845268","203099.060327","203865.632294","204632.361939","216159.621361","Mapping"
"Blocked","m150","done","20","m150done.wav","None","720.918383216","185","213099.57232","205399.36644","206165.770835","206932.992995","207682.580479","208449.324965","209215.901569","209982.562887","213848.993777","214615.78433","215382.477802","216149.620504","216915.845268","217665.54993","203865.632294","204632.361939","216925.837159","Mapping"
"Blocked","m150","done","20","m150jolt.wav","space","364.863841096","185","213099.57232","205399.36644","206165.770835","206932.992995","207682.580479","208449.324965","209215.901569","209982.562887","213848.993777","214615.78433","215382.477802","216149.620504","216915.845268","217665.54993","218432.020178","204632.361939","217675.102175","Mapping"
"Blocked","m150","done","20","m150reek.wav","None","732.379778288","185","213099.57232","205399.36644","206165.770835","206932.992995","207682.580479","208449.324965","209215.901569","209982.562887","213848.993777","214615.78433","215382.477802","216149.620504","216915.845268","217665.54993","218432.020178","219198.651815","218441.051464","Mapping"
"Blocked","m150","done","20","m150tile.wav","None","729.167768033","185","213099.57232","219965.727736","206165.770835","206932.992995","207682.580479","208449.324965","209215.901569","209982.562887","213848.993777","214615.78433","215382.477802","216149.620504","216915.845268","217665.54993","218432.020178","219198.651815","219207.801206","Mapping"
"Blocked","m150","done","20","m150tile.wav","None","725.092543522","185","213099.57232","219965.727736","220732.636084","206932.992995","207682.580479","208449.324965","209215.901569","209982.562887","213848.993777","214615.78433","215382.477802","216149.620504","216915.845268","217665.54993","218432.020178","219198.651815","219975.365003","Mapping"
"Blocked","m150","done","20","m150done.wav","None","721.6263921","185","213099.57232","219965.727736","220732.636084","221482.447719","207682.580479","208449.324965","209215.901569","209982.562887","213848.993777","214615.78433","215382.477802","216149.620504","216915.845268","217665.54993","218432.020178","219198.651815","220742.440305","Mapping"
"Blocked","m150","done","20","m150lash.wav","space","339.769411599","185","213099.57232","219965.727736","220732.636084","221482.447719","222249.128515","208449.324965","209215.901569","209982.562887","213848.993777","214615.78433","215382.477802","216149.620504","216915.845268","217665.54993","218432.020178","219198.651815","221492.136001","Mapping"
"Blocked","m150","done","20","m150cling.wav","None","732.475622324","185","213099.57232","219965.727736","220732.636084","221482.447719","222249.128515","223015.688424","209215.901569","209982.562887","213848.993777","214615.78433","215382.477802","216149.620504","216915.845268","217665.54993","218432.020178","219198.651815","222258.366639","Mapping"
"Blocked","m150","done","20","m150done.wav","None","729.591955198","185","213099.57232","219965.727736","220732.636084","221482.447719","222249.128515","223015.688424","223782.379423","209982.562887","213848.993777","214615.78433","215382.477802","216149.620504","216915.845268","217665.54993","218432.020178","219198.651815","223025.080826","Mapping"
"Blocked","m150","done","20","m150lash.wav","space","392.064365093","185","213099.57232","219965.727736","220732.636084","221482.447719","222249.128515","223015.688424","223782.379423","224549.526453","213848.993777","214615.78433","215382.477802","216149.620504","216915.845268","217665.54993","218432.020178","219198.651815","223791.78481","Mapping"
"Blocked","m150","cave","10","m150park.wav","None","721.860746155","185","227666.003488","219965.727736","220732.636084","221482.447719","222249.128515","223015.688424","223782.379423","224549.526453","213848.993777","214615.78433","215382.477802","216149.620504","216915.845268","217665.54993","218432.020178","219198.651815","224559.493301","Mapping"
"Blocked","m150","cave","10","m150cave.wav","None","720.119786449","185","227666.003488","219965.727736","220732.636084","221482.447719","222249.128515","223015.688424","223782.379423","224549.526453","228415.416908","214615.78433","215382.477802","216149.620504","216915.845268","217665.54993","218432.020178","219198.651815","227675.731344","Mapping"
"Blocked","m150","cave","10","m150reek.wav","space","446.735940175","185","227666.003488","219965.727736","220732.636084","221482.447719","222249.128515","223015.688424","223782.379423","224549.526453","228415.416908","229182.313816","215382.477802","216149.620504","216915.845268","217665.54993","218432.020178","219198.651815","228425.070561","Mapping"
"Blocked","m150","cave","10","m150cave.wav","None","730.88523047","185","227666.003488","219965.727736","220732.636084","221482.447719","222249.128515","223015.688424","223782.379423","224549.526453","228415.416908","229182.313816","229948.930922","216149.620504","216915.845268","217665.54993","218432.020178","219198.651815","229191.778874","Mapping"
"Blocked","m150","cave","10","m150dime.wav","space","497.056507505","185","227666.003488","219965.727736","220732.636084","221482.447719","222249.128515","223015.688424","223782.379423","224549.526453","228415.416908","229182.313816","229948.930922","230715.938515","216915.845268","217665.54993","218432.020178","219198.651815","229958.707009","Mapping"
"Blocked","m150","cave","10","m150park.wav","None","723.684873665","185","227666.003488","219965.727736","220732.636084","221482.447719","222249.128515","223015.688424","223782.379423","224549.526453","228415.416908","229182.313816","229948.930922","230715.938515","231482.129579","217665.54993","218432.020178","219198.651815","230725.677192","Mapping"
"Blocked","m150","cave","10","m150priest.wav","None","721.310416004","185","227666.003488","219965.727736","220732.636084","221482.447719","222249.128515","223015.688424","223782.379423","224549.526453","228415.416908","229182.313816","229948.930922","230715.938515","231482.129579","232231.803323","218432.020178","219198.651815","231491.657399","Mapping"
"Blocked","m150","cave","10","m150park.wav","None","736.172726844","185","227666.003488","219965.727736","220732.636084","221482.447719","222249.128515","223015.688424","223782.379423","224549.526453","228415.416908","229182.313816","229948.930922","230715.938515","231482.129579","232231.803323","232998.669005","219198.651815","232240.424645","Mapping"
"Blocked","m150","cave","10","m150cave.wav","None","731.989291497","185","227666.003488","219965.727736","220732.636084","221482.447719","222249.128515","223015.688424","223782.379423","224549.526453","228415.416908","229182.313816","229948.930922","230715.938515","231482.129579","232231.803323","232998.669005","233765.539016","233008.180748","Mapping"
"Blocked","m150","cave","10","m150knife.wav","space","368.586916476","185","227666.003488","234531.748012","220732.636084","221482.447719","222249.128515","223015.688424","223782.379423","224549.526453","228415.416908","229182.313816","229948.930922","230715.938515","231482.129579","232231.803323","232998.669005","233765.539016","233775.09899","Mapping"
"Blocked","m150","cave","10","m150lash.wav","None","726.068915566","185","227666.003488","234531.748012","235298.662234","221482.447719","222249.128515","223015.688424","223782.379423","224549.526453","228415.416908","229182.313816","229948.930922","230715.938515","231482.129579","232231.803323","232998.669005","233765.539016","234540.731067","Mapping"
"Blocked","m150","cave","10","m150reek.wav","None","722.986449022","185","227666.003488","234531.748012","235298.662234","236048.529212","222249.128515","223015.688424","223782.379423","224549.526453","228415.416908","229182.313816","229948.930922","230715.938515","231482.129579","232231.803323","232998.669005","233765.539016","235307.499978","Mapping"
"Blocked","m150","cave","10","m150knife.wav","None","736.900832271","185","227666.003488","234531.748012","235298.662234","236048.529212","236815.460749","223015.688424","223782.379423","224549.526453","228415.416908","229182.313816","229948.930922","230715.938515","231482.129579","232231.803323","232998.669005","233765.539016","236057.232155","Mapping"
"Blocked","m150","cave","10","m150cave.wav","None","732.827771688","185","227666.003488","234531.748012","235298.662234","236048.529212","236815.460749","237582.151747","223782.379423","224549.526453","228415.416908","229182.313816","229948.930922","230715.938515","231482.129579","232231.803323","232998.669005","233765.539016","236824.924569","Mapping"
"Blocked","m150","cave","10","m150knife.wav","space","335.53001564","185","227666.003488","234531.748012","235298.662234","236048.529212","236815.460749","237582.151747","238348.894378","224549.526453","228415.416908","229182.313816","229948.930922","230715.938515","231482.129579","232231.803323","232998.669005","233765.539016","237592.143019","Mapping"
"Blocked","m150","cave","10","m150lash.wav","None","726.902139839","185","227666.003488","234531.748012","235298.662234","236048.529212","236815.460749","237582.151747","238348.894378","239115.668235","228415.416908","229182.313816","229948.930922","230715.938515","231482.129579","232231.803323","232998.669005","233765.539016","238358.386334","Mapping"
"Blocked","m150","done","24","m150ball.wav","None","723.498441745","185","242232.474231","234531.748012","235298.662234","236048.529212","236815.460749","237582.151747","238348.894378","239115.668235","228415.416908","229182.313816","229948.930922","230715.938515","231482.129579","232231.803323","232998.669005","233765.539016","239125.7334","Mapping"
"Blocked","m150","done","24","m150done.wav","None","719.488452887","185","242232.474231","234531.748012","235298.662234","236048.529212","236815.460749","237582.151747","238348.894378","239115.668235","242982.068208","229182.313816","229948.930922","230715.938515","231482.129579","232231.803323","232998.669005","233765.539016","242242.138088","Mapping"
"Blocked","m150","done","24","m150ball.wav","space","311.627143295","185","242232.474231","234531.748012","235298.662234","236048.529212","236815.460749","237582.151747","238348.894378","239115.668235","242982.068208","243748.868654","229948.930922","230715.938515","231482.129579","232231.803323","232998.669005","233765.539016","242991.957144","Mapping"
"Blocked","m150","done","24","m150done.wav","None","729.859699961","185","242232.474231","234531.748012","235298.662234","236048.529212","236815.460749","237582.151747","238348.894378","239115.668235","242982.068208","243748.868654","244514.847625","230715.938515","231482.129579","232231.803323","232998.669005","233765.539016","243758.596819","Mapping"
"Blocked","m150","done","24","m150lash.wav","space","323.917125119","185","242232.474231","234531.748012","235298.662234","236048.529212","236815.460749","237582.151747","238348.894378","239115.668235","242982.068208","243748.868654","244514.847625","245281.991873","231482.129579","232231.803323","232998.669005","233765.539016","244523.630335","Mapping"
"Blocked","m150","done","24","m150done.wav","None","725.409137784","185","242232.474231","234531.748012","235298.662234","236048.529212","236815.460749","237582.151747","238348.894378","239115.668235","242982.068208","243748.868654","244514.847625","245281.991873","246048.600322","232231.803323","232998.669005","233765.539016","245291.884209","Mapping"
"Blocked","m150","done","24","m150jolt.wav","space","429.645411437","185","242232.474231","234531.748012","235298.662234","236048.529212","236815.460749","237582.151747","238348.894378","239115.668235","242982.068208","243748.868654","244514.847625","245281.991873","246048.600322","246799.072972","232998.669005","233765.539016","246057.936454","Mapping"
"Blocked","m150","done","24","m150romp.wav","None","735.784095014","185","242232.474231","234531.748012","235298.662234","236048.529212","236815.460749","237582.151747","238348.894378","239115.668235","242982.068208","243748.868654","244514.847625","245281.991873","246048.600322","246799.072972","247565.045759","233765.539016","246808.450224","Mapping"
"Blocked","m150","done","24","m150tile.wav","None","733.85577579","185","242232.474231","234531.748012","235298.662234","236048.529212","236815.460749","237582.151747","238348.894378","239115.668235","242982.068208","243748.868654","244514.847625","245281.991873","246048.600322","246799.072972","247565.045759","248332.007595","247574.075809","Mapping"
"Blocked","m150","done","24","m150lash.wav","None","729.941012803","185","242232.474231","249098.139297","235298.662234","236048.529212","236815.460749","237582.151747","238348.894378","239115.668235","242982.068208","243748.868654","244514.847625","245281.991873","246048.600322","246799.072972","247565.045759","248332.007595","248341.748745","Mapping"
"Blocked","m150","done","24","m150lash.wav","None","728.637225227","185","242232.474231","249098.139297","249865.305187","236048.529212","236815.460749","237582.151747","238348.894378","239115.668235","242982.068208","243748.868654","244514.847625","245281.991873","246048.600322","246799.072972","247565.045759","248332.007595","249106.9285","Mapping"
"Blocked","m150","done","24","m150knife.wav","None","724.480997073","185","242232.474231","249098.139297","249865.305187","250632.082755","236815.460749","237582.151747","238348.894378","239115.668235","242982.068208","243748.868654","244514.847625","245281.991873","246048.600322","246799.072972","247565.045759","248332.007595","249874.811365","Mapping"
"Blocked","m150","done","24","m150lash.wav","None","721.200968372","185","242232.474231","249098.139297","249865.305187","250632.082755","251381.877386","237582.151747","238348.894378","239115.668235","242982.068208","243748.868654","244514.847625","245281.991873","246048.600322","246799.072972","247565.045759","248332.007595","250641.89316","Mapping"
"Blocked","m150","done","24","m150jaw.wav","None","736.072554486","185","242232.474231","249098.139297","249865.305187","250632.082755","251381.877386","252148.526646","238348.894378","239115.668235","242982.068208","243748.868654","244514.847625","245281.991873","246048.600322","246799.072972","247565.045759","248332.007595","251391.194968","Mapping"
"Blocked","m150","done","24","m150done.wav","None","733.131071553","185","242232.474231","249098.139297","249865.305187","250632.082755","251381.877386","252148.526646","252915.011735","239115.668235","242982.068208","243748.868654","244514.847625","245281.991873","246048.600322","246799.072972","247565.045759","248332.007595","252157.897096","Mapping"
"Blocked","m150","done","24","m150reek.wav","space","387.159008067","185","242232.474231","249098.139297","249865.305187","250632.082755","251381.877386","252148.526646","252915.011735","253682.015927","242982.068208","243748.868654","244514.847625","245281.991873","246048.600322","246799.072972","247565.045759","248332.007595","252924.268718","Mapping"
"Blocked","m150","tile","14","m150jaw.wav","None","727.147624362","185","256815.435705","249098.139297","249865.305187","250632.082755","251381.877386","252148.526646","252915.011735","253682.015927","242982.068208","243748.868654","244514.847625","245281.991873","246048.600322","246799.072972","247565.045759","248332.007595","253691.35917","Mapping"
"Blocked","m150","tile","14","m150priest.wav","None","720.180075616","185","256815.435705","249098.139297","249865.305187","250632.082755","251381.877386","252148.526646","252915.011735","253682.015927","257565.158299","243748.868654","244514.847625","245281.991873","246048.600322","246799.072972","247565.045759","248332.007595","256825.379055","Mapping"
"Blocked","m150","tile","14","m150tile.wav","None","734.874504851","185","256815.435705","249098.139297","249865.305187","250632.082755","251381.877386","252148.526646","252915.011735","253682.015927","257565.158299","258331.843732","244514.847625","245281.991873","246048.600322","246799.072972","247565.045759","248332.007595","257574.571106","Mapping"
"Blocked","m150","tile","14","m150park.wav","space","481.876056409","185","256815.435705","249098.139297","249865.305187","250632.082755","251381.877386","252148.526646","252915.011735","253682.015927","257565.158299","258331.843732","259098.5876","245281.991873","246048.600322","246799.072972","247565.045759","248332.007595","258341.477908","Mapping"
"Blocked","m150","tile","14","m150cad.wav","None","728.796140756","185","256815.435705","249098.139297","249865.305187","250632.082755","251381.877386","252148.526646","252915.011735","253682.015927","257565.158299","258331.843732","259098.5876","259865.130195","246048.600322","246799.072972","247565.045759","248332.007595","259108.164888","Mapping"
"Blocked","m150","tile","14","m150knife.wav","None","726.173107279","185","256815.435705","249098.139297","249865.305187","250632.082755","251381.877386","252148.526646","252915.011735","253682.015927","257565.158299","258331.843732","259098.5876","259865.130195","260632.052765","246799.072972","247565.045759","248332.007595","259874.752004","Mapping"
"Blocked","m150","tile","14","m150knife.wav","None","722.556696972","185","256815.435705","249098.139297","249865.305187","250632.082755","251381.877386","252148.526646","252915.011735","253682.015927","257565.158299","258331.843732","259098.5876","259865.130195","260632.052765","261398.757058","247565.045759","248332.007595","260642.32384","Mapping"
"Blocked","m150","tile","14","m150cad.wav","None","719.705493189","185","256815.435705","249098.139297","249865.305187","250632.082755","251381.877386","252148.526646","252915.011735","253682.015927","257565.158299","258331.843732","259098.5876","259865.130195","260632.052765","261398.757058","262148.185009","248332.007595","261409.193232","Mapping"
"Blocked","m150","tile","14","m150knife.wav","None","734.868630301","185","256815.435705","249098.139297","249865.305187","250632.082755","251381.877386","252148.526646","252915.011735","253682.015927","257565.158299","258331.843732","259098.5876","259865.130195","260632.052765","261398.757058","262148.185009","262915.087792","262158.044882","Mapping"
"Blocked","m150","tile","14","m150tile.wav","None","724.661245709","185","256815.435705","263681.731487","249865.305187","250632.082755","251381.877386","252148.526646","252915.011735","253682.015927","257565.158299","258331.843732","259098.5876","259865.130195","260632.052765","261398.757058","262148.185009","262915.087792","262932.177702","Mapping"
"Blocked","m150","tile","14","m150gnash.wav","space","339.599675033","185","256815.435705","263681.731487","264448.183494","250632.082755","251381.877386","252148.526646","252915.011735","253682.015927","257565.158299","258331.843732","259098.5876","259865.130195","260632.052765","261398.757058","262148.185009","262915.087792","263691.681329","Mapping"
"Blocked","m150","tile","14","m150dime.wav","None","726.012645755","185","256815.435705","263681.731487","264448.183494","265215.567352","251381.877386","252148.526646","252915.011735","253682.015927","257565.158299","258331.843732","259098.5876","259865.130195","260632.052765","261398.757058","262148.185009","262915.087792","264457.911349","Mapping"
"Blocked","m150","tile","14","m150tile.wav","None","722.845156677","185","256815.435705","263681.731487","264448.183494","265215.567352","265982.028943","252148.526646","252915.011735","253682.015927","257565.158299","258331.843732","259098.5876","259865.130195","260632.052765","261398.757058","262148.185009","262915.087792","265225.222551","Mapping"
"Blocked","m150","tile","14","m150jolt.wav","space","479.33804593","185","256815.435705","263681.731487","264448.183494","265215.567352","265982.028943","266731.300452","252915.011735","253682.015927","257565.158299","258331.843732","259098.5876","259865.130195","260632.052765","261398.757058","262148.185009","262915.087792","265991.883251","Mapping"
"Blocked","m150","tile","14","m150tile.wav","None","734.664266231","185","256815.435705","263681.731487","264448.183494","265215.567352","265982.028943","266731.300452","267498.393686","253682.015927","257565.158299","258331.843732","259098.5876","259865.130195","260632.052765","261398.757058","262148.185009","262915.087792","266741.548956","Mapping"
"Blocked","m150","tile","14","m150depth.wav","space","507.021808764","185","256815.435705","263681.731487","264448.183494","265215.567352","265982.028943","266731.300452","267498.393686","268264.746448","257565.158299","258331.843732","259098.5876","259865.130195","260632.052765","261398.757058","262148.185009","262915.087792","267508.218313","Mapping"
"Blocked","m150","ball","5","m150greet.wav","None","729.203941533","185","271398.660905","263681.731487","264448.183494","265215.567352","265982.028943","266731.300452","267498.393686","268264.746448","257565.158299","258331.843732","259098.5876","259865.130195","260632.052765","261398.757058","262148.185009","262915.087792","268274.048262","Mapping"
"Blocked","m150","ball","5","m150ball.wav","None","723.141654627","185","271398.660905","263681.731487","264448.183494","265215.567352","265982.028943","266731.300452","267498.393686","268264.746448","272165.27461","258331.843732","259098.5876","259865.130195","260632.052765","261398.757058","262148.185009","262915.087792","271409.057195","Mapping"
"Blocked","m150","ball","5","m150gnash.wav","space","343.582765665","185","271398.660905","263681.731487","264448.183494","265215.567352","265982.028943","266731.300452","267498.393686","268264.746448","272165.27461","272914.551375","259098.5876","259865.130195","260632.052765","261398.757058","262148.185009","262915.087792","272175.557743","Mapping"
"Blocked","m150","ball","5","m150romp.wav","None","735.447095009","185","271398.660905","263681.731487","264448.183494","265215.567352","265982.028943","266731.300452","267498.393686","268264.746448","272165.27461","272914.551375","273681.375009","259865.130195","260632.052765","261398.757058","262148.185009","262915.087792","272923.768474","Mapping"
"Blocked","m150","ball","5","m150cad.wav","None","732.760062674","185","271398.660905","263681.731487","264448.183494","265215.567352","265982.028943","266731.300452","267498.393686","268264.746448","272165.27461","272914.551375","273681.375009","274448.16618","260632.052765","261398.757058","262148.185009","262915.087792","273690.512033","Mapping"
"Blocked","m150","ball","5","m150cling.wav","None","729.426237755","185","271398.660905","263681.731487","264448.183494","265215.567352","265982.028943","266731.300452","267498.393686","268264.746448","272165.27461","272914.551375","273681.375009","274448.16618","275214.922105","261398.757058","262148.185009","262915.087792","274457.806539","Mapping"
"Blocked","m150","ball","5","m150lash.wav","None","726.21639166","185","271398.660905","263681.731487","264448.183494","265215.567352","265982.028943","266731.300452","267498.393686","268264.746448","272165.27461","272914.551375","273681.375009","274448.16618","275214.922105","275981.109459","262148.185009","262915.087792","275224.977376","Mapping"
"Blocked","m150","ball","5","m150tile.wav","None","727.451851591","185","271398.660905","263681.731487","264448.183494","265215.567352","265982.028943","266731.300452","267498.393686","268264.746448","272165.27461","272914.551375","273681.375009","274448.16618","275214.922105","275981.109459","276748.684078","262915.087792","275990.203508","Mapping"
"Blocked","m150","ball","5","m150jaw.wav","None","722.942237277","185","271398.660905","263681.731487","264448.183494","265215.567352","265982.028943","266731.300452","267498.393686","268264.746448","272165.27461","272914.551375","273681.375009","274448.16618","275214.922105","275981.109459","276748.684078","277515.078887","276758.751097","Mapping"
"Blocked","m150","ball","5","m150ball.wav","None","720.410410082","185","271398.660905","278264.288252","264448.183494","265215.567352","265982.028943","266731.300452","267498.393686","268264.746448","272165.27461","272914.551375","273681.375009","274448.16618","275214.922105","275981.109459","276748.684078","277515.078887","277525.27576","Mapping"
"Blocked","m150","ball","5","m150knife.wav","space","301.478810841","185","271398.660905","278264.288252","279031.294608","265215.567352","265982.028943","266731.300452","267498.393686","268264.746448","272165.27461","272914.551375","273681.375009","274448.16618","275214.922105","275981.109459","276748.684078","277515.078887","278273.635205","Mapping"
"Blocked","m150","ball","5","m150ball.wav","None","732.565283077","185","271398.660905","278264.288252","279031.294608","279797.672413","265982.028943","266731.300452","267498.393686","268264.746448","272165.27461","272914.551375","273681.375009","274448.16618","275214.922105","275981.109459","276748.684078","277515.078887","279040.49965","Mapping"
"Blocked","m150","ball","5","m150cad.wav","space","424.124488374","185","271398.660905","278264.288252","279031.294608","279797.672413","280564.497903","266731.300452","267498.393686","268264.746448","272165.27461","272914.551375","273681.375009","274448.16618","275214.922105","275981.109459","276748.684078","277515.078887","279806.899716","Mapping"
"Blocked","m150","ball","5","m150park.wav","None","725.518585648","185","271398.660905","278264.288252","279031.294608","279797.672413","280564.497903","281331.198486","267498.393686","268264.746448","272165.27461","272914.551375","273681.375009","274448.16618","275214.922105","275981.109459","276748.684078","277515.078887","280574.568942","Mapping"
"Blocked","m150","ball","5","m150ball.wav","None","723.469688324","185","271398.660905","278264.288252","279031.294608","279797.672413","280564.497903","281331.198486","282098.642014","268264.746448","272165.27461","272914.551375","273681.375009","274448.16618","275214.922105","275981.109459","276748.684078","277515.078887","281340.626752","Mapping"
"Blocked","m150","ball","5","m150cad.wav","space","394.143561134","185","271398.660905","278264.288252","279031.294608","279797.672413","280564.497903","281331.198486","282098.642014","282847.969793","272165.27461","272914.551375","273681.375009","274448.16618","275214.922105","275981.109459","276748.684078","277515.078887","282108.875988","Mapping"
"Blocked","m150","cave","9","m150jaw.wav","None","732.9322726","185","285981.888578","278264.288252","279031.294608","279797.672413","280564.497903","281331.198486","282098.642014","282847.969793","272165.27461","272914.551375","273681.375009","274448.16618","275214.922105","275981.109459","276748.684078","277515.078887","282858.300847","Mapping"
"Blocked","m150","cave","9","m150greet.wav","None","719.020981342","185","285981.888578","278264.288252","279031.294608","279797.672413","280564.497903","281331.198486","282098.642014","282847.969793","286731.416083","272914.551375","273681.375009","274448.16618","275214.922105","275981.109459","276748.684078","277515.078887","285991.746905","Mapping"
"Blocked","m150","cave","9","m150priest.wav","None","734.066014411","185","285981.888578","278264.288252","279031.294608","279797.672413","280564.497903","281331.198486","282098.642014","282847.969793","286731.416083","287498.227659","273681.375009","274448.16618","275214.922105","275981.109459","276748.684078","277515.078887","286740.82116","Mapping"
"Blocked","m150","cave","9","m150reek.wav","None","730.820922414","185","285981.888578","278264.288252","279031.294608","279797.672413","280564.497903","281331.198486","282098.642014","282847.969793","286731.416083","287498.227659","288264.652768","274448.16618","275214.922105","275981.109459","276748.684078","277515.078887","287507.98736","Mapping"
"Blocked","m150","cave","9","m150cave.wav","None","728.575081332","185","285981.888578","278264.288252","279031.294608","279797.672413","280564.497903","281331.198486","282098.642014","282847.969793","286731.416083","287498.227659","288264.652768","289031.52587","275214.922105","275981.109459","276748.684078","277515.078887","288274.296528","Mapping"
"Blocked","m150","cave","9","m150bluff.wav","space","453.328151489","185","285981.888578","278264.288252","279031.294608","279797.672413","280564.497903","281331.198486","282098.642014","282847.969793","286731.416083","287498.227659","288264.652768","289031.52587","289798.380422","275981.109459","276748.684078","277515.078887","289041.578359","Mapping"
"Blocked","m150","cave","9","m150cave.wav","None","721.359883901","185","285981.888578","278264.288252","279031.294608","279797.672413","280564.497903","281331.198486","282098.642014","282847.969793","286731.416083","287498.227659","288264.652768","289031.52587","289798.380422","290564.392784","276748.684078","277515.078887","289808.413742","Mapping"
"Blocked","m150","cave","9","m150lash.wav","space","464.757392649","185","285981.888578","278264.288252","279031.294608","279797.672413","280564.497903","281331.198486","282098.642014","282847.969793","286731.416083","287498.227659","288264.652768","289031.52587","289798.380422","290564.392784","291314.674364","277515.078887","290574.120948","Mapping"
"Blocked","m150","cave","9","m150cave.wav","None","732.488607755","185","285981.888578","278264.288252","279031.294608","279797.672413","280564.497903","281331.198486","282098.642014","282847.969793","286731.416083","287498.227659","288264.652768","289031.52587","289798.380422","290564.392784","291314.674364","292081.309402","291324.410567","Mapping"
"Blocked","m150","cave","9","m150ball.wav","space","484.129317803","185","285981.888578","292847.857562","279031.294608","279797.672413","280564.497903","281331.198486","282098.642014","282847.969793","286731.416083","287498.227659","288264.652768","289031.52587","289798.380422","290564.392784","291314.674364","292081.309402","292090.734885","Mapping"
"Blocked","m150","cave","9","m150cave.wav","None","726.034597028","185","285981.888578","292847.857562","293614.80332","279797.672413","280564.497903","281331.198486","282098.642014","282847.969793","286731.416083","287498.227659","288264.652768","289031.52587","289798.380422","290564.392784","291314.674364","292081.309402","292857.813279","Mapping"
"Blocked","m150","cave","9","m150greet.wav","None","723.45546633","185","285981.888578","292847.857562","293614.80332","294381.779378","280564.497903","281331.198486","282098.642014","282847.969793","286731.416083","287498.227659","288264.652768","289031.52587","289798.380422","290564.392784","291314.674364","292081.309402","293624.352474","Mapping"
"Blocked","m150","cave","9","m150romp.wav","space","0.0785302836448","185","285981.888578","292847.857562","293614.80332","294381.779378","295131.142092","281331.198486","282098.642014","282847.969793","286731.416083","287498.227659","288264.652768","289031.52587","289798.380422","290564.392784","291314.674364","292081.309402","294392.513286","Mapping"
"Blocked","m150","cave","9","m150jaw.wav","None","734.56749483","185","285981.888578","292847.857562","293614.80332","294381.779378","295131.142092","295897.805884","282098.642014","282847.969793","286731.416083","287498.227659","288264.652768","289031.52587","289798.380422","290564.392784","291314.674364","292081.309402","295140.726491","Mapping"
"Blocked","m150","cave","9","m150park.wav","None","731.656929245","185","285981.888578","292847.857562","293614.80332","294381.779378","295131.142092","295897.805884","296664.593654","282847.969793","286731.416083","287498.227659","288264.652768","289031.52587","289798.380422","290564.392784","291314.674364","292081.309402","295907.707805","Mapping"
"Blocked","m150","cave","9","m150jaw.wav","None","729.567221133","185","285981.888578","292847.857562","293614.80332","294381.779378","295131.142092","295897.805884","296664.593654","297431.224982","286731.416083","287498.227659","288264.652768","289031.52587","289798.380422","290564.392784","291314.674364","292081.309402","296673.832087","Mapping"
"Blocked","m150","cave","12","m150jaw.wav","None","726.966757094","185","300564.549535","292847.857562","293614.80332","294381.779378","295131.142092","295897.805884","296664.593654","297431.224982","286731.416083","287498.227659","288264.652768","289031.52587","289798.380422","290564.392784","291314.674364","292081.309402","297440.680146","Mapping"
"Blocked","m150","cave","12","m150cave.wav","None","721.065241145","185","300564.549535","292847.857562","293614.80332","294381.779378","295131.142092","295897.805884","296664.593654","297431.224982","301313.957698","287498.227659","288264.652768","289031.52587","289798.380422","290564.392784","291314.674364","292081.309402","300573.797861","Mapping"
"Blocked","m150","cave","12","m150greet.wav","space","307.35373823","185","300564.549535","292847.857562","293614.80332","294381.779378","295131.142092","295897.805884","296664.593654","297431.224982","301313.957698","302081.202737","288264.652768","289031.52587","289798.380422","290564.392784","291314.674364","292081.309402","301323.367723","Mapping"
"Blocked","m150","cave","12","m150depth.wav","None","731.004880741","185","300564.549535","292847.857562","293614.80332","294381.779378","295131.142092","295897.805884","296664.593654","297431.224982","301313.957698","302081.202737","302847.859417","289031.52587","289798.380422","290564.392784","291314.674364","292081.309402","302090.956563","Mapping"
"Blocked","m150","cave","12","m150ball.wav","None","727.886550361","185","300564.549535","292847.857562","293614.80332","294381.779378","295131.142092","295897.805884","296664.593654","297431.224982","301313.957698","302081.202737","302847.859417","303614.205687","289798.380422","290564.392784","291314.674364","292081.309402","302858.111941","Mapping"
"Blocked","m150","cave","12","m150cave.wav","None","726.385200629","185","300564.549535","292847.857562","293614.80332","294381.779378","295131.142092","295897.805884","296664.593654","297431.224982","301313.957698","302081.202737","302847.859417","303614.205687","304381.510705","290564.392784","291314.674364","292081.309402","303623.710319","Mapping"
"Blocked","m150","cave","12","m150ball.wav","space","302.84814327","185","300564.549535","292847.857562","293614.80332","294381.779378","295131.142092","295897.805884","296664.593654","297431.224982","301313.957698","302081.202737","302847.859417","303614.205687","304381.510705","305147.586138","291314.674364","292081.309402","304391.8229","Mapping"
"Blocked","m150","cave","12","m150depth.wav","None","720.988565823","185","300564.549535","292847.857562","293614.80332","294381.779378","295131.142092","295897.805884","296664.593654","297431.224982","301313.957698","302081.202737","302847.859417","303614.205687","304381.510705","305147.586138","305897.494236","292081.309402","305156.576923","Mapping"
"Blocked","m150","cave","12","m150park.wav","None","734.303459991","185","300564.549535","292847.857562","293614.80332","294381.779378","295131.142092","295897.805884","296664.593654","297431.224982","301313.957698","302081.202737","302847.859417","303614.205687","304381.510705","305147.586138","305897.494236","306664.220172","305907.313917","Mapping"
"Blocked","m150","cave","12","m150cave.wav","None","732.013097964","185","300564.549535","307431.076579","293614.80332","294381.779378","295131.142092","295897.805884","296664.593654","297431.224982","301313.957698","302081.202737","302847.859417","303614.205687","304381.510705","305147.586138","305897.494236","306664.220172","306673.634215","Mapping"
"Blocked","m150","cave","12","m150romp.wav","space","341.663721949","185","300564.549535","307431.076579","308197.514054","294381.779378","295131.142092","295897.805884","296664.593654","297431.224982","301313.957698","302081.202737","302847.859417","303614.205687","304381.510705","305147.586138","305897.494236","306664.220172","307440.937997","Mapping"
"Blocked","m150","cave","12","m150priest.wav","None","726.078809239","185","300564.549535","307431.076579","308197.514054","308964.822474","295131.142092","295897.805884","296664.593654","297431.224982","301313.957698","302081.202737","302847.859417","303614.205687","304381.510705","305147.586138","305897.494236","306664.220172","308206.923461","Mapping"
"Blocked","m150","cave","12","m150cave.wav","None","722.501973389","185","300564.549535","307431.076579","308197.514054","308964.822474","309731.479463","295897.805884","296664.593654","297431.224982","301313.957698","302081.202737","302847.859417","303614.205687","304381.510705","305147.586138","305897.494236","306664.220172","308974.720684","Mapping"
"Blocked","m150","cave","12","m150done.wav","space","345.81531235","185","300564.549535","307431.076579","308197.514054","308964.822474","309731.479463","310480.945442","296664.593654","297431.224982","301313.957698","302081.202737","302847.859417","303614.205687","304381.510705","305147.586138","305897.494236","306664.220172","309740.76891","Mapping"
"Blocked","m150","cave","12","m150tile.wav","None","733.941107988","185","300564.549535","307431.076579","308197.514054","308964.822474","309731.479463","310480.945442","311247.377044","297431.224982","301313.957698","302081.202737","302847.859417","303614.205687","304381.510705","305147.586138","305897.494236","306664.220172","310490.561068","Mapping"
"Blocked","m150","cave","12","m150cad.wav","None","732.321653748","185","300564.549535","307431.076579","308197.514054","308964.822474","309731.479463","310480.945442","311247.377044","312013.977455","301313.957698","302081.202737","302847.859417","303614.205687","304381.510705","305147.586138","305897.494236","306664.220172","311256.44574","Mapping"
"Blocked","m150","done","21","m150priest.wav","None","729.952142807","185","315147.402798","307431.076579","308197.514054","308964.822474","309731.479463","310480.945442","311247.377044","312013.977455","301313.957698","302081.202737","302847.859417","303614.205687","304381.510705","305147.586138","305897.494236","306664.220172","312023.043677","Mapping"
"Blocked","m150","done","21","m150done.wav","None","720.52604123","185","315147.402798","307431.076579","308197.514054","308964.822474","309731.479463","310480.945442","311247.377044","312013.977455","315897.424054","302081.202737","302847.859417","303614.205687","304381.510705","305147.586138","305897.494236","306664.220172","315156.90743","Mapping"
"Blocked","m150","done","21","m150park.wav","space","411.16916365","185","315147.402798","307431.076579","308197.514054","308964.822474","309731.479463","310480.945442","311247.377044","312013.977455","315897.424054","316664.525017","302847.859417","303614.205687","304381.510705","305147.586138","305897.494236","306664.220172","315907.307424","Mapping"
"Blocked","m150","done","21","m150done.wav","None","730.471555609","185","315147.402798","307431.076579","308197.514054","308964.822474","309731.479463","310480.945442","311247.377044","312013.977455","315897.424054","316664.525017","317430.937759","303614.205687","304381.510705","305147.586138","305897.494236","306664.220172","316674.217318","Mapping"
"Blocked","m150","done","21","m150priest.wav","space","333.724129479","185","315147.402798","307431.076579","308197.514054","308964.822474","309731.479463","310480.945442","311247.377044","312013.977455","315897.424054","316664.525017","317430.937759","318197.116147","304381.510705","305147.586138","305897.494236","306664.220172","317440.736416","Mapping"
"Blocked","m150","done","21","m150cad.wav","None","725.663588149","185","315147.402798","307431.076579","308197.514054","308964.822474","309731.479463","310480.945442","311247.377044","312013.977455","315897.424054","316664.525017","317430.937759","318197.116147","318964.115083","305147.586138","305897.494236","306664.220172","318206.278523","Mapping"
"Blocked","m150","done","21","m150done.wav","None","722.880711546","185","315147.402798","307431.076579","308197.514054","308964.822474","309731.479463","310480.945442","311247.377044","312013.977455","315897.424054","316664.525017","317430.937759","318197.116147","318964.115083","319730.748885","305897.494236","306664.220172","318973.310541","Mapping"
"Blocked","m150","done","21","m150cave.wav","space","322.280357359","185","315147.402798","307431.076579","308197.514054","308964.822474","309731.479463","310480.945442","311247.377044","312013.977455","315897.424054","316664.525017","317430.937759","318197.116147","318964.115083","319730.748885","320480.554337","306664.220172","319740.152417","Mapping"
"Blocked","m150","done","21","m150tile.wav","None","733.443028294","185","315147.402798","307431.076579","308197.514054","308964.822474","309731.479463","310480.945442","311247.377044","312013.977455","315897.424054","316664.525017","317430.937759","318197.116147","318964.115083","319730.748885","320480.554337","321247.621291","320490.124823","Mapping"
"Blocked","m150","done","21","m150depth.wav","None","730.551631656","185","315147.402798","322014.149046","308197.514054","308964.822474","309731.479463","310480.945442","311247.377044","312013.977455","315897.424054","316664.525017","317430.937759","318197.116147","318964.115083","319730.748885","320480.554337","321247.621291","321257.233207","Mapping"
"Blocked","m150","done","21","m150priest.wav","None","728.764295811","185","315147.402798","322014.149046","322780.863542","308964.822474","309731.479463","310480.945442","311247.377044","312013.977455","315897.424054","316664.525017","317430.937759","318197.116147","318964.115083","319730.748885","320480.554337","321247.621291","322023.375112","Mapping"
"Blocked","m150","done","21","m150cave.wav","None","726.337897126","185","315147.402798","322014.149046","322780.863542","323547.806827","309731.479463","310480.945442","311247.377044","312013.977455","315897.424054","316664.525017","317430.937759","318197.116147","318964.115083","319730.748885","320480.554337","321247.621291","322790.645194","Mapping"
"Blocked","m150","done","21","m150greet.wav","None","723.059104988","185","315147.402798","322014.149046","322780.863542","323547.806827","324314.418059","310480.945442","311247.377044","312013.977455","315897.424054","316664.525017","317430.937759","318197.116147","318964.115083","319730.748885","320480.554337","321247.621291","323558.238981","Mapping"
"Blocked","m150","done","21","m150cad.wav","None","721.27300594","185","315147.402798","322014.149046","322780.863542","323547.806827","324314.418059","325081.187897","311247.377044","312013.977455","315897.424054","316664.525017","317430.937759","318197.116147","318964.115083","319730.748885","320480.554337","321247.621291","324324.387998","Mapping"
"Blocked","m150","done","21","m150done.wav","None","718.819090631","185","315147.402798","322014.149046","322780.863542","323547.806827","324314.418059","325081.187897","325830.525877","312013.977455","315897.424054","316664.525017","317430.937759","318197.116147","318964.115083","319730.748885","320480.554337","321247.621291","325091.172676","Mapping"
"Blocked","m150","done","21","m150gnash.wav","space","358.415086754","185","315147.402798","322014.149046","322780.863542","323547.806827","324314.418059","325081.187897","325830.525877","326597.302517","315897.424054","316664.525017","317430.937759","318197.116147","318964.115083","319730.748885","320480.554337","321247.621291","325839.943013","Mapping"
"Blocked","m150","tile","15","m150done.wav","None","730.537718628","185","329731.101034","322014.149046","322780.863542","323547.806827","324314.418059","325081.187897","325830.525877","326597.302517","315897.424054","316664.525017","317430.937759","318197.116147","318964.115083","319730.748885","320480.554337","321247.621291","326606.909795","Mapping"
"Blocked","m150","tile","15","m150tile.wav","None","719.395700609","185","329731.101034","322014.149046","322780.863542","323547.806827","324314.418059","325081.187897","325830.525877","326597.302517","330480.305143","316664.525017","317430.937759","318197.116147","318964.115083","319730.748885","320480.554337","321247.621291","329741.257096","Mapping"
"Blocked","m150","tile","15","m150cad.wav","space","372.694604332","185","329731.101034","322014.149046","322780.863542","323547.806827","324314.418059","325081.187897","325830.525877","326597.302517","330480.305143","331247.447226","317430.937759","318197.116147","318964.115083","319730.748885","320480.554337","321247.621291","330489.592116","Mapping"
"Blocked","m150","tile","15","m150tile.wav","None","731.472970452","185","329731.101034","322014.149046","322780.863542","323547.806827","324314.418059","325081.187897","325830.525877","326597.302517","330480.305143","331247.447226","332014.036816","318197.116147","318964.115083","319730.748885","320480.554337","321247.621291","331256.785523","Mapping"
"Blocked","m150","tile","15","m150cad.wav","space","406.668206211","185","329731.101034","322014.149046","322780.863542","323547.806827","324314.418059","325081.187897","325830.525877","326597.302517","330480.305143","331247.447226","332014.036816","332780.329289","318964.115083","319730.748885","320480.554337","321247.621291","332023.603901","Mapping"
"Blocked","m150","tile","15","m150lash.wav","None","726.09797772","185","329731.101034","322014.149046","322780.863542","323547.806827","324314.418059","325081.187897","325830.525877","326597.302517","330480.305143","331247.447226","332014.036816","332780.329289","333546.965873","319730.748885","320480.554337","321247.621291","332790.424135","Mapping"
"Blocked","m150","tile","15","m150greet.wav","None","724.398756865","185","329731.101034","322014.149046","322780.863542","323547.806827","324314.418059","325081.187897","325830.525877","326597.302517","330480.305143","331247.447226","332014.036816","332780.329289","333546.965873","334314.430426","320480.554337","321247.621291","333556.502041","Mapping"
"Blocked","m150","tile","15","m150cling.wav","None","720.95826664","185","329731.101034","322014.149046","322780.863542","323547.806827","324314.418059","325081.187897","325830.525877","326597.302517","330480.305143","331247.447226","332014.036816","332780.329289","333546.965873","334314.430426","335064.248863","321247.621291","334324.356462","Mapping"
"Blocked","m150","tile","15","m150tile.wav","None","735.594261903","185","329731.101034","322014.149046","322780.863542","323547.806827","324314.418059","325081.187897","325830.525877","326597.302517","330480.305143","331247.447226","332014.036816","332780.329289","333546.965873","334314.430426","335064.248863","335830.655112","335074.010728","Mapping"
"Blocked","m150","tile","15","m150cling.wav","space","325.200197985","185","329731.101034","336597.287986","322780.863542","323547.806827","324314.418059","325081.187897","325830.525877","326597.302517","330480.305143","331247.447226","332014.036816","332780.329289","333546.965873","334314.430426","335064.248863","335830.655112","335840.989258","Mapping"
"Blocked","m150","tile","15","m150jolt.wav","None","730.491651921","185","329731.101034","336597.287986","337363.951778","323547.806827","324314.418059","325081.187897","325830.525877","326597.302517","330480.305143","331247.447226","332014.036816","332780.329289","333546.965873","334314.430426","335064.248863","335830.655112","336606.778087","Mapping"
"Blocked","m150","tile","15","m150tile.wav","None","727.865526685","185","329731.101034","336597.287986","337363.951778","338130.264038","324314.418059","325081.187897","325830.525877","326597.302517","330480.305143","331247.447226","332014.036816","332780.329289","333546.965873","334314.430426","335064.248863","335830.655112","337373.741468","Mapping"
"Blocked","m150","tile","15","m150romp.wav","space","474.595623557","185","329731.101034","336597.287986","337363.951778","338130.264038","338897.510313","325081.187897","325830.525877","326597.302517","330480.305143","331247.447226","332014.036816","332780.329289","333546.965873","334314.430426","335064.248863","335830.655112","338139.588421","Mapping"
"Blocked","m150","tile","15","m150done.wav","None","721.812514821","185","329731.101034","336597.287986","337363.951778","338130.264038","338897.510313","339663.825665","325830.525877","326597.302517","330480.305143","331247.447226","332014.036816","332780.329289","333546.965873","334314.430426","335064.248863","335830.655112","338907.581662","Mapping"
"Blocked","m150","tile","15","m150gnash.wav","None","723.712390289","185","329731.101034","336597.287986","337363.951778","338130.264038","338897.510313","339663.825665","340430.395159","326597.302517","330480.305143","331247.447226","332014.036816","332780.329289","333546.965873","334314.430426","335064.248863","335830.655112","339672.952177","Mapping"
"Blocked","m150","tile","15","m150reek.wav","None","721.640923293","185","329731.101034","336597.287986","337363.951778","338130.264038","338897.510313","339663.825665","340430.395159","341180.173713","330480.305143","331247.447226","332014.036816","332780.329289","333546.965873","334314.430426","335064.248863","335830.655112","340439.597418","Mapping"
"Blocked","m150","ball","1","m150tile.wav","None","735.56519975","185","344314.281094","336597.287986","337363.951778","338130.264038","338897.510313","339663.825665","340430.395159","341180.173713","330480.305143","331247.447226","332014.036816","332780.329289","333546.965873","334314.430426","335064.248863","335830.655112","341189.91981","Mapping"
"Blocked","m150","ball","1","m150bluff.wav","None","719.618615229","185","344314.281094","336597.287986","337363.951778","338130.264038","338897.510313","339663.825665","340430.395159","341180.173713","345063.611964","331247.447226","332014.036816","332780.329289","333546.965873","334314.430426","335064.248863","335830.655112","344324.404693","Mapping"
"Blocked","m150","ball","1","m150ball.wav","space","322.096398566","185","344314.281094","336597.287986","337363.951778","338130.264038","338897.510313","339663.825665","340430.395159","341180.173713","345063.611964","345830.341919","332014.036816","332780.329289","333546.965873","334314.430426","335064.248863","335830.655112","345067.965136","Mapping"
"Blocked","m150","ball","1","m150cave.wav","space","542.157596676","185","344314.281094","336597.287986","337363.951778","338130.264038","338897.510313","339663.825665","340430.395159","341180.173713","345063.611964","345830.341919","346597.206673","332780.329289","333546.965873","334314.430426","335064.248863","335830.655112","345839.881178","Mapping"
"Blocked","m150","ball","1","m150reek.wav","None","728.090914432","185","344314.281094","336597.287986","337363.951778","338130.264038","338897.510313","339663.825665","340430.395159","341180.173713","345063.611964","345830.341919","346597.206673","347363.872629","333546.965873","334314.430426","335064.248863","335830.655112","346606.583616","Mapping"
"Blocked","m150","ball","1","m150ball.wav","None","725.256405771","185","344314.281094","336597.287986","337363.951778","338130.264038","338897.510313","339663.825665","340430.395159","341180.173713","345063.611964","345830.341919","346597.206673","347363.872629","348130.678331","334314.430426","335064.248863","335830.655112","347373.798356","Mapping"
"Blocked","m150","ball","1","m150dime.wav","space","369.191970211","185","344314.281094","336597.287986","337363.951778","338130.264038","338897.510313","339663.825665","340430.395159","341180.173713","345063.611964","345830.341919","346597.206673","347363.872629","348130.678331","348897.548342","335064.248863","335830.655112","348140.819553","Mapping"
"Blocked","m150","ball","1","m150done.wav","None","718.779825838","185","344314.281094","336597.287986","337363.951778","338130.264038","338897.510313","339663.825665","340430.395159","341180.173713","345063.611964","345830.341919","346597.206673","347363.872629","348130.678331","348897.548342","349646.930225","335830.655112","348907.836112","Mapping"
"Blocked","m150","ball","1","m150ball.wav","None","734.59532042","185","344314.281094","336597.287986","337363.951778","338130.264038","338897.510313","339663.825665","340430.395159","341180.173713","345063.611964","345830.341919","346597.206673","347363.872629","348130.678331","348897.548342","349646.930225","350413.693262","349656.53472","Mapping"
"Blocked","m150","ball","1","m150cave.wav","space","494.392663008","185","344314.281094","351180.445786","337363.951778","338130.264038","338897.510313","339663.825665","340430.395159","341180.173713","345063.611964","345830.341919","346597.206673","347363.872629","348130.678331","348897.548342","349646.930225","350413.693262","350423.582506","Mapping"
"Blocked","m150","ball","1","m150jolt.wav","None","728.129870491","185","344314.281094","351180.445786","351946.885735","338130.264038","338897.510313","339663.825665","340430.395159","341180.173713","345063.611964","345830.341919","346597.206673","347363.872629","348130.678331","348897.548342","349646.930225","350413.693262","351190.502912","Mapping"
"Blocked","m150","ball","1","m150knife.wav","None","727.473493665","185","344314.281094","351180.445786","351946.885735","352713.731012","338897.510313","339663.825665","340430.395159","341180.173713","345063.611964","345830.341919","346597.206673","347363.872629","348130.678331","348897.548342","349646.930225","350413.693262","351956.42283","Mapping"
"Blocked","m150","ball","1","m150depth.wav","None","725.363380043","185","344314.281094","351180.445786","351946.885735","352713.731012","353480.850835","339663.825665","340430.395159","341180.173713","345063.611964","345830.341919","346597.206673","347363.872629","348130.678331","348897.548342","349646.930225","350413.693262","352722.98985","Mapping"
"Blocked","m150","ball","1","m150ball.wav","None","721.291865455","185","344314.281094","351180.445786","351946.885735","352713.731012","353480.850835","354246.932761","340430.395159","341180.173713","345063.611964","345830.341919","346597.206673","347363.872629","348130.678331","348897.548342","349646.930225","350413.693262","353491.620298","Mapping"
"Blocked","m150","ball","1","m150jolt.wav","space","373.577914899","185","344314.281094","351180.445786","351946.885735","352713.731012","353480.850835","354246.932761","354996.796956","341180.173713","345063.611964","345830.341919","346597.206673","347363.872629","348130.678331","348897.548342","349646.930225","350413.693262","354256.363191","Mapping"
"Blocked","m150","ball","1","m150jaw.wav","None","734.477215912","185","344314.281094","351180.445786","351946.885735","352713.731012","353480.850835","354246.932761","354996.796956","355763.747352","345063.611964","345830.341919","346597.206673","347363.872629","348130.678331","348897.548342","349646.930225","350413.693262","355006.010036","Mapping"
"Blocked","m150","done","22","m150cad.wav","None","731.203061761","185","358897.27967","351180.445786","351946.885735","352713.731012","353480.850835","354246.932761","354996.796956","355763.747352","345063.611964","345830.341919","346597.206673","347363.872629","348130.678331","348897.548342","349646.930225","350413.693262","355773.824574","Mapping"
"Blocked","m150","done","22","m150done.wav","None","719.922224293","185","358897.27967","351180.445786","351946.885735","352713.731012","353480.850835","354246.932761","354996.796956","355763.747352","359646.334447","345830.341919","346597.206673","347363.872629","348130.678331","348897.548342","349646.930225","350413.693262","358907.334631","Mapping"
"Blocked","m150","done","22","m150cad.wav","space","334.569411585","185","358897.27967","351180.445786","351946.885735","352713.731012","353480.850835","354246.932761","354996.796956","355763.747352","359646.334447","360413.699754","346597.206673","347363.872629","348130.678331","348897.548342","349646.930225","350413.693262","359655.261541","Mapping"
"Blocked","m150","done","22","m150knife.wav","None","731.536351144","185","358897.27967","351180.445786","351946.885735","352713.731012","353480.850835","354246.932761","354996.796956","355763.747352","359646.334447","360413.699754","361180.342213","347363.872629","348130.678331","348897.548342","349646.930225","350413.693262","360423.384944","Mapping"
"Blocked","m150","done","22","m150done.wav","None","727.817295352","185","358897.27967","351180.445786","351946.885735","352713.731012","353480.850835","354246.932761","354996.796956","355763.747352","359646.334447","360413.699754","361180.342213","361946.757428","348130.678331","348897.548342","349646.930225","350413.693262","361191.414667","Mapping"
"Blocked","m150","done","22","m150lash.wav","space","361.065327423","185","358897.27967","351180.445786","351946.885735","352713.731012","353480.850835","354246.932761","354996.796956","355763.747352","359646.334447","360413.699754","361180.342213","361946.757428","362713.955163","348897.548342","349646.930225","350413.693262","361956.751173","Mapping"
"Blocked","m150","done","22","m150done.wav","None","723.044574028","185","358897.27967","351180.445786","351946.885735","352713.731012","353480.850835","354246.932761","354996.796956","355763.747352","359646.334447","360413.699754","361180.342213","361946.757428","362713.955163","363480.634413","349646.930225","350413.693262","362723.86976","Mapping"
"Blocked","m150","done","22","m150greet.wav","space","483.076888835","185","358897.27967","351180.445786","351946.885735","352713.731012","353480.850835","354246.932761","354996.796956","355763.747352","359646.334447","360413.699754","361180.342213","361946.757428","362713.955163","363480.634413","364229.90283","350413.693262","363490.699887","Mapping"
"Blocked","m150","done","22","m150done.wav","None","735.467191553","185","358897.27967","351180.445786","351946.885735","352713.731012","353480.850835","354246.932761","354996.796956","355763.747352","359646.334447","360413.699754","361180.342213","361946.757428","362713.955163","363480.634413","364229.90283","364996.934538","364239.10107","Mapping"
"Blocked","m150","done","22","m150knife.wav","space","495.259278221","185","358897.27967","365763.149718","351946.885735","352713.731012","353480.850835","354246.932761","354996.796956","355763.747352","359646.334447","360413.699754","361180.342213","361946.757428","362713.955163","363480.634413","364229.90283","364996.934538","365006.50657","Mapping"
"Blocked","m150","done","22","m150dime.wav","None","729.157256195","185","358897.27967","365763.149718","366530.186064","352713.731012","353480.850835","354246.932761","354996.796956","355763.747352","359646.334447","360413.699754","361180.342213","361946.757428","362713.955163","363480.634413","364229.90283","364996.934538","365773.052257","Mapping"
"Blocked","m150","done","22","m150park.wav","None","726.722818799","185","358897.27967","365763.149718","366530.186064","367296.63869","353480.850835","354246.932761","354996.796956","355763.747352","359646.334447","360413.699754","361180.342213","361946.757428","362713.955163","363480.634413","364229.90283","364996.934538","366539.988122","Mapping"
"Blocked","m150","done","22","m150priest.wav","None","725.0396749","185","358897.27967","365763.149718","366530.186064","367296.63869","368063.843227","354246.932761","354996.796956","355763.747352","359646.334447","360413.699754","361180.342213","361946.757428","362713.955163","363480.634413","364229.90283","364996.934538","367306.565962","Mapping"
"Blocked","m150","done","22","m150priest.wav","None","722.046868876","185","358897.27967","365763.149718","366530.186064","367296.63869","368063.843227","368829.992243","354996.796956","355763.747352","359646.334447","360413.699754","361180.342213","361946.757428","362713.955163","363480.634413","364229.90283","364996.934538","368074.001762","Mapping"
"Blocked","m150","done","22","m150cave.wav","None","721.009589499","185","358897.27967","365763.149718","366530.186064","367296.63869","368063.843227","368829.992243","369580.359465","355763.747352","359646.334447","360413.699754","361180.342213","361946.757428","362713.955163","363480.634413","364229.90283","364996.934538","368839.5887","Mapping"
"Blocked","m150","done","22","m150cave.wav","None","735.390516231","185","358897.27967","365763.149718","366530.186064","367296.63869","368063.843227","368829.992243","369580.359465","370346.639571","359646.334447","360413.699754","361180.342213","361946.757428","362713.955163","363480.634413","364229.90283","364996.934538","369590.211917","Mapping"
"Blocked","m150","tile","13","m150gnash.wav","None","733.937707031","185","373480.478898","365763.149718","366530.186064","367296.63869","368063.843227","368829.992243","369580.359465","370346.639571","359646.334447","360413.699754","361180.342213","361946.757428","362713.955163","363480.634413","364229.90283","364996.934538","370356.239119","Mapping"
"Blocked","m150","tile","13","m150greet.wav","None","719.232147327","185","373480.478898","365763.149718","366530.186064","367296.63869","368063.843227","368829.992243","369580.359465","370346.639571","374229.937457","360413.699754","361180.342213","361946.757428","362713.955163","363480.634413","364229.90283","364996.934538","373490.604043","Mapping"
"Blocked","m150","tile","13","m150tile.wav","None","734.525756212","185","373480.478898","365763.149718","366530.186064","367296.63869","368063.843227","368829.992243","369580.359465","370346.639571","374229.937457","374996.689672","361180.342213","361946.757428","362713.955163","363480.634413","364229.90283","364996.934538","374240.006641","Mapping"
"Blocked","m150","tile","13","m150jaw.wav","space","367.20923637","185","373480.478898","365763.149718","366530.186064","367296.63869","368063.843227","368829.992243","369580.359465","370346.639571","374229.937457","374996.689672","375763.355628","361946.757428","362713.955163","363480.634413","364229.90283","364996.934538","375006.408871","Mapping"
"Blocked","m150","tile","13","m150romp.wav","None","729.333794676","185","373480.478898","365763.149718","366530.186064","367296.63869","368063.843227","368829.992243","369580.359465","370346.639571","374229.937457","374996.689672","375763.355628","376530.485345","362713.955163","363480.634413","364229.90283","364996.934538","375773.210554","Mapping"
"Blocked","m150","tile","13","m150tile.wav","None","726.942332461","185","373480.478898","365763.149718","366530.186064","367296.63869","368063.843227","368829.992243","369580.359465","370346.639571","374229.937457","374996.689672","375763.355628","376530.485345","377296.676409","363480.634413","364229.90283","364996.934538","376540.233297","Mapping"
"Blocked","m150","tile","13","m150knife.wav","space","355.213279137","185","373480.478898","365763.149718","366530.186064","367296.63869","368063.843227","368829.992243","369580.359465","370346.639571","374229.937457","374996.689672","375763.355628","376530.485345","377296.676409","378063.730687","364229.90283","364996.934538","377306.385714","Mapping"
"Blocked","m150","tile","13","m150ball.wav","None","721.949169878","185","373480.478898","365763.149718","366530.186064","367296.63869","368063.843227","368829.992243","369580.359465","370346.639571","374229.937457","374996.689672","375763.355628","376530.485345","377296.676409","378063.730687","378830.372218","364996.934538","378073.624878","Mapping"
"Blocked","m150","tile","13","m150lash.wav","None","720.1012359","185","373480.478898","365763.149718","366530.186064","367296.63869","368063.843227","368829.992243","369580.359465","370346.639571","374229.937457","374996.689672","375763.355628","376530.485345","377296.676409","378063.730687","378830.372218","379596.838756","378840.46459","Mapping"
"Blocked","m150","tile","13","m150tile.wav","None","718.93534041","185","373480.478898","380346.428096","366530.186064","367296.63869","368063.843227","368829.992243","369580.359465","370346.639571","374229.937457","374996.689672","375763.355628","376530.485345","377296.676409","378063.730687","378830.372218","379596.838756","379606.962664","Mapping"
"Blocked","m150","tile","13","m150done.wav","space","313.24288738","185","373480.478898","380346.428096","381113.282029","367296.63869","368063.843227","368829.992243","369580.359465","370346.639571","374229.937457","374996.689672","375763.355628","376530.485345","377296.676409","378063.730687","378830.372218","379596.838756","380356.280858","Mapping"
"Blocked","m150","tile","13","m150greet.wav","None","730.849984568","185","373480.478898","380346.428096","381113.282029","381879.989105","368063.843227","368829.992243","369580.359465","370346.639571","374229.937457","374996.689672","375763.355628","376530.485345","377296.676409","378063.730687","378830.372218","379596.838756","381123.344411","Mapping"
"Blocked","m150","tile","13","m150priest.wav","None","729.018436978","185","373480.478898","380346.428096","381113.282029","381879.989105","382646.141522","368829.992243","369580.359465","370346.639571","374229.937457","374996.689672","375763.355628","376530.485345","377296.676409","378063.730687","378830.372218","379596.838756","381889.998309","Mapping"
"Blocked","m150","tile","13","m150tile.wav","None","728.277964983","185","373480.478898","380346.428096","381113.282029","381879.989105","382646.141522","383413.020499","369580.359465","370346.639571","374229.937457","374996.689672","375763.355628","376530.485345","377296.676409","378063.730687","378830.372218","379596.838756","382655.559276","Mapping"
"Blocked","m150","tile","13","m150cave.wav","space","351.043138187","185","373480.478898","380346.428096","381113.282029","381879.989105","382646.141522","383413.020499","384180.32428","370346.639571","374229.937457","374996.689672","375763.355628","376530.485345","377296.676409","378063.730687","378830.372218","379596.838756","383422.453711","Mapping"
"Blocked","m150","tile","13","m150dime.wav","None","721.705231583","185","373480.478898","380346.428096","381113.282029","381879.989105","382646.141522","383413.020499","384180.32428","384946.586764","374229.937457","374996.689672","375763.355628","376530.485345","377296.676409","378063.730687","378830.372218","379596.838756","384190.337504","Mapping"
"Blocked","m150","ball","4","m150done.wav","None","721.347207669","185","388063.496024","380346.428096","381113.282029","381879.989105","382646.141522","383413.020499","384180.32428","384946.586764","374229.937457","374996.689672","375763.355628","376530.485345","377296.676409","378063.730687","378830.372218","379596.838756","384955.891669","Mapping"
"Blocked","m150","ball","4","m150gnash.wav","None","720.055478392","185","388063.496024","380346.428096","381113.282029","381879.989105","382646.141522","383413.020499","384180.32428","384946.586764","388812.985809","374996.689672","375763.355628","376530.485345","377296.676409","378063.730687","378830.372218","379596.838756","388073.373211","Mapping"
"Blocked","m150","ball","4","m150ball.wav","None","734.823490959","185","388063.496024","380346.428096","381113.282029","381879.989105","382646.141522","383413.020499","384180.32428","384946.586764","388812.985809","389579.901268","375763.355628","376530.485345","377296.676409","378063.730687","378830.372218","379596.838756","388823.206179","Mapping"
"Blocked","m150","ball","4","m150reek.wav","space","447.726534214","185","388063.496024","380346.428096","381113.282029","381879.989105","382646.141522","383413.020499","384180.32428","384946.586764","388812.985809","389579.901268","390346.407072","376530.485345","377296.676409","378063.730687","378830.372218","379596.838756","389589.694051","Mapping"
"Blocked","m150","ball","4","m150cave.wav","None","730.306765763","185","388063.496024","380346.428096","381113.282029","381879.989105","382646.141522","383413.020499","384180.32428","384946.586764","388812.985809","389579.901268","390346.407072","391113.120331","377296.676409","378063.730687","378830.372218","379596.838756","390356.150077","Mapping"
"Blocked","m150","ball","4","m150park.wav","None","728.231279412","185","388063.496024","380346.428096","381113.282029","381879.989105","382646.141522","383413.020499","384180.32428","384946.586764","388812.985809","389579.901268","390346.407072","391113.120331","391879.833281","378063.730687","378830.372218","379596.838756","391122.903838","Mapping"
"Blocked","m150","ball","4","m150depth.wav","None","726.026249584","185","388063.496024","380346.428096","381113.282029","381879.989105","382646.141522","383413.020499","384180.32428","384946.586764","388812.985809","389579.901268","390346.407072","391113.120331","391879.833281","392645.984771","378830.372218","379596.838756","391889.632865","Mapping"
"Blocked","m150","ball","4","m150cad.wav","None","725.848783506","185","388063.496024","380346.428096","381113.282029","381879.989105","382646.141522","383413.020499","384180.32428","384946.586764","388812.985809","389579.901268","390346.407072","391113.120331","391879.833281","392645.984771","393413.559698","379596.838756","392655.242991","Mapping"
"Blocked","m150","ball","4","m150priest.wav","None","722.083351575","185","388063.496024","380346.428096","381113.282029","381879.989105","382646.141522","383413.020499","384180.32428","384946.586764","388812.985809","389579.901268","390346.407072","391113.120331","391879.833281","392645.984771","393413.559698","394180.145269","393423.603221","Mapping"
"Blocked","m150","ball","4","m150ball.wav","None","721.116873203","185","388063.496024","394946.792983","381113.282029","381879.989105","382646.141522","383413.020499","384180.32428","384946.586764","388812.985809","389579.901268","390346.407072","391113.120331","391879.833281","392645.984771","393413.559698","394180.145269","394189.743271","Mapping"
"Blocked","m150","ball","4","m150depth.wav","space","312.227868708","185","388063.496024","394946.792983","395696.459307","381879.989105","382646.141522","383413.020499","384180.32428","384946.586764","388812.985809","389579.901268","390346.407072","391113.120331","391879.833281","392645.984771","393413.559698","394180.145269","394957.08941","Mapping"
"Blocked","m150","ball","4","m150ball.wav","None","732.563118683","185","388063.496024","394946.792983","395696.459307","396463.094963","382646.141522","383413.020499","384180.32428","384946.586764","388812.985809","389579.901268","390346.407072","391113.120331","391879.833281","392645.984771","393413.559698","394180.145269","395706.155627","Mapping"
"Blocked","m150","ball","4","m150gnash.wav","space","428.205896402","185","388063.496024","394946.792983","395696.459307","396463.094963","397229.75288","383413.020499","384180.32428","384946.586764","388812.985809","389579.901268","390346.407072","391113.120331","391879.833281","392645.984771","393413.559698","394180.145269","396473.126119","Mapping"
"Blocked","m150","ball","4","m150greet.wav","None","727.262636879","185","388063.496024","394946.792983","395696.459307","396463.094963","397229.75288","397996.219418","384180.32428","384946.586764","388812.985809","389579.901268","390346.407072","391113.120331","391879.833281","392645.984771","393413.559698","394180.145269","397239.639342","Mapping"
"Blocked","m150","ball","4","m150ball.wav","None","725.851566065","185","388063.496024","394946.792983","395696.459307","396463.094963","397229.75288","397996.219418","398763.370468","384946.586764","388812.985809","389579.901268","390346.407072","391113.120331","391879.833281","392645.984771","393413.559698","394180.145269","398005.82144","Mapping"
"Blocked","m150","ball","4","m150gnash.wav","space","318.763810443","185","388063.496024","394946.792983","395696.459307","396463.094963","397229.75288","397996.219418","398763.370468","399529.739307","388812.985809","389579.901268","390346.407072","391113.120331","391879.833281","392645.984771","393413.559698","394180.145269","398774.505685","Mapping"
"Blocked","m150","done","19","m150lash.wav","None","720.538717229","185","402646.644549","394946.792983","395696.459307","396463.094963","397229.75288","397996.219418","398763.370468","399529.739307","388812.985809","389579.901268","390346.407072","391113.120331","391879.833281","392645.984771","393413.559698","394180.145269","399539.127999","Mapping"
"Blocked","m150","done","19","m150romp.wav","None","719.742903253","185","402646.644549","394946.792983","395696.459307","396463.094963","397229.75288","397996.219418","398763.370468","399529.739307","403412.621664","389579.901268","390346.407072","391113.120331","391879.833281","392645.984771","393413.559698","394180.145269","402656.497929","Mapping"
"Blocked","m150","done","19","m150depth.wav","None","722.259580856","185","402646.644549","394946.792983","395696.459307","396463.094963","397229.75288","397996.219418","398763.370468","399529.739307","403412.621664","404163.076382","390346.407072","391113.120331","391879.833281","392645.984771","393413.559698","394180.145269","403421.657588","Mapping"
"Blocked","m150","done","19","m150greet.wav","None","736.681318376","185","402646.644549","394946.792983","395696.459307","396463.094963","397229.75288","397996.219418","398763.370468","399529.739307","403412.621664","404163.076382","404929.203447","391113.120331","391879.833281","392645.984771","393413.559698","394180.145269","404171.984926","Mapping"
"Blocked","m150","done","19","m150done.wav","None","734.625001205","185","402646.644549","394946.792983","395696.459307","396463.094963","397229.75288","397996.219418","398763.370468","399529.739307","403412.621664","404163.076382","404929.203447","405696.19589","391879.833281","392645.984771","393413.559698","394180.145269","404938.810725","Mapping"
"Blocked","m150","done","19","m150jaw.wav","space","283.069035737","185","402646.644549","394946.792983","395696.459307","396463.094963","397229.75288","397996.219418","398763.370468","399529.739307","403412.621664","404163.076382","404929.203447","405696.19589","406462.948415","392645.984771","393413.559698","394180.145269","405706.073077","Mapping"
"Blocked","m150","done","19","m150done.wav","None","728.559004143","185","402646.644549","394946.792983","395696.459307","396463.094963","397229.75288","397996.219418","398763.370468","399529.739307","403412.621664","404163.076382","404929.203447","405696.19589","406462.948415","407229.61839","393413.559698","394180.145269","406473.372221","Mapping"
"Blocked","m150","done","19","m150lash.wav","space","285.82068556","185","402646.644549","394946.792983","395696.459307","396463.094963","397229.75288","397996.219418","398763.370468","399529.739307","403412.621664","404163.076382","404929.203447","405696.19589","406462.948415","407229.61839","407996.669885","394180.145269","407239.331405","Mapping"
"Blocked","m150","done","19","m150done.wav","None","723.196378676","185","402646.644549","394946.792983","395696.459307","396463.094963","397229.75288","397996.219418","398763.370468","399529.739307","403412.621664","404163.076382","404929.203447","405696.19589","406462.948415","407229.61839","407996.669885","408762.727077","408006.869541","Mapping"
"Blocked","m150","done","19","m150ball.wav","space","344.155665487","185","402646.644549","409512.655271","395696.459307","396463.094963","397229.75288","397996.219418","398763.370468","399529.739307","403412.621664","404163.076382","404929.203447","405696.19589","406462.948415","407229.61839","407996.669885","408762.727077","408772.980219","Mapping"
"Blocked","m150","done","19","m150tile.wav","None","735.405047657","185","402646.644549","409512.655271","410279.448607","396463.094963","397229.75288","397996.219418","398763.370468","399529.739307","403412.621664","404163.076382","404929.203447","405696.19589","406462.948415","407229.61839","407996.669885","408762.727077","409522.58409","Mapping"
"Blocked","m150","done","19","m150dime.wav","None","734.031077707","185","402646.644549","409512.655271","410279.448607","411045.725621","397229.75288","397996.219418","398763.370468","399529.739307","403412.621664","404163.076382","404929.203447","405696.19589","406462.948415","407229.61839","407996.669885","408762.727077","410289.00147","Mapping"
