"Condition","Talker","Target","Trial","current_stimulus","response_response","response_time_response","subject_nr","time_Audio1","time_Audio10","time_Audio11","time_Audio12","time_Audio13","time_Audio14","time_Audio15","time_Audio16","time_Audio2","time_Audio3","time_Audio4","time_Audio5","time_Audio6","time_Audio7","time_Audio8","time_Audio9","time_response","title"
"Blocked","m150","ball","1","m150priest.wav","NA","NA","129","129671.050536","NA","NA","NA","NA","NA","NA","NA","NA","NA","NA","NA","NA","NA","NA","NA","NA","Mapping"
"Blocked","m150","ball","1","m150gnash.wav","None","719.980596332","129","129671.050536","NA","NA","NA","NA","NA","NA","NA","130438.062869","NA","NA","NA","NA","NA","NA","NA","129685.297856","Mapping"
"Blocked","m150","ball","1","m150ball.wav","None","725.60662101","129","129671.050536","NA","NA","NA","NA","NA","NA","NA","130438.062869","131204.015665","NA","NA","NA","NA","NA","NA","130447.653731","Mapping"
"Blocked","m150","ball","1","m150gnash.wav","space","438.332468271","129","129671.050536","NA","NA","NA","NA","NA","NA","NA","130438.062869","131204.015665","131970.84404","NA","NA","NA","NA","NA","131213.056508","Mapping"
"Blocked","m150","ball","1","m150ball.wav","None","728.375267005","129","129671.050536","NA","NA","NA","NA","NA","NA","NA","130438.062869","131204.015665","131970.84404","132737.759292","NA","NA","NA","NA","131980.512813","Mapping"
"Blocked","m150","ball","1","m150tile.wav","space","360.034355428","129","129671.050536","NA","NA","NA","NA","NA","NA","NA","130438.062869","131204.015665","131970.84404","132737.759292","133504.446065","NA","NA","NA","132747.323565","Mapping"
"Blocked","m150","ball","1","m150cling.wav","None","731.568407966","129","129671.050536","NA","NA","NA","NA","NA","NA","NA","130438.062869","131204.015665","131970.84404","132737.759292","133504.446065","134270.664441","NA","NA","133513.31037","Mapping"
"Blocked","m150","ball","1","m150ball.wav","None","733.372124145","129","129671.050536","NA","NA","NA","NA","NA","NA","NA","130438.062869","131204.015665","131970.84404","132737.759292","133504.446065","134270.664441","135037.652967","NA","134279.705284","Mapping"
"Blocked","m150","ball","1","m150jolt.wav","space","548.134093406","129","129671.050536","NA","NA","NA","NA","NA","NA","NA","130438.062869","131204.015665","131970.84404","132737.759292","133504.446065","134270.664441","135037.652967","135804.023456","135047.199308","Mapping"
"Blocked","m150","ball","1","m150done.wav","None","736.290719127","129","129671.050536","136588.056083","NA","NA","NA","NA","NA","NA","130438.062869","131204.015665","131970.84404","132737.759292","133504.446065","134270.664441","135037.652967","135804.023456","135813.211465","Mapping"
"Blocked","m150","ball","1","m150reek.wav","None","719.801584957","129","129671.050536","136588.056083","137354.632481","NA","NA","NA","NA","NA","130438.062869","131204.015665","131970.84404","132737.759292","133504.446065","134270.664441","135037.652967","135804.023456","136597.551719","Mapping"
"Blocked","m150","ball","1","m150cave.wav","None","721.259645885","129","129671.050536","136588.056083","137354.632481","138121.007917","NA","NA","NA","NA","130438.062869","131204.015665","131970.84404","132737.759292","133504.446065","134270.664441","135037.652967","135804.023456","137364.53839","Mapping"
"Blocked","m150","ball","1","m150ball.wav","None","723.8508265","129","129671.050536","136588.056083","137354.632481","138121.007917","138888.69301","NA","NA","NA","130438.062869","131204.015665","131970.84404","132737.759292","133504.446065","134270.664441","135037.652967","135804.023456","138129.96652","Mapping"
"Blocked","m150","ball","1","m150tile.wav","space","408.353179693","129","129671.050536","136588.056083","137354.632481","138121.007917","138888.69301","139654.115884","NA","NA","130438.062869","131204.015665","131970.84404","132737.759292","133504.446065","134270.664441","135037.652967","135804.023456","138898.857698","Mapping"
"Blocked","m150","ball","1","m150bluff.wav","None","726.48529103","129","129671.050536","136588.056083","137354.632481","138121.007917","138888.69301","139654.115884","140421.111212","NA","130438.062869","131204.015665","131970.84404","132737.759292","133504.446065","134270.664441","135037.652967","135804.023456","139662.831476","Mapping"
"Blocked","m150","ball","1","m150cling.wav","None","726.931119105","129","129671.050536","136588.056083","137354.632481","138121.007917","138888.69301","139654.115884","140421.111212","141187.711417","130438.062869","131204.015665","131970.84404","132737.759292","133504.446065","134270.664441","135037.652967","135804.023456","140430.223164","Mapping"
"Blocked","m150","tile","13","m150depth.wav","None","728.218516335","129","144371.055452","136588.056083","137354.632481","138121.007917","138888.69301","139654.115884","140421.111212","141187.711417","130438.062869","131204.015665","131970.84404","132737.759292","133504.446065","134270.664441","135037.652967","135804.023456","141197.141817","Mapping"
"Blocked","m150","tile","13","m150tile.wav","None","725.600437494","129","144371.055452","136588.056083","137354.632481","138121.007917","138888.69301","139654.115884","140421.111212","141187.711417","145137.29547","131204.015665","131970.84404","132737.759292","133504.446065","134270.664441","135037.652967","135804.023456","144380.428965","Mapping"
"Blocked","m150","tile","13","m150bluff.wav","space","345.145192463","129","144371.055452","136588.056083","137354.632481","138121.007917","138888.69301","139654.115884","140421.111212","141187.711417","145137.29547","145904.488051","131970.84404","132737.759292","133504.446065","134270.664441","135037.652967","135804.023456","145145.996841","Mapping"
"Blocked","m150","tile","13","m150priest.wav","None","728.82480477","129","144371.055452","136588.056083","137354.632481","138121.007917","138888.69301","139654.115884","140421.111212","141187.711417","145137.29547","145904.488051","146671.292928","132737.759292","133504.446065","134270.664441","135037.652967","135804.023456","145913.5864","Mapping"
"Blocked","m150","tile","13","m150ball.wav","None","730.295232497","129","144371.055452","136588.056083","137354.632481","138121.007917","138888.69301","139654.115884","140421.111212","141187.711417","145137.29547","145904.488051","146671.292928","147438.118829","133504.446065","134270.664441","135037.652967","135804.023456","146680.339027","Mapping"
"Blocked","m150","tile","13","m150tile.wav","None","730.866275262","129","144371.055452","136588.056083","137354.632481","138121.007917","138888.69301","139654.115884","140421.111212","141187.711417","145137.29547","145904.488051","146671.292928","147438.118829","148204.277535","134270.664441","135037.652967","135804.023456","147447.746792","Mapping"
"Blocked","m150","tile","13","m150bluff.wav","space","421.689365525","129","144371.055452","136588.056083","137354.632481","138121.007917","138888.69301","139654.115884","140421.111212","141187.711417","145137.29547","145904.488051","146671.292928","147438.118829","148204.277535","148970.681724","135037.652967","135804.023456","148213.385468","Mapping"
"Blocked","m150","tile","13","m150jolt.wav","None","735.235201893","129","144371.055452","136588.056083","137354.632481","138121.007917","138888.69301","139654.115884","140421.111212","141187.711417","145137.29547","145904.488051","146671.292928","147438.118829","148204.277535","148970.681724","149738.136792","135804.023456","148979.722876","Mapping"
"Blocked","m150","tile","13","m150tile.wav","None","736.001024023","129","144371.055452","136588.056083","137354.632481","138121.007917","138888.69301","139654.115884","140421.111212","141187.711417","145137.29547","145904.488051","146671.292928","147438.118829","148204.277535","148970.681724","149738.136792","150521.172954","149747.137442","Mapping"
"Blocked","m150","tile","13","m150lash.wav","space","367.444000207","129","144371.055452","151287.763883","137354.632481","138121.007917","138888.69301","139654.115884","140421.111212","141187.711417","145137.29547","145904.488051","146671.292928","147438.118829","148204.277535","148970.681724","149738.136792","150521.172954","150531.596728","Mapping"
"Blocked","m150","tile","13","m150jaw.wav","None","721.907363506","129","144371.055452","151287.763883","152054.320804","138121.007917","138888.69301","139654.115884","140421.111212","141187.711417","145137.29547","145904.488051","146671.292928","147438.118829","148204.277535","148970.681724","149738.136792","150521.172954","151297.733482","Mapping"
"Blocked","m150","tile","13","m150park.wav","None","725.53025512","129","144371.055452","151287.763883","152054.320804","152820.888545","138888.69301","139654.115884","140421.111212","141187.711417","145137.29547","145904.488051","146671.292928","147438.118829","148204.277535","148970.681724","149738.136792","150521.172954","152063.017227","Mapping"
"Blocked","m150","tile","13","m150cling.wav","None","727.432288695","129","144371.055452","151287.763883","152054.320804","152820.888545","153587.151751","139654.115884","140421.111212","141187.711417","145137.29547","145904.488051","146671.292928","147438.118829","148204.277535","148970.681724","149738.136792","150521.172954","152829.795825","Mapping"
"Blocked","m150","tile","13","m150tile.wav","None","729.651224799","129","144371.055452","151287.763883","152054.320804","152820.888545","153587.151751","154354.022173","140421.111212","141187.711417","145137.29547","145904.488051","146671.292928","147438.118829","148204.277535","148970.681724","149738.136792","150521.172954","153595.940308","Mapping"
"Blocked","m150","tile","13","m150jolt.wav","space","496.0319167","129","144371.055452","151287.763883","152054.320804","152820.888545","153587.151751","154354.022173","155120.867552","141187.711417","145137.29547","145904.488051","146671.292928","147438.118829","148204.277535","148970.681724","149738.136792","150521.172954","154362.933163","Mapping"
"Blocked","m150","tile","13","m150gnash.wav","None","732.476449572","129","144371.055452","151287.763883","152054.320804","152820.888545","153587.151751","154354.022173","155120.867552","155887.423545","145137.29547","145904.488051","146671.292928","147438.118829","148204.277535","148970.681724","149738.136792","150521.172954","155129.76061","Mapping"
"Blocked","m150","done","21","m150jolt.wav","None","733.92338003","129","159020.812612","151287.763883","152054.320804","152820.888545","153587.151751","154354.022173","155120.867552","155887.423545","145137.29547","145904.488051","146671.292928","147438.118829","148204.277535","148970.681724","149738.136792","150521.172954","155896.406263","Mapping"
"Blocked","m150","done","21","m150done.wav","None","725.486970972","129","159020.812612","151287.763883","152054.320804","152820.888545","153587.151751","154354.022173","155120.867552","155887.423545","159787.034698","145904.488051","146671.292928","147438.118829","148204.277535","148970.681724","149738.136792","150521.172954","159030.32278","Mapping"
"Blocked","m150","done","21","m150bluff.wav","space","510.958489496","129","159020.812612","151287.763883","152054.320804","152820.888545","153587.151751","154354.022173","155120.867552","155887.423545","159787.034698","160554.211202","146671.292928","147438.118829","148204.277535","148970.681724","149738.136792","150521.172954","159795.871177","Mapping"
"Blocked","m150","done","21","m150lash.wav","None","728.498008801","129","159020.812612","151287.763883","152054.320804","152820.888545","153587.151751","154354.022173","155120.867552","155887.423545","159787.034698","160554.211202","161320.377636","147438.118829","148204.277535","148970.681724","149738.136792","150521.172954","160563.375405","Mapping"
"Blocked","m150","done","21","m150done.wav","None","730.844324222","129","159020.812612","151287.763883","152054.320804","152820.888545","153587.151751","154354.022173","155120.867552","155887.423545","159787.034698","160554.211202","161320.377636","162087.369873","148204.277535","148970.681724","149738.136792","150521.172954","161329.154754","Mapping"
"Blocked","m150","done","21","m150tile.wav","space","354.13409397","129","159020.812612","151287.763883","152054.320804","152820.888545","153587.151751","154354.022173","155120.867552","155887.423545","159787.034698","160554.211202","161320.377636","162087.369873","162854.058192","148970.681724","149738.136792","150521.172954","162096.681242","Mapping"
"Blocked","m150","done","21","m150dime.wav","None","732.710184529","129","159020.812612","151287.763883","152054.320804","152820.888545","153587.151751","154354.022173","155120.867552","155887.423545","159787.034698","160554.211202","161320.377636","162087.369873","162854.058192","163620.259563","149738.136792","150521.172954","162863.698521","Mapping"
"Blocked","m150","done","21","m150reek.wav","space","477.799354587","129","159020.812612","151287.763883","152054.320804","152820.888545","153587.151751","154354.022173","155120.867552","155887.423545","159787.034698","160554.211202","161320.377636","162087.369873","162854.058192","163620.259563","164387.028577","150521.172954","163628.96588","Mapping"
"Blocked","m150","done","21","m150depth.wav","None","736.950804014","129","159020.812612","151287.763883","152054.320804","152820.888545","153587.151751","154354.022173","155120.867552","155887.423545","159787.034698","160554.211202","161320.377636","162087.369873","162854.058192","163620.259563","164387.028577","165171.074806","164395.776632","Mapping"
"Blocked","m150","done","21","m150done.wav","None","720.612855628","129","159020.812612","165937.111698","152054.320804","152820.888545","153587.151751","154354.022173","155120.867552","155887.423545","159787.034698","160554.211202","161320.377636","162087.369873","162854.058192","163620.259563","164387.028577","165171.074806","165180.539526","Mapping"
"Blocked","m150","done","21","m150park.wav","space","448.537966469","129","159020.812612","165937.111698","166704.28109","152820.888545","153587.151751","154354.022173","155120.867552","155887.423545","159787.034698","160554.211202","161320.377636","162087.369873","162854.058192","163620.259563","164387.028577","165171.074806","165946.229834","Mapping"
"Blocked","m150","done","21","m150ball.wav","None","723.487857031","129","159020.812612","165937.111698","166704.28109","167470.29974","153587.151751","154354.022173","155120.867552","155887.423545","159787.034698","160554.211202","161320.377636","162087.369873","162854.058192","163620.259563","164387.028577","165171.074806","166713.823412","Mapping"
"Blocked","m150","done","21","m150done.wav","None","726.378317457","129","159020.812612","165937.111698","166704.28109","167470.29974","168237.276827","154354.022173","155120.867552","155887.423545","159787.034698","160554.211202","161320.377636","162087.369873","162854.058192","163620.259563","164387.028577","165171.074806","167479.098809","Mapping"
"Blocked","m150","done","21","m150ball.wav","space","484.331565909","129","159020.812612","165937.111698","166704.28109","167470.29974","168237.276827","169003.896201","155120.867552","155887.423545","159787.034698","160554.211202","161320.377636","162087.369873","162854.058192","163620.259563","164387.028577","165171.074806","168246.36621","Mapping"
"Blocked","m150","done","21","m150tile.wav","None","727.771142498","129","159020.812612","165937.111698","166704.28109","167470.29974","168237.276827","169003.896201","169770.610181","155887.423545","159787.034698","160554.211202","161320.377636","162087.369873","162854.058192","163620.259563","164387.028577","165171.074806","169013.56281","Mapping"
"Blocked","m150","done","21","m150ball.wav","None","730.458166683","129","159020.812612","165937.111698","166704.28109","167470.29974","168237.276827","169003.896201","169770.610181","170536.852982","159787.034698","160554.211202","161320.377636","162087.369873","162854.058192","163620.259563","164387.028577","165171.074806","169779.563837","Mapping"
"Blocked","m150","cave","12","m150park.wav","None","732.525917236","129","173670.456924","165937.111698","166704.28109","167470.29974","168237.276827","169003.896201","169770.610181","170536.852982","159787.034698","160554.211202","161320.377636","162087.369873","162854.058192","163620.259563","164387.028577","165171.074806","170545.655452","Mapping"
"Blocked","m150","cave","12","m150cave.wav","None","726.075945888","129","173670.456924","165937.111698","166704.28109","167470.29974","168237.276827","169003.896201","169770.610181","170536.852982","174436.765888","160554.211202","161320.377636","162087.369873","162854.058192","163620.259563","164387.028577","165171.074806","173679.237752","Mapping"
"Blocked","m150","cave","12","m150bluff.wav","space","604.97033014","129","173670.456924","165937.111698","166704.28109","167470.29974","168237.276827","169003.896201","169770.610181","170536.852982","174436.765888","175204.077809","161320.377636","162087.369873","162854.058192","163620.259563","164387.028577","165171.074806","174445.624009","Mapping"
"Blocked","m150","cave","12","m150park.wav","None","727.876879741","129","173670.456924","165937.111698","166704.28109","167470.29974","168237.276827","169003.896201","169770.610181","170536.852982","174436.765888","175204.077809","175970.491891","162087.369873","162854.058192","163620.259563","164387.028577","165171.074806","175213.28746","Mapping"
"Blocked","m150","cave","12","m150park.wav","None","729.606703855","129","173670.456924","165937.111698","166704.28109","167470.29974","168237.276827","169003.896201","169770.610181","170536.852982","174436.765888","175204.077809","175970.491891","176737.101371","162854.058192","163620.259563","164387.028577","165171.074806","175979.462861","Mapping"
"Blocked","m150","cave","12","m150lash.wav","None","731.026736321","129","173670.456924","165937.111698","166704.28109","167470.29974","168237.276827","169003.896201","169770.610181","170536.852982","174436.765888","175204.077809","175970.491891","176737.101371","177503.745479","163620.259563","164387.028577","165171.074806","176746.204358","Mapping"
"Blocked","m150","cave","12","m150cave.wav","None","732.072978513","129","173670.456924","165937.111698","166704.28109","167470.29974","168237.276827","169003.896201","169770.610181","170536.852982","174436.765888","175204.077809","175970.491891","176737.101371","177503.745479","178270.448329","164387.028577","165171.074806","177513.436203","Mapping"
"Blocked","m150","cave","12","m150priest.wav","space","651.138236746","129","173670.456924","165937.111698","166704.28109","167470.29974","168237.276827","169003.896201","169770.610181","170536.852982","174436.765888","175204.077809","175970.491891","176737.101371","177503.745479","178270.448329","179036.394941","165171.074806","178279.389618","Mapping"
"Blocked","m150","cave","12","m150ball.wav","None","736.830535578","129","173670.456924","165937.111698","166704.28109","167470.29974","168237.276827","169003.896201","169770.610181","170536.852982","174436.765888","175204.077809","175970.491891","176737.101371","177503.745479","178270.448329","179036.394941","179820.215166","179045.106206","Mapping"
"Blocked","m150","cave","12","m150greet.wav","None","721.587987849","129","173670.456924","180587.435263","166704.28109","167470.29974","168237.276827","169003.896201","169770.610181","170536.852982","174436.765888","175204.077809","175970.491891","176737.101371","177503.745479","178270.448329","179036.394941","179820.215166","179829.035568","Mapping"
"Blocked","m150","cave","12","m150knife.wav","None","721.474212129","129","173670.456924","180587.435263","181353.96343","167470.29974","168237.276827","169003.896201","169770.610181","170536.852982","174436.765888","175204.077809","175970.491891","176737.101371","177503.745479","178270.448329","179036.394941","179820.215166","180597.185658","Mapping"
"Blocked","m150","cave","12","m150cave.wav","None","723.609980429","129","173670.456924","180587.435263","181353.96343","182120.345359","168237.276827","169003.896201","169770.610181","170536.852982","174436.765888","175204.077809","175970.491891","176737.101371","177503.745479","178270.448329","179036.394941","179820.215166","181363.387648","Mapping"
"Blocked","m150","cave","12","m150romp.wav","space","489.11323864","129","173670.456924","180587.435263","181353.96343","182120.345359","182886.782938","169003.896201","169770.610181","170536.852982","174436.765888","175204.077809","175970.491891","176737.101371","177503.745479","178270.448329","179036.394941","179820.215166","182129.329932","Mapping"
"Blocked","m150","cave","12","m150cave.wav","None","727.65149246","129","173670.456924","180587.435263","181353.96343","182120.345359","182886.782938","183653.766827","169770.610181","170536.852982","174436.765888","175204.077809","175970.491891","176737.101371","177503.745479","178270.448329","179036.394941","179820.215166","182895.681871","Mapping"
"Blocked","m150","cave","12","m150knife.wav","space","635.633819038","129","173670.456924","180587.435263","181353.96343","182120.345359","182886.782938","183653.766827","184420.294067","170536.852982","174436.765888","175204.077809","175970.491891","176737.101371","177503.745479","178270.448329","179036.394941","179820.215166","183662.843225","Mapping"
"Blocked","m150","cave","12","m150priest.wav","None","729.561873944","129","173670.456924","180587.435263","181353.96343","182120.345359","182886.782938","183653.766827","184420.294067","185186.923952","174436.765888","175204.077809","175970.491891","176737.101371","177503.745479","178270.448329","179036.394941","179820.215166","184429.9143","Mapping"
"Blocked","m150","ball","5","m150bluff.wav","None","731.416294584","129","188320.204809","180587.435263","181353.96343","182120.345359","182886.782938","183653.766827","184420.294067","185186.923952","174436.765888","175204.077809","175970.491891","176737.101371","177503.745479","178270.448329","179036.394941","179820.215166","185196.328692","Mapping"
"Blocked","m150","ball","5","m150romp.wav","None","725.906828186","129","188320.204809","180587.435263","181353.96343","182120.345359","182886.782938","183653.766827","184420.294067","185186.923952","189086.456884","175204.077809","175970.491891","176737.101371","177503.745479","178270.448329","179036.394941","179820.215166","188329.072824","Mapping"
"Blocked","m150","ball","5","m150dime.wav","None","728.273239918","129","188320.204809","180587.435263","181353.96343","182120.345359","182886.782938","183653.766827","184420.294067","185186.923952","189086.456884","189853.730159","175970.491891","176737.101371","177503.745479","178270.448329","179036.394941","179820.215166","189095.104459","Mapping"
"Blocked","m150","ball","5","m150cling.wav","None","728.281278396","129","188320.204809","180587.435263","181353.96343","182120.345359","182886.782938","183653.766827","184420.294067","185186.923952","189086.456884","189853.730159","190619.859184","176737.101371","177503.745479","178270.448329","179036.394941","179820.215166","189863.354721","Mapping"
"Blocked","m150","ball","5","m150ball.wav","None","731.300045503","129","188320.204809","180587.435263","181353.96343","182120.345359","182886.782938","183653.766827","184420.294067","185186.923952","189086.456884","189853.730159","190619.859184","191386.856985","177503.745479","178270.448329","179036.394941","179820.215166","190628.609095","Mapping"
"Blocked","m150","ball","5","m150cling.wav","space","606.084899744","129","188320.204809","180587.435263","181353.96343","182120.345359","182886.782938","183653.766827","184420.294067","185186.923952","189086.456884","189853.730159","190619.859184","191386.856985","192153.236131","178270.448329","179036.394941","179820.215166","191396.216895","Mapping"
"Blocked","m150","ball","5","m150ball.wav","None","734.359005","129","188320.204809","180587.435263","181353.96343","182120.345359","182886.782938","183653.766827","184420.294067","185186.923952","189086.456884","189853.730159","190619.859184","191386.856985","192153.236131","192920.186938","179036.394941","179820.215166","192162.302635","Mapping"
"Blocked","m150","ball","5","m150knife.wav","space","528.843849897","129","188320.204809","180587.435263","181353.96343","182120.345359","182886.782938","183653.766827","184420.294067","185186.923952","189086.456884","189853.730159","190619.859184","191386.856985","192153.236131","192920.186938","193703.876383","179820.215166","192929.435546","Mapping"
"Blocked","m150","ball","5","m150priest.wav","None","720.22175137","129","188320.204809","180587.435263","181353.96343","182120.345359","182886.782938","183653.766827","184420.294067","185186.923952","189086.456884","189853.730159","190619.859184","191386.856985","192153.236131","192920.186938","193703.876383","194469.946046","193713.180023","Mapping"
"Blocked","m150","ball","5","m150ball.wav","None","723.008329514","129","188320.204809","195237.049585","181353.96343","182120.345359","182886.782938","183653.766827","184420.294067","185186.923952","189086.456884","189853.730159","190619.859184","191386.856985","192153.236131","192920.186938","193703.876383","194469.946046","194478.763357","Mapping"
"Blocked","m150","ball","5","m150greet.wav","space","547.708980041","129","188320.204809","195237.049585","196003.428112","182120.345359","182886.782938","183653.766827","184420.294067","185186.923952","189086.456884","189853.730159","190619.859184","191386.856985","192153.236131","192920.186938","193703.876383","194469.946046","195246.516777","Mapping"
"Blocked","m150","ball","5","m150jaw.wav","None","725.580341183","129","188320.204809","195237.049585","196003.428112","196770.102519","182886.782938","183653.766827","184420.294067","185186.923952","189086.456884","189853.730159","190619.859184","191386.856985","192153.236131","192920.186938","193703.876383","194469.946046","196012.512239","Mapping"
"Blocked","m150","ball","5","m150ball.wav","None","726.91473295","129","188320.204809","195237.049585","196003.428112","196770.102519","197536.34872","183653.766827","184420.294067","185186.923952","189086.456884","189853.730159","190619.859184","191386.856985","192153.236131","192920.186938","193703.876383","194469.946046","196779.5626","Mapping"
"Blocked","m150","ball","5","m150done.wav","space","545.110688545","129","188320.204809","195237.049585","196003.428112","196770.102519","197536.34872","198303.359198","184420.294067","185186.923952","189086.456884","189853.730159","190619.859184","191386.856985","192153.236131","192920.186938","193703.876383","194469.946046","197545.052873","Mapping"
"Blocked","m150","ball","5","m150cad.wav","None","730.266170343","129","188320.204809","195237.049585","196003.428112","196770.102519","197536.34872","198303.359198","199070.111206","185186.923952","189086.456884","189853.730159","190619.859184","191386.856985","192153.236131","192920.186938","193703.876383","194469.946046","198312.490937","Mapping"
"Blocked","m150","ball","5","m150lash.wav","None","732.025056612","129","188320.204809","195237.049585","196003.428112","196770.102519","197536.34872","198303.359198","199070.111206","199836.632572","189086.456884","189853.730159","190619.859184","191386.856985","192153.236131","192920.186938","193703.876383","194469.946046","199079.041365","Mapping"
"Blocked","m150","cave","10","m150tile.wav","None","733.153538778","129","202970.082546","195237.049585","196003.428112","196770.102519","197536.34872","198303.359198","199070.111206","199836.632572","189086.456884","189853.730159","190619.859184","191386.856985","192153.236131","192920.186938","193703.876383","194469.946046","199846.332263","Mapping"
"Blocked","m150","cave","10","m150reek.wav","None","725.573230302","129","202970.082546","195237.049585","196003.428112","196770.102519","197536.34872","198303.359198","199070.111206","199836.632572","203736.661418","189853.730159","190619.859184","191386.856985","192153.236131","192920.186938","193703.876383","194469.946046","202979.115969","Mapping"
"Blocked","m150","cave","10","m150cave.wav","None","726.869284408","129","202970.082546","195237.049585","196003.428112","196770.102519","197536.34872","198303.359198","199070.111206","199836.632572","203736.661418","204503.409098","190619.859184","191386.856985","192153.236131","192920.186938","193703.876383","194469.946046","203746.085017","Mapping"
"Blocked","m150","cave","10","m150tile.wav","space","601.526759099","129","202970.082546","195237.049585","196003.428112","196770.102519","197536.34872","198303.359198","199070.111206","199836.632572","203736.661418","204503.409098","205270.000646","191386.856985","192153.236131","192920.186938","193703.876383","194469.946046","204512.51765","Mapping"
"Blocked","m150","cave","10","m150cave.wav","None","729.494164698","129","202970.082546","195237.049585","196003.428112","196770.102519","197536.34872","198303.359198","199070.111206","199836.632572","203736.661418","204503.409098","205270.000646","206036.191815","192153.236131","192920.186938","193703.876383","194469.946046","205279.638502","Mapping"
"Blocked","m150","cave","10","m150romp.wav","space","629.088313086","129","202970.082546","195237.049585","196003.428112","196770.102519","197536.34872","198303.359198","199070.111206","199836.632572","203736.661418","204503.409098","205270.000646","206036.191815","206802.809951","192920.186938","193703.876383","194469.946046","206044.93647","Mapping"
"Blocked","m150","cave","10","m150greet.wav","None","734.703423921","129","202970.082546","195237.049585","196003.428112","196770.102519","197536.34872","198303.359198","199070.111206","199836.632572","203736.661418","204503.409098","205270.000646","206036.191815","206802.809951","207569.70047","193703.876383","194469.946046","206811.559862","Mapping"
"Blocked","m150","cave","10","m150gnash.wav","None","736.142934533","129","202970.082546","195237.049585","196003.428112","196770.102519","197536.34872","198303.359198","199070.111206","199836.632572","203736.661418","204503.409098","205270.000646","206036.191815","206802.809951","207569.70047","208353.43258","194469.946046","207578.769138","Mapping"
"Blocked","m150","cave","10","m150cling.wav","None","719.876095885","129","202970.082546","195237.049585","196003.428112","196770.102519","197536.34872","198303.359198","199070.111206","199836.632572","203736.661418","204503.409098","205270.000646","206036.191815","206802.809951","207569.70047","208353.43258","209120.403483","208363.274799","Mapping"
"Blocked","m150","cave","10","m150reek.wav","None","721.941991244","129","202970.082546","209886.101211","196003.428112","196770.102519","197536.34872","198303.359198","199070.111206","199836.632572","203736.661418","204503.409098","205270.000646","206036.191815","206802.809951","207569.70047","208353.43258","209120.403483","209129.840686","Mapping"
"Blocked","m150","cave","10","m150ball.wav","None","725.509231444","129","202970.082546","209886.101211","210653.090665","196770.102519","197536.34872","198303.359198","199070.111206","199836.632572","203736.661418","204503.409098","205270.000646","206036.191815","206802.809951","207569.70047","208353.43258","209120.403483","209894.816495","Mapping"
"Blocked","m150","cave","10","m150cave.wav","None","726.659046719","129","202970.082546","209886.101211","210653.090665","211419.838346","197536.34872","198303.359198","199070.111206","199836.632572","203736.661418","204503.409098","205270.000646","206036.191815","206802.809951","207569.70047","208353.43258","209120.403483","210662.090079","Mapping"
"Blocked","m150","cave","10","m150cling.wav","space","469.104476739","129","202970.082546","209886.101211","210653.090665","211419.838346","212186.075581","198303.359198","199070.111206","199836.632572","203736.661418","204503.409098","205270.000646","206036.191815","206802.809951","207569.70047","208353.43258","209120.403483","211428.847034","Mapping"
"Blocked","m150","cave","10","m150cave.wav","None","730.397259584","129","202970.082546","209886.101211","210653.090665","211419.838346","212186.075581","212952.730819","199070.111206","199836.632572","203736.661418","204503.409098","205270.000646","206036.191815","206802.809951","207569.70047","208353.43258","209120.403483","212194.882689","Mapping"
"Blocked","m150","cave","10","m150done.wav","space","488.441096153","129","202970.082546","209886.101211","210653.090665","211419.838346","212186.075581","212952.730819","213719.477571","199836.632572","203736.661418","204503.409098","205270.000646","206036.191815","206802.809951","207569.70047","208353.43258","209120.403483","212961.473309","Mapping"
"Blocked","m150","cave","10","m150cad.wav","None","733.175490052","129","202970.082546","209886.101211","210653.090665","211419.838346","212186.075581","212952.730819","213719.477571","214486.314294","203736.661418","204503.409098","205270.000646","206036.191815","206802.809951","207569.70047","208353.43258","209120.403483","213728.354861","Mapping"
"Blocked","m150","ball","4","m150reek.wav","None","734.555020928","129","217619.692849","209886.101211","210653.090665","211419.838346","212186.075581","212952.730819","213719.477571","214486.314294","203736.661418","204503.409098","205270.000646","206036.191815","206802.809951","207569.70047","208353.43258","209120.403483","214495.333494","Mapping"
"Blocked","m150","ball","4","m150romp.wav","None","724.741245387","129","217619.692849","209886.101211","210653.090665","211419.838346","212186.075581","212952.730819","213719.477571","214486.314294","218386.357671","204503.409098","205270.000646","206036.191815","206802.809951","207569.70047","208353.43258","209120.403483","217628.864781","Mapping"
"Blocked","m150","ball","4","m150jaw.wav","None","726.573405787","129","217619.692849","209886.101211","210653.090665","211419.838346","212186.075581","212952.730819","213719.477571","214486.314294","218386.357671","219153.067323","205270.000646","206036.191815","206802.809951","207569.70047","208353.43258","209120.403483","218395.44087","Mapping"
"Blocked","m150","ball","4","m150jolt.wav","None","728.395672515","129","217619.692849","209886.101211","210653.090665","211419.838346","212186.075581","212952.730819","213719.477571","214486.314294","218386.357671","219153.067323","219919.317852","206036.191815","206802.809951","207569.70047","208353.43258","209120.403483","219162.120532","Mapping"
"Blocked","m150","ball","4","m150ball.wav","None","730.950989062","129","217619.692849","209886.101211","210653.090665","211419.838346","212186.075581","212952.730819","213719.477571","214486.314294","218386.357671","219153.067323","219919.317852","220686.299268","206802.809951","207569.70047","208353.43258","209120.403483","219928.141037","Mapping"
"Blocked","m150","ball","4","m150jolt.wav","space","546.045937575","129","217619.692849","209886.101211","210653.090665","211419.838346","212186.075581","212952.730819","213719.477571","214486.314294","218386.357671","219153.067323","219919.317852","220686.299268","221452.533721","207569.70047","208353.43258","209120.403483","220695.711737","Mapping"
"Blocked","m150","ball","4","m150bluff.wav","None","734.571097884","129","217619.692849","209886.101211","210653.090665","211419.838346","212186.075581","212952.730819","213719.477571","214486.314294","218386.357671","219153.067323","219919.317852","220686.299268","221452.533721","222219.428567","208353.43258","209120.403483","221461.23911","Mapping"
"Blocked","m150","ball","4","m150ball.wav","None","735.844582319","129","217619.692849","209886.101211","210653.090665","211419.838346","212186.075581","212952.730819","213719.477571","214486.314294","218386.357671","219153.067323","219919.317852","220686.299268","221452.533721","222219.428567","223003.496749","209120.403483","222228.385006","Mapping"
"Blocked","m150","ball","4","m150greet.wav","space","460.85295314","129","217619.692849","209886.101211","210653.090665","211419.838346","212186.075581","212952.730819","213719.477571","214486.314294","218386.357671","219153.067323","219919.317852","220686.299268","221452.533721","222219.428567","223003.496749","223770.146112","223012.892832","Mapping"
"Blocked","m150","ball","4","m150cling.wav","None","720.639753621","129","217619.692849","224536.643981","210653.090665","211419.838346","212186.075581","212952.730819","213719.477571","214486.314294","218386.357671","219153.067323","219919.317852","220686.299268","221452.533721","222219.428567","223003.496749","223770.146112","223780.088504","Mapping"
"Blocked","m150","ball","4","m150reek.wav","None","723.036773503","129","217619.692849","224536.643981","225302.609762","211419.838346","212186.075581","212952.730819","213719.477571","214486.314294","218386.357671","219153.067323","219919.317852","220686.299268","221452.533721","222219.428567","223003.496749","223770.146112","224546.113646","Mapping"
"Blocked","m150","ball","4","m150ball.wav","None","726.109954994","129","217619.692849","224536.643981","225302.609762","226069.685166","212186.075581","212952.730819","213719.477571","214486.314294","218386.357671","219153.067323","219919.317852","220686.299268","221452.533721","222219.428567","223003.496749","223770.146112","225311.382242","Mapping"
"Blocked","m150","ball","4","m150cave.wav","space","483.084052335","129","217619.692849","224536.643981","225302.609762","226069.685166","226836.20313","212952.730819","213719.477571","214486.314294","218386.357671","219153.067323","219919.317852","220686.299268","221452.533721","222219.428567","223003.496749","223770.146112","226078.587808","Mapping"
"Blocked","m150","ball","4","m150ball.wav","None","728.216042742","129","217619.692849","224536.643981","225302.609762","226069.685166","226836.20313","227602.842291","213719.477571","214486.314294","218386.357671","219153.067323","219919.317852","220686.299268","221452.533721","222219.428567","223003.496749","223770.146112","226845.619","Mapping"
"Blocked","m150","ball","4","m150knife.wav","space","421.773769893","129","217619.692849","224536.643981","225302.609762","226069.685166","226836.20313","227602.842291","228370.005191","214486.314294","218386.357671","219153.067323","219919.317852","220686.299268","221452.533721","222219.428567","223003.496749","223770.146112","227611.876023","Mapping"
"Blocked","m150","ball","4","m150jaw.wav","None","730.451365001","129","217619.692849","224536.643981","225302.609762","226069.685166","226836.20313","227602.842291","228370.005191","229136.174717","218386.357671","219153.067323","219919.317852","220686.299268","221452.533721","222219.428567","223003.496749","223770.146112","228379.58585","Mapping"
"Blocked","m150","done","20","m150dime.wav","None","733.274734579","129","232269.526374","224536.643981","225302.609762","226069.685166","226836.20313","227602.842291","228370.005191","229136.174717","218386.357671","219153.067323","219919.317852","220686.299268","221452.533721","222219.428567","223003.496749","223770.146112","229145.5034","Mapping"
"Blocked","m150","done","20","m150done.wav","None","725.528709358","129","232269.526374","224536.643981","225302.609762","226069.685166","226836.20313","227602.842291","228370.005191","229136.174717","233035.997654","219153.067323","219919.317852","220686.299268","221452.533721","222219.428567","223003.496749","223770.146112","232278.533826","Mapping"
"Blocked","m150","done","20","m150priest.wav","space","636.424993165","129","232269.526374","224536.643981","225302.609762","226069.685166","226836.20313","227602.842291","228370.005191","229136.174717","233035.997654","233802.562922","219919.317852","220686.299268","221452.533721","222219.428567","223003.496749","223770.146112","233045.124138","Mapping"
"Blocked","m150","done","20","m150priest.wav","None","728.90611738","129","232269.526374","224536.643981","225302.609762","226069.685166","226836.20313","227602.842291","228370.005191","229136.174717","233035.997654","233802.562922","234569.021835","220686.299268","221452.533721","222219.428567","223003.496749","223770.146112","233811.428154","Mapping"
"Blocked","m150","done","20","m150jaw.wav","None","730.976341059","129","232269.526374","224536.643981","225302.609762","226069.685166","226836.20313","227602.842291","228370.005191","229136.174717","233035.997654","233802.562922","234569.021835","235335.987482","221452.533721","222219.428567","223003.496749","223770.146112","234577.861406","Mapping"
"Blocked","m150","done","20","m150lash.wav","None","732.252917252","129","232269.526374","224536.643981","225302.609762","226069.685166","226836.20313","227602.842291","228370.005191","229136.174717","233035.997654","233802.562922","234569.021835","235335.987482","236102.566972","222219.428567","223003.496749","223770.146112","235345.395313","Mapping"
"Blocked","m150","done","20","m150cave.wav","None","734.666632488","129","232269.526374","224536.643981","225302.609762","226069.685166","226836.20313","227602.842291","228370.005191","229136.174717","233035.997654","233802.562922","234569.021835","235335.987482","236102.566972","236885.843052","223003.496749","223770.146112","236111.510116","Mapping"
"Blocked","m150","done","20","m150done.wav","None","720.623676665","129","232269.526374","224536.643981","225302.609762","226069.685166","226836.20313","227602.842291","228370.005191","229136.174717","233035.997654","233802.562922","234569.021835","235335.987482","236102.566972","236885.843052","237652.271047","223770.146112","236894.693444","Mapping"
"Blocked","m150","done","20","m150jolt.wav","space","588.507784763","129","232269.526374","224536.643981","225302.609762","226069.685166","226836.20313","227602.842291","228370.005191","229136.174717","233035.997654","233802.562922","234569.021835","235335.987482","236102.566972","236885.843052","237652.271047","238419.352944","237660.964688","Mapping"
"Blocked","m150","done","20","m150depth.wav","None","726.362549467","129","232269.526374","239186.010036","225302.609762","226069.685166","226836.20313","227602.842291","228370.005191","229136.174717","233035.997654","233802.562922","234569.021835","235335.987482","236102.566972","236885.843052","237652.271047","238419.352944","238428.332879","Mapping"
"Blocked","m150","done","20","m150done.wav","None","728.268602164","129","232269.526374","239186.010036","239952.246963","226069.685166","226836.20313","227602.842291","228370.005191","229136.174717","233035.997654","233802.562922","234569.021835","235335.987482","236102.566972","236885.843052","237652.271047","238419.352944","239195.096946","Mapping"
"Blocked","m150","done","20","m150cave.wav","space","616.323788418","129","232269.526374","239186.010036","239952.246963","240719.381109","226836.20313","227602.842291","228370.005191","229136.174717","233035.997654","233802.562922","234569.021835","235335.987482","236102.566972","236885.843052","237652.271047","238419.352944","239961.108485","Mapping"
"Blocked","m150","done","20","m150ball.wav","None","730.907395482","129","232269.526374","239186.010036","239952.246963","240719.381109","241485.578461","227602.842291","228370.005191","229136.174717","233035.997654","233802.562922","234569.021835","235335.987482","236102.566972","236885.843052","237652.271047","238419.352944","240728.953112","Mapping"
"Blocked","m150","done","20","m150done.wav","None","734.108574921","129","232269.526374","239186.010036","239952.246963","240719.381109","241485.578461","242252.043867","228370.005191","229136.174717","233035.997654","233802.562922","234569.021835","235335.987482","236102.566972","236885.843052","237652.271047","238419.352944","241494.367019","Mapping"
"Blocked","m150","done","20","m150romp.wav","space","452.577932505","129","232269.526374","239186.010036","239952.246963","240719.381109","241485.578461","242252.043867","243036.205109","229136.174717","233035.997654","233802.562922","234569.021835","235335.987482","236102.566972","236885.843052","237652.271047","238419.352944","242260.823767","Mapping"
"Blocked","m150","done","20","m150dime.wav","None","718.705566134","129","232269.526374","239186.010036","239952.246963","240719.381109","241485.578461","242252.043867","243036.205109","243802.828502","233035.997654","233802.562922","234569.021835","235335.987482","236102.566972","236885.843052","237652.271047","238419.352944","243046.105762","Mapping"
"Blocked","m150","ball","2","m150gnash.wav","None","720.676854486","129","246935.825228","239186.010036","239952.246963","240719.381109","241485.578461","242252.043867","243036.205109","243802.828502","233035.997654","233802.562922","234569.021835","235335.987482","236102.566972","236885.843052","237652.271047","238419.352944","243812.889925","Mapping"
"Blocked","m150","ball","2","m150depth.wav","None","724.966941634","129","246935.825228","239186.010036","239952.246963","240719.381109","241485.578461","242252.043867","243036.205109","243802.828502","247702.132955","233802.562922","234569.021835","235335.987482","236102.566972","236885.843052","237652.271047","238419.352944","246945.25532","Mapping"
"Blocked","m150","ball","2","m150done.wav","None","728.183579631","129","246935.825228","239186.010036","239952.246963","240719.381109","241485.578461","242252.043867","243036.205109","243802.828502","247702.132955","248469.20403","234569.021835","235335.987482","236102.566972","236885.843052","237652.271047","238419.352944","247710.827214","Mapping"
"Blocked","m150","ball","2","m150ball.wav","None","728.890968021","129","246935.825228","239186.010036","239952.246963","240719.381109","241485.578461","242252.043867","243036.205109","243802.828502","247702.132955","248469.20403","249235.76126","235335.987482","236102.566972","236885.843052","237652.271047","238419.352944","248478.576616","Mapping"
"Blocked","m150","ball","2","m150done.wav","space","572.124697035","129","246935.825228","239186.010036","239952.246963","240719.381109","241485.578461","242252.043867","243036.205109","243802.828502","247702.132955","248469.20403","249235.76126","250002.564901","236102.566972","236885.843052","237652.271047","238419.352944","249245.144048","Mapping"
"Blocked","m150","ball","2","m150gnash.wav","None","732.161092805","129","246935.825228","239186.010036","239952.246963","240719.381109","241485.578461","242252.043867","243036.205109","243802.828502","247702.132955","248469.20403","249235.76126","250002.564901","250768.765963","236885.843052","237652.271047","238419.352944","250012.164729","Mapping"
"Blocked","m150","ball","2","m150ball.wav","None","735.079378588","129","246935.825228","239186.010036","239952.246963","240719.381109","241485.578461","242252.043867","243036.205109","243802.828502","247702.132955","248469.20403","249235.76126","250002.564901","250768.765963","251552.23744","237652.271047","238419.352944","250777.79042","Mapping"
"Blocked","m150","ball","2","m150jaw.wav","space","448.136350373","129","246935.825228","239186.010036","239952.246963","240719.381109","241485.578461","242252.043867","243036.205109","243802.828502","247702.132955","248469.20403","249235.76126","250002.564901","250768.765963","251552.23744","252319.185155","238419.352944","251561.072064","Mapping"
"Blocked","m150","ball","2","m150priest.wav","None","721.293036593","129","246935.825228","239186.010036","239952.246963","240719.381109","241485.578461","242252.043867","243036.205109","243802.828502","247702.132955","248469.20403","249235.76126","250002.564901","250768.765963","251552.23744","252319.185155","253086.139673","252328.113768","Mapping"
"Blocked","m150","ball","2","m150dime.wav","None","721.870572073","129","246935.825228","253852.268697","239952.246963","240719.381109","241485.578461","242252.043867","243036.205109","243802.828502","247702.132955","248469.20403","249235.76126","250002.564901","250768.765963","251552.23744","252319.185155","253086.139673","253096.071862","Mapping"
"Blocked","m150","ball","2","m150greet.wav","None","725.503357127","129","246935.825228","253852.268697","254619.074502","240719.381109","241485.578461","242252.043867","243036.205109","243802.828502","247702.132955","248469.20403","249235.76126","250002.564901","250768.765963","251552.23744","252319.185155","253086.139673","253861.197619","Mapping"
"Blocked","m150","ball","2","m150ball.wav","None","727.466607001","129","246935.825228","253852.268697","254619.074502","255385.28484","241485.578461","242252.043867","243036.205109","243802.828502","247702.132955","248469.20403","249235.76126","250002.564901","250768.765963","251552.23744","252319.185155","253086.139673","254627.929223","Mapping"
"Blocked","m150","ball","2","m150bluff.wav","space","423.160102684","129","246935.825228","253852.268697","254619.074502","255385.28484","256152.353751","242252.043867","243036.205109","243802.828502","247702.132955","248469.20403","249235.76126","250002.564901","250768.765963","251552.23744","252319.185155","253086.139673","255394.009707","Mapping"
"Blocked","m150","ball","2","m150bluff.wav","None","731.139893644","129","246935.825228","253852.268697","254619.074502","255385.28484","256152.353751","256918.634889","243036.205109","243802.828502","247702.132955","248469.20403","249235.76126","250002.564901","250768.765963","251552.23744","252319.185155","253086.139673","256161.14911","Mapping"
"Blocked","m150","ball","2","m150ball.wav","None","733.590400545","129","246935.825228","253852.268697","254619.074502","255385.28484","256152.353751","256918.634889","257685.499127","243802.828502","247702.132955","248469.20403","249235.76126","250002.564901","250768.765963","251552.23744","252319.185155","253086.139673","256927.461475","Mapping"
"Blocked","m150","ball","2","m150knife.wav","space","490.474218968","129","246935.825228","253852.268697","254619.074502","255385.28484","256152.353751","256918.634889","257685.499127","258452.331212","247702.132955","248469.20403","249235.76126","250002.564901","250768.765963","251552.23744","252319.185155","253086.139673","257694.661166","Mapping"
"Blocked","m150","tile","14","m150park.wav","None","735.452241497","129","261602.348541","253852.268697","254619.074502","255385.28484","256152.353751","256918.634889","257685.499127","258452.331212","247702.132955","248469.20403","249235.76126","250002.564901","250768.765963","251552.23744","252319.185155","253086.139673","258461.968141","Mapping"
"Blocked","m150","tile","14","m150tile.wav","None","725.333002629","129","261602.348541","253852.268697","254619.074502","255385.28484","256152.353751","256918.634889","257685.499127","258452.331212","262368.946273","248469.20403","249235.76126","250002.564901","250768.765963","251552.23744","252319.185155","253086.139673","261611.447199","Mapping"
"Blocked","m150","tile","14","m150ball.wav","space","447.123498889","129","261602.348541","253852.268697","254619.074502","255385.28484","256152.353751","256918.634889","257685.499127","258452.331212","262368.946273","263135.597491","249235.76126","250002.564901","250768.765963","251552.23744","252319.185155","253086.139673","262377.878905","Mapping"
"Blocked","m150","tile","14","m150cling.wav","None","727.863585344","129","261602.348541","253852.268697","254619.074502","255385.28484","256152.353751","256918.634889","257685.499127","258452.331212","262368.946273","263135.597491","263902.132769","250002.564901","250768.765963","251552.23744","252319.185155","253086.139673","263145.379422","Mapping"
"Blocked","m150","tile","14","m150bluff.wav","None","731.099392055","129","261602.348541","253852.268697","254619.074502","255385.28484","256152.353751","256918.634889","257685.499127","258452.331212","262368.946273","263135.597491","263902.132769","264668.902092","250768.765963","251552.23744","252319.185155","253086.139673","263911.007277","Mapping"
"Blocked","m150","tile","14","m150tile.wav","None","732.419252396","129","261602.348541","253852.268697","254619.074502","255385.28484","256152.353751","256918.634889","257685.499127","258452.331212","262368.946273","263135.597491","263902.132769","264668.902092","265435.383574","251552.23744","252319.185155","253086.139673","264678.28859","Mapping"
"Blocked","m150","tile","14","m150romp.wav","space","396.541217575","129","261602.348541","253852.268697","254619.074502","255385.28484","256152.353751","256918.634889","257685.499127","258452.331212","262368.946273","263135.597491","263902.132769","264668.902092","265435.383574","266219.1735","252319.185155","253086.139673","265444.434929","Mapping"
"Blocked","m150","tile","14","m150tile.wav","None","719.455311075","129","261602.348541","253852.268697","254619.074502","255385.28484","256152.353751","256918.634889","257685.499127","258452.331212","262368.946273","263135.597491","263902.132769","264668.902092","265435.383574","266219.1735","266985.293249","253086.139673","266228.695416","Mapping"
"Blocked","m150","tile","14","m150dime.wav","space","566.685412778","129","261602.348541","253852.268697","254619.074502","255385.28484","256152.353751","256918.634889","257685.499127","258452.331212","262368.946273","263135.597491","263902.132769","264668.902092","265435.383574","266219.1735","266985.293249","267752.428014","266994.254016","Mapping"
"Blocked","m150","tile","14","m150ball.wav","None","722.982049687","129","261602.348541","268518.850135","254619.074502","255385.28484","256152.353751","256918.634889","257685.499127","258452.331212","262368.946273","263135.597491","263902.132769","264668.902092","265435.383574","266219.1735","266985.293249","267752.428014","267761.891497","Mapping"
"Blocked","m150","tile","14","m150knife.wav","None","725.913939066","129","261602.348541","268518.850135","269285.060473","255385.28484","256152.353751","256918.634889","257685.499127","258452.331212","262368.946273","263135.597491","263902.132769","264668.902092","265435.383574","266219.1735","266985.293249","267752.428014","268527.828216","Mapping"
"Blocked","m150","tile","14","m150gnash.wav","None","731.673835777","129","261602.348541","268518.850135","269285.060473","270052.022101","256152.353751","256918.634889","257685.499127","258452.331212","262368.946273","263135.597491","263902.132769","264668.902092","265435.383574","266219.1735","266985.293249","267752.428014","269293.71825","Mapping"
"Blocked","m150","tile","14","m150reek.wav","None","732.515714597","129","261602.348541","268518.850135","269285.060473","270052.022101","270818.544703","256918.634889","257685.499127","258452.331212","262368.946273","263135.597491","263902.132769","264668.902092","265435.383574","266219.1735","266985.293249","267752.428014","270061.708188","Mapping"
"Blocked","m150","tile","14","m150dime.wav","None","735.67453702","129","261602.348541","268518.850135","269285.060473","270052.022101","270818.544703","271601.876743","257685.499127","258452.331212","262368.946273","263135.597491","263902.132769","264668.902092","265435.383574","266219.1735","266985.293249","267752.428014","270827.879569","Mapping"
"Blocked","m150","tile","14","m150tile.wav","None","721.813684097","129","261602.348541","268518.850135","269285.060473","270052.022101","270818.544703","271601.876743","272369.218963","258452.331212","262368.946273","263135.597491","263902.132769","264668.902092","265435.383574","266219.1735","266985.293249","267752.428014","271610.691889","Mapping"
"Blocked","m150","tile","14","m150cad.wav","space","566.22938253","129","261602.348541","268518.850135","269285.060473","270052.022101","270818.544703","271601.876743","272369.218963","273135.267294","262368.946273","263135.597491","263902.132769","264668.902092","265435.383574","266219.1735","266985.293249","267752.428014","272378.622775","Mapping"
"Blocked","m150","tile","15","m150greet.wav","None","730.18609453","129","276268.609367","268518.850135","269285.060473","270052.022101","270818.544703","271601.876743","272369.218963","273135.267294","262368.946273","263135.597491","263902.132769","264668.902092","265435.383574","266219.1735","266985.293249","267752.428014","273139.557072","Mapping"
"Blocked","m150","tile","15","m150tile.wav","None","725.183053641","129","276268.609367","268518.850135","269285.060473","270052.022101","270818.544703","271601.876743","272369.218963","273135.267294","277035.343752","263135.597491","263902.132769","264668.902092","265435.383574","266219.1735","266985.293249","267752.428014","276277.367934","Mapping"
"Blocked","m150","tile","15","m150cave.wav","space","428.346792003","129","276268.609367","268518.850135","269285.060473","270052.022101","270818.544703","271601.876743","272369.218963","273135.267294","277035.343752","277801.503076","263902.132769","264668.902092","265435.383574","266219.1735","266985.293249","267752.428014","277044.425406","Mapping"
"Blocked","m150","tile","15","m150romp.wav","None","729.282690212","129","276268.609367","268518.850135","269285.060473","270052.022101","270818.544703","271601.876743","272369.218963","273135.267294","277035.343752","277801.503076","278568.631967","264668.902092","265435.383574","266219.1735","266985.293249","267752.428014","277810.178167","Mapping"
"Blocked","m150","tile","15","m150bluff.wav","None","730.371598387","129","276268.609367","268518.850135","269285.060473","270052.022101","270818.544703","271601.876743","272369.218963","273135.267294","277035.343752","277801.503076","278568.631967","279335.242375","265435.383574","266219.1735","266985.293249","267752.428014","278577.985384","Mapping"
"Blocked","m150","tile","15","m150tile.wav","None","732.848075684","129","276268.609367","268518.850135","269285.060473","270052.022101","270818.544703","271601.876743","272369.218963","273135.267294","277035.343752","277801.503076","278568.631967","279335.242375","280101.762194","266219.1735","266985.293249","267752.428014","279344.401322","Mapping"
"Blocked","m150","tile","15","m150reek.wav","space","577.940863091","129","276268.609367","268518.850135","269285.060473","270052.022101","270818.544703","271601.876743","272369.218963","273135.267294","277035.343752","277801.503076","278568.631967","279335.242375","280101.762194","280868.855221","266985.293249","267752.428014","280110.750169","Mapping"
"Blocked","m150","tile","15","m150cad.wav","None","736.192402197","129","276268.609367","268518.850135","269285.060473","270052.022101","270818.544703","271601.876743","272369.218963","273135.267294","277035.343752","277801.503076","278568.631967","279335.242375","280101.762194","280868.855221","281651.658884","267752.428014","280877.93131","Mapping"
"Blocked","m150","tile","15","m150tile.wav","None","722.66669292","129","276268.609367","268518.850135","269285.060473","270052.022101","270818.544703","271601.876743","272369.218963","273135.267294","277035.343752","277801.503076","278568.631967","279335.242375","280101.762194","280868.855221","281651.658884","282418.858576","281660.512677","Mapping"
"Blocked","m150","tile","15","m150knife.wav","None","723.610908026","129","276268.609367","283185.072314","269285.060473","270052.022101","270818.544703","271601.876743","272369.218963","273135.267294","277035.343752","277801.503076","278568.631967","279335.242375","280101.762194","280868.855221","281651.658884","282418.858576","282428.513127","Mapping"
"Blocked","m150","tile","15","m150romp.wav","space","0.0352459028363","129","276268.609367","283185.072314","283951.989112","270052.022101","270818.544703","271601.876743","272369.218963","273135.267294","277035.343752","277801.503076","278568.631967","279335.242375","280101.762194","280868.855221","281651.658884","282418.858576","283194.133253","Mapping"
"Blocked","m150","tile","15","m150jaw.wav","None","728.876436828","129","276268.609367","283185.072314","283951.989112","284718.501821","270818.544703","271601.876743","272369.218963","273135.267294","277035.343752","277801.503076","278568.631967","279335.242375","280101.762194","280868.855221","281651.658884","282418.858576","283961.17372","Mapping"
"Blocked","m150","tile","15","m150knife.wav","None","731.650029542","129","276268.609367","283185.072314","283951.989112","284718.501821","285485.085021","271601.876743","272369.218963","273135.267294","277035.343752","277801.503076","278568.631967","279335.242375","280101.762194","280868.855221","281651.658884","282418.858576","284727.385604","Mapping"
"Blocked","m150","tile","15","m150tile.wav","None","733.450963395","129","276268.609367","283185.072314","283951.989112","284718.501821","285485.085021","286251.582271","272369.218963","273135.267294","277035.343752","277801.503076","278568.631967","279335.242375","280101.762194","280868.855221","281651.658884","282418.858576","285494.641565","Mapping"
"Blocked","m150","tile","15","m150bluff.wav","space","540.317885811","129","276268.609367","283185.072314","283951.989112","284718.501821","285485.085021","286251.582271","287035.391365","273135.267294","277035.343752","277801.503076","278568.631967","279335.242375","280101.762194","280868.855221","281651.658884","282418.858576","286260.253033","Mapping"
"Blocked","m150","tile","15","m150depth.wav","None","720.526905265","129","276268.609367","283185.072314","283951.989112","284718.501821","285485.085021","286251.582271","287035.391365","287801.942102","277035.343752","277801.503076","278568.631967","279335.242375","280101.762194","280868.855221","281651.658884","282418.858576","287044.745091","Mapping"
"Blocked","m150","tile","16","m150greet.wav","None","722.757590003","129","290935.031581","283185.072314","283951.989112","284718.501821","285485.085021","286251.582271","287035.391365","287801.942102","277035.343752","277801.503076","278568.631967","279335.242375","280101.762194","280868.855221","281651.658884","282418.858576","287811.45969","Mapping"
"Blocked","m150","tile","16","m150bluff.wav","None","724.36529072","129","290935.031581","283185.072314","283951.989112","284718.501821","285485.085021","286251.582271","287035.391365","287801.942102","291701.562221","277801.503076","278568.631967","279335.242375","280101.762194","280868.855221","281651.658884","282418.858576","290944.767754","Mapping"
"Blocked","m150","tile","16","m150bluff.wav","None","727.622121107","129","290935.031581","283185.072314","283951.989112","284718.501821","285485.085021","286251.582271","287035.391365","287801.942102","291701.562221","292468.65061","278568.631967","279335.242375","280101.762194","280868.855221","281651.658884","282418.858576","291710.493307","Mapping"
"Blocked","m150","tile","16","m150gnash.wav","None","729.384408332","129","290935.031581","283185.072314","283951.989112","284718.501821","285485.085021","286251.582271","287035.391365","287801.942102","291701.562221","292468.65061","293234.997911","279335.242375","280101.762194","280868.855221","281651.658884","282418.858576","292477.799045","Mapping"
"Blocked","m150","tile","16","m150jaw.wav","None","731.873561861","129","290935.031581","283185.072314","283951.989112","284718.501821","285485.085021","286251.582271","287035.391365","287801.942102","291701.562221","292468.65061","293234.997911","294001.409211","280101.762194","280868.855221","281651.658884","282418.858576","293244.349473","Mapping"
"Blocked","m150","tile","16","m150cling.wav","None","735.00084877","129","290935.031581","283185.072314","283951.989112","284718.501821","285485.085021","286251.582271","287035.391365","287801.942102","291701.562221","292468.65061","293234.997911","294001.409211","294784.988281","280868.855221","281651.658884","282418.858576","294010.475097","Mapping"
"Blocked","m150","tile","16","m150reek.wav","None","720.586266601","129","290935.031581","283185.072314","283951.989112","284718.501821","285485.085021","286251.582271","287035.391365","287801.942102","291701.562221","292468.65061","293234.997911","294001.409211","294784.988281","295551.952382","281651.658884","282418.858576","294793.916893","Mapping"
"Blocked","m150","tile","16","m150cave.wav","None","722.369577503","129","290935.031581","283185.072314","283951.989112","284718.501821","285485.085021","286251.582271","287035.391365","287801.942102","291701.562221","292468.65061","293234.997911","294001.409211","294784.988281","295551.952382","296318.320707","282418.858576","295561.399169","Mapping"
"Blocked","m150","tile","16","m150tile.wav","None","725.598891731","129","290935.031581","283185.072314","283951.989112","284718.501821","285485.085021","286251.582271","287035.391365","287801.942102","291701.562221","292468.65061","293234.997911","294001.409211","294784.988281","295551.952382","296318.320707","297084.963578","296327.154404","Mapping"
"Blocked","m150","tile","16","m150greet.wav","space","474.080310203","129","290935.031581","297851.423727","283951.989112","284718.501821","285485.085021","286251.582271","287035.391365","287801.942102","291701.562221","292468.65061","293234.997911","294001.409211","294784.988281","295551.952382","296318.320707","297084.963578","297094.333999","Mapping"
"Blocked","m150","tile","16","m150tile.wav","None","728.828205727","129","290935.031581","297851.423727","298618.299096","284718.501821","285485.085021","286251.582271","287035.391365","287801.942102","291701.562221","292468.65061","293234.997911","294001.409211","294784.988281","295551.952382","296318.320707","297084.963578","297860.723657","Mapping"
"Blocked","m150","tile","16","m150done.wav","space","509.068822954","129","290935.031581","297851.423727","298618.299096","299384.505105","285485.085021","286251.582271","287035.391365","287801.942102","291701.562221","292468.65061","293234.997911","294001.409211","294784.988281","295551.952382","296318.320707","297084.963578","298627.296654","Mapping"
"Blocked","m150","tile","16","m150tile.wav","None","733.1578671","129","290935.031581","297851.423727","298618.299096","299384.505105","300151.296997","286251.582271","287035.391365","287801.942102","291701.562221","292468.65061","293234.997911","294001.409211","294784.988281","295551.952382","296318.320707","297084.963578","299393.316541","Mapping"
"Blocked","m150","tile","16","m150ball.wav","space","680.009139003","129","290935.031581","297851.423727","298618.299096","299384.505105","300151.296997","300934.283691","287035.391365","287801.942102","291701.562221","292468.65061","293234.997911","294001.409211","294784.988281","295551.952382","296318.320707","297084.963578","300160.334439","Mapping"
"Blocked","m150","tile","16","m150tile.wav","None","725.328674307","129","290935.031581","297851.423727","298618.299096","299384.505105","300151.296997","300934.283691","301701.14391","287801.942102","291701.562221","292468.65061","293234.997911","294001.409211","294784.988281","295551.952382","296318.320707","297084.963578","300942.940231","Mapping"
"Blocked","m150","tile","16","m150lash.wav","space","394.451206783","129","290935.031581","297851.423727","298618.299096","299384.505105","300151.296997","300934.283691","301701.14391","302467.81677","291701.562221","292468.65061","293234.997911","294001.409211","294784.988281","295551.952382","296318.320707","297084.963578","301709.907733","Mapping"
"Blocked","m150","cave","7","m150reek.wav","None","728.584886296","129","305601.516556","297851.423727","298618.299096","299384.505105","300151.296997","300934.283691","301701.14391","302467.81677","291701.562221","292468.65061","293234.997911","294001.409211","294784.988281","295551.952382","296318.320707","297084.963578","302476.660361","Mapping"
"Blocked","m150","cave","7","m150cave.wav","None","725.125856698","129","305601.516556","297851.423727","298618.299096","299384.505105","300151.296997","300934.283691","301701.14391","302467.81677","306368.16592","292468.65061","293234.997911","294001.409211","294784.988281","295551.952382","296318.320707","297084.963578","305610.607176","Mapping"
"Blocked","m150","cave","7","m150cling.wav","space","606.403038837","129","305601.516556","297851.423727","298618.299096","299384.505105","300151.296997","300934.283691","301701.14391","302467.81677","306368.16592","307134.467463","293234.997911","294001.409211","294784.988281","295551.952382","296318.320707","297084.963578","306377.837166","Mapping"
"Blocked","m150","cave","7","m150tile.wav","None","729.294748046","129","305601.516556","297851.423727","298618.299096","299384.505105","300151.296997","300934.283691","301701.14391","302467.81677","306368.16592","307134.467463","307901.013253","294001.409211","294784.988281","295551.952382","296318.320707","297084.963578","307143.222321","Mapping"
"Blocked","m150","cave","7","m150cave.wav","None","731.739689829","129","305601.516556","297851.423727","298618.299096","299384.505105","300151.296997","300934.283691","301701.14391","302467.81677","306368.16592","307134.467463","307901.013253","308668.084638","294784.988281","295551.952382","296318.320707","297084.963578","307909.658354","Mapping"
"Blocked","m150","cave","7","m150park.wav","space","619.165090146","129","305601.516556","297851.423727","298618.299096","299384.505105","300151.296997","300934.283691","301701.14391","302467.81677","306368.16592","307134.467463","307901.013253","308668.084638","309434.284463","295551.952382","296318.320707","297084.963578","308677.049424","Mapping"
"Blocked","m150","cave","7","m150dime.wav","None","735.411739908","129","305601.516556","297851.423727","298618.299096","299384.505105","300151.296997","300934.283691","301701.14391","302467.81677","306368.16592","307134.467463","307901.013253","308668.084638","309434.284463","310217.854876","296318.320707","297084.963578","309443.069929","Mapping"
"Blocked","m150","cave","7","m150jaw.wav","None","721.437111264","129","305601.516556","297851.423727","298618.299096","299384.505105","300151.296997","300934.283691","301701.14391","302467.81677","306368.16592","307134.467463","307901.013253","308668.084638","309434.284463","310217.854876","310984.436221","297084.963578","310226.674969","Mapping"
"Blocked","m150","cave","7","m150cave.wav","None","723.62265666","129","305601.516556","297851.423727","298618.299096","299384.505105","300151.296997","300934.283691","301701.14391","302467.81677","306368.16592","307134.467463","307901.013253","308668.084638","309434.284463","310217.854876","310984.436221","311751.376516","310993.480465","Mapping"
"Blocked","m150","cave","7","m150park.wav","space","663.655731827","129","305601.516556","312517.79029","298618.299096","299384.505105","300151.296997","300934.283691","301701.14391","302467.81677","306368.16592","307134.467463","307901.013253","308668.084638","309434.284463","310217.854876","310984.436221","311751.376516","311760.474247","Mapping"
"Blocked","m150","cave","7","m150cave.wav","None","727.108584484","129","305601.516556","312517.79029","313284.587747","299384.505105","300151.296997","300934.283691","301701.14391","302467.81677","306368.16592","307134.467463","307901.013253","308668.084638","309434.284463","310217.854876","310984.436221","311751.376516","312526.696024","Mapping"
"Blocked","m150","cave","7","m150cad.wav","space","673.915335443","129","305601.516556","312517.79029","313284.587747","314051.242057","300151.296997","300934.283691","301701.14391","302467.81677","306368.16592","307134.467463","307901.013253","308668.084638","309434.284463","310217.854876","310984.436221","311751.376516","313294.197777","Mapping"
"Blocked","m150","cave","7","m150park.wav","None","730.2698805","129","305601.516556","312517.79029","313284.587747","314051.242057","314818.019727","300934.283691","301701.14391","302467.81677","306368.16592","307134.467463","307901.013253","308668.084638","309434.284463","310217.854876","310984.436221","311751.376516","314060.315981","Mapping"
"Blocked","m150","cave","7","m150park.wav","None","734.294387978","129","305601.516556","312517.79029","313284.587747","314051.242057","314818.019727","315584.209659","301701.14391","302467.81677","306368.16592","307134.467463","307901.013253","308668.084638","309434.284463","310217.854876","310984.436221","311751.376516","314826.219309","Mapping"
"Blocked","m150","cave","7","m150done.wav","None","736.096249195","129","305601.516556","312517.79029","313284.587747","314051.242057","314818.019727","315584.209659","316368.398109","302467.81677","306368.16592","307134.467463","307901.013253","308668.084638","309434.284463","310217.854876","310984.436221","311751.376516","315593.350365","Mapping"
"Blocked","m150","cave","7","m150greet.wav","None","720.032846555","129","305601.516556","312517.79029","313284.587747","314051.242057","314818.019727","315584.209659","316368.398109","317134.798588","306368.16592","307134.467463","307901.013253","308668.084638","309434.284463","310217.854876","310984.436221","311751.376516","316378.302472","Mapping"
"Blocked","m150","cave","11","m150park.wav","None","722.881568596","129","320267.890539","312517.79029","313284.587747","314051.242057","314818.019727","315584.209659","316368.398109","317134.798588","306368.16592","307134.467463","307901.013253","308668.084638","309434.284463","310217.854876","310984.436221","311751.376516","317144.487457","Mapping"
"Blocked","m150","cave","11","m150cave.wav","None","726.053994615","129","320267.890539","312517.79029","313284.587747","314051.242057","314818.019727","315584.209659","316368.398109","317134.798588","321034.502492","307134.467463","307901.013253","308668.084638","309434.284463","310217.854876","310984.436221","311751.376516","320276.812968","Mapping"
"Blocked","m150","cave","11","m150reek.wav","space","572.094088653","129","320267.890539","312517.79029","313284.587747","314051.242057","314818.019727","315584.209659","316368.398109","317134.798588","321034.502492","321800.719631","307901.013253","308668.084638","309434.284463","310217.854876","310984.436221","311751.376516","321043.891155","Mapping"
"Blocked","m150","cave","11","m150cave.wav","None","730.270498665","129","320267.890539","312517.79029","313284.587747","314051.242057","314818.019727","315584.209659","316368.398109","317134.798588","321034.502492","321800.719631","322567.834919","308668.084638","309434.284463","310217.854876","310984.436221","311751.376516","321809.59754","Mapping"
"Blocked","m150","cave","11","m150jaw.wav","space","383.368893294","129","320267.890539","312517.79029","313284.587747","314051.242057","314818.019727","315584.209659","316368.398109","317134.798588","321034.502492","321800.719631","322567.834919","323334.402969","309434.284463","310217.854876","310984.436221","311751.376516","322576.596269","Mapping"
"Blocked","m150","cave","11","m150jaw.wav","None","733.012865065","129","320267.890539","312517.79029","313284.587747","314051.242057","314818.019727","315584.209659","316368.398109","317134.798588","321034.502492","321800.719631","322567.834919","323334.402969","324100.442643","310217.854876","310984.436221","311751.376516","323343.957967","Mapping"
"Blocked","m150","cave","11","m150knife.wav","None","737.094569718","129","320267.890539","312517.79029","313284.587747","314051.242057","314818.019727","315584.209659","316368.398109","317134.798588","321034.502492","321800.719631","322567.834919","323334.402969","324100.442643","324884.817215","310984.436221","311751.376516","324109.094855","Mapping"
"Blocked","m150","cave","11","m150cave.wav","None","720.938724","129","320267.890539","312517.79029","313284.587747","314051.242057","314818.019727","315584.209659","316368.398109","317134.798588","321034.502492","321800.719631","322567.834919","323334.402969","324100.442643","324884.817215","325650.668912","311751.376516","324894.595127","Mapping"
"Blocked","m150","cave","11","m150ball.wav","space","620.565644698","129","320267.890539","312517.79029","313284.587747","314051.242057","314818.019727","315584.209659","316368.398109","317134.798588","321034.502492","321800.719631","322567.834919","323334.402969","324100.442643","324884.817215","325650.668912","326417.729475","325659.314013","Mapping"
"Blocked","m150","cave","11","m150done.wav","None","725.268694572","129","320267.890539","327184.400172","313284.587747","314051.242057","314818.019727","315584.209659","316368.398109","317134.798588","321034.502492","321800.719631","322567.834919","323334.402969","324100.442643","324884.817215","325650.668912","326417.729475","326427.091858","Mapping"
"Blocked","m150","cave","11","m150romp.wav","None","728.24232257","129","320267.890539","327184.400172","327950.996975","314051.242057","314818.019727","315584.209659","316368.398109","317134.798588","321034.502492","321800.719631","322567.834919","323334.402969","324100.442643","324884.817215","325650.668912","326417.729475","327193.46142","Mapping"
"Blocked","m150","cave","11","m150romp.wav","None","731.075276621","129","320267.890539","327184.400172","327950.996975","328717.715902","314818.019727","315584.209659","316368.398109","317134.798588","321034.502492","321800.719631","322567.834919","323334.402969","324100.442643","324884.817215","325650.668912","326417.729475","327959.934554","Mapping"
"Blocked","m150","cave","11","m150greet.wav","None","733.720253222","129","320267.890539","327184.400172","327950.996975","328717.715902","329484.316416","315584.209659","316368.398109","317134.798588","321034.502492","321800.719631","322567.834919","323334.402969","324100.442643","324884.817215","325650.668912","326417.729475","328726.648535","Mapping"
"Blocked","m150","cave","11","m150cave.wav","None","735.540974187","129","320267.890539","327184.400172","327950.996975","328717.715902","329484.316416","330267.69947","316368.398109","317134.798588","321034.502492","321800.719631","322567.834919","323334.402969","324100.442643","324884.817215","325650.668912","326417.729475","329493.981171","Mapping"
"Blocked","m150","cave","11","m150ball.wav","space","635.340413544","129","320267.890539","327184.400172","327950.996975","328717.715902","329484.316416","330267.69947","331034.455498","317134.798588","321034.502492","321800.719631","322567.834919","323334.402969","324100.442643","324884.817215","325650.668912","326417.729475","330276.447526","Mapping"
"Blocked","m150","cave","11","m150tile.wav","None","723.346874118","129","320267.890539","327184.400172","327950.996975","328717.715902","329484.316416","330267.69947","331034.455498","331800.892459","321034.502492","321800.719631","322567.834919","323334.402969","324100.442643","324884.817215","325650.668912","326417.729475","331043.520456","Mapping"
"Blocked","m150","cave","8","m150ball.wav","None","726.286492776","129","334934.185064","327184.400172","327950.996975","328717.715902","329484.316416","330267.69947","331034.455498","331800.892459","321034.502492","321800.719631","322567.834919","323334.402969","324100.442643","324884.817215","325650.668912","326417.729475","331809.816744","Mapping"
"Blocked","m150","cave","8","m150cave.wav","None","725.353717338","129","334934.185064","327184.400172","327950.996975","328717.715902","329484.316416","330267.69947","331034.455498","331800.892459","335700.815259","321800.719631","322567.834919","323334.402969","324100.442643","324884.817215","325650.668912","326417.729475","334943.216013","Mapping"
"Blocked","m150","cave","8","m150romp.wav","space","561.492539942","129","334934.185064","327184.400172","327950.996975","328717.715902","329484.316416","330267.69947","331034.455498","331800.892459","335700.815259","336467.214501","322567.834919","323334.402969","324100.442643","324884.817215","325650.668912","326417.729475","335710.234839","Mapping"
"Blocked","m150","cave","8","m150romp.wav","None","728.930232814","129","334934.185064","327184.400172","327950.996975","328717.715902","329484.316416","330267.69947","331034.455498","331800.892459","335700.815259","336467.214501","337233.832638","323334.402969","324100.442643","324884.817215","325650.668912","326417.729475","336476.545039","Mapping"
"Blocked","m150","cave","8","m150jolt.wav","None","732.414305676","129","334934.185064","327184.400172","327950.996975","328717.715902","329484.316416","330267.69947","331034.455498","331800.892459","335700.815259","336467.214501","337233.832638","338000.343182","324100.442643","324884.817215","325650.668912","326417.729475","337242.533081","Mapping"
"Blocked","m150","cave","8","m150jaw.wav","None","735.362890642","129","334934.185064","327184.400172","327950.996975","328717.715902","329484.316416","330267.69947","331034.455498","331800.892459","335700.815259","336467.214501","337233.832638","338000.343182","338783.939565","324884.817215","325650.668912","326417.729475","338009.079798","Mapping"
"Blocked","m150","cave","8","m150tile.wav","None","720.897294814","129","334934.185064","327184.400172","327950.996975","328717.715902","329484.316416","330267.69947","331034.455498","331800.892459","335700.815259","336467.214501","337233.832638","338000.343182","338783.939565","339551.036611","325650.668912","326417.729475","338792.82242","Mapping"
"Blocked","m150","cave","8","m150cave.wav","None","722.938456107","129","334934.185064","327184.400172","327950.996975","328717.715902","329484.316416","330267.69947","331034.455498","331800.892459","335700.815259","336467.214501","337233.832638","338000.343182","338783.939565","339551.036611","340317.528915","326417.729475","339560.478761","Mapping"
"Blocked","m150","cave","8","m150reek.wav","space","488.886923995","129","334934.185064","327184.400172","327950.996975","328717.715902","329484.316416","330267.69947","331034.455498","331800.892459","335700.815259","336467.214501","337233.832638","338000.343182","338783.939565","339551.036611","340317.528915","341084.0577","340326.750624","Mapping"
"Blocked","m150","cave","8","m150depth.wav","None","727.301199455","129","334934.185064","341850.646775","327950.996975","328717.715902","329484.316416","330267.69947","331034.455498","331800.892459","335700.815259","336467.214501","337233.832638","338000.343182","338783.939565","339551.036611","340317.528915","341084.0577","341093.196242","Mapping"
"Blocked","m150","cave","8","m150cave.wav","None","730.199079728","129","334934.185064","341850.646775","342617.520907","328717.715902","329484.316416","330267.69947","331034.455498","331800.892459","335700.815259","336467.214501","337233.832638","338000.343182","338783.939565","339551.036611","340317.528915","341084.0577","341859.584663","Mapping"
"Blocked","m150","cave","8","m150jolt.wav","space","661.025286419","129","334934.185064","341850.646775","342617.520907","343384.09545","329484.316416","330267.69947","331034.455498","331800.892459","335700.815259","336467.214501","337233.832638","338000.343182","338783.939565","339551.036611","340317.528915","341084.0577","342626.596068","Mapping"
"Blocked","m150","cave","8","m150reek.wav","None","733.001425629","129","334934.185064","341850.646775","342617.520907","343384.09545","344151.485902","330267.69947","331034.455498","331800.892459","335700.815259","336467.214501","337233.832638","338000.343182","338783.939565","339551.036611","340317.528915","341084.0577","343393.841517","Mapping"
"Blocked","m150","cave","8","m150jaw.wav","None","735.521187074","129","334934.185064","341850.646775","342617.520907","343384.09545","344151.485902","344934.364694","331034.455498","331800.892459","335700.815259","336467.214501","337233.832638","338000.343182","338783.939565","339551.036611","340317.528915","341084.0577","344160.529836","Mapping"
"Blocked","m150","cave","8","m150cave.wav","None","720.810107887","129","334934.185064","341850.646775","342617.520907","343384.09545","344151.485902","344934.364694","345700.732709","331800.892459","335700.815259","336467.214501","337233.832638","338000.343182","338783.939565","339551.036611","340317.528915","341084.0577","344944.437866","Mapping"
"Blocked","m150","cave","8","m150done.wav","space","553.764755838","129","334934.185064","341850.646775","342617.520907","343384.09545","344151.485902","344934.364694","345700.732709","346467.40928","335700.815259","336467.214501","337233.832638","338000.343182","338783.939565","339551.036611","340317.528915","341084.0577","345709.797977","Mapping"
"Blocked","m150","done","23","m150reek.wav","None","726.662447443","129","349601.110921","341850.646775","342617.520907","343384.09545","344151.485902","344934.364694","345700.732709","346467.40928","335700.815259","336467.214501","337233.832638","338000.343182","338783.939565","339551.036611","340317.528915","341084.0577","346476.311922","Mapping"
"Blocked","m150","done","23","m150greet.wav","None","723.411182174","129","349601.110921","341850.646775","342617.520907","343384.09545","344151.485902","344934.364694","345700.732709","346467.40928","350367.371963","336467.214501","337233.832638","338000.343182","338783.939565","339551.036611","340317.528915","341084.0577","349610.562037","Mapping"
"Blocked","m150","done","23","m150done.wav","None","726.408616407","129","349601.110921","341850.646775","342617.520907","343384.09545","344151.485902","344934.364694","345700.732709","346467.40928","350367.371963","351134.043277","337233.832638","338000.343182","338783.939565","339551.036611","340317.528915","341084.0577","350376.869454","Mapping"
"Blocked","m150","done","23","m150greet.wav","space","672.268988099","129","349601.110921","341850.646775","342617.520907","343384.09545","344151.485902","344934.364694","345700.732709","346467.40928","350367.371963","351134.043277","351900.58072","338000.343182","338783.939565","339551.036611","340317.528915","341084.0577","351143.199442","Mapping"
"Blocked","m150","done","23","m150reek.wav","None","731.120415963","129","349601.110921","341850.646775","342617.520907","343384.09545","344151.485902","344934.364694","345700.732709","346467.40928","350367.371963","351134.043277","351900.58072","352667.35839","338783.939565","339551.036611","340317.528915","341084.0577","351909.43575","Mapping"
"Blocked","m150","done","23","m150done.wav","None","732.949175173","129","349601.110921","341850.646775","342617.520907","343384.09545","344151.485902","344934.364694","345700.732709","346467.40928","350367.371963","351134.043277","351900.58072","352667.35839","353433.900161","339551.036611","340317.528915","341084.0577","352676.766221","Mapping"
"Blocked","m150","done","23","m150jolt.wav","space","476.056545274","129","349601.110921","341850.646775","342617.520907","343384.09545","344151.485902","344934.364694","345700.732709","346467.40928","350367.371963","351134.043277","351900.58072","352667.35839","353433.900161","354217.579712","340317.528915","341084.0577","353443.333654","Mapping"
"Blocked","m150","done","23","m150cad.wav","None","719.635559013","129","349601.110921","341850.646775","342617.520907","343384.09545","344151.485902","344934.364694","345700.732709","346467.40928","350367.371963","351134.043277","351900.58072","352667.35839","353433.900161","354217.579712","354984.275451","341084.0577","354227.798813","Mapping"
"Blocked","m150","done","23","m150done.wav","None","722.779232077","129","349601.110921","341850.646775","342617.520907","343384.09545","344151.485902","344934.364694","345700.732709","346467.40928","350367.371963","351134.043277","351900.58072","352667.35839","353433.900161","354217.579712","354984.275451","355750.192074","354993.769851","Mapping"
"Blocked","m150","done","23","m150gnash.wav","space","408.309277147","129","349601.110921","356517.249855","342617.520907","343384.09545","344151.485902","344934.364694","345700.732709","346467.40928","350367.371963","351134.043277","351900.58072","352667.35839","353433.900161","354217.579712","354984.275451","355750.192074","355759.041538","Mapping"
"Blocked","m150","done","23","m150cling.wav","None","727.587184403","129","349601.110921","356517.249855","357283.601175","343384.09545","344151.485902","344934.364694","345700.732709","346467.40928","350367.371963","351134.043277","351900.58072","352667.35839","353433.900161","354217.579712","354984.275451","355750.192074","356526.154971","Mapping"
"Blocked","m150","done","23","m150jaw.wav","None","730.76115665","129","349601.110921","356517.249855","357283.601175","358050.610416","344151.485902","344934.364694","345700.732709","346467.40928","350367.371963","351134.043277","351900.58072","352667.35839","353433.900161","354217.579712","354984.275451","355750.192074","357292.694886","Mapping"
"Blocked","m150","done","23","m150cling.wav","None","732.926914934","129","349601.110921","356517.249855","357283.601175","358050.610416","358817.410965","344934.364694","345700.732709","346467.40928","350367.371963","351134.043277","351900.58072","352667.35839","353433.900161","354217.579712","354984.275451","355750.192074","358059.668572","Mapping"
"Blocked","m150","done","23","m150romp.wav","None","735.824486008","129","349601.110921","356517.249855","357283.601175","358050.610416","358817.410965","359600.883988","345700.732709","346467.40928","350367.371963","351134.043277","351900.58072","352667.35839","353433.900161","354217.579712","354984.275451","355750.192074","358826.295675","Mapping"
"Blocked","m150","done","23","m150done.wav","None","721.242022933","129","349601.110921","356517.249855","357283.601175","358050.610416","358817.410965","359600.883988","360367.161107","346467.40928","350367.371963","351134.043277","351900.58072","352667.35839","353433.900161","354217.579712","354984.275451","355750.192074","359610.318408","Mapping"
"Blocked","m150","done","23","m150ball.wav","space","526.63326147","129","349601.110921","356517.249855","357283.601175","358050.610416","358817.410965","359600.883988","360367.161107","361133.788828","350367.371963","351134.043277","351900.58072","352667.35839","353433.900161","354217.579712","354984.275451","355750.192074","360376.639739","Mapping"
"Blocked","m150","cave","9","m150bluff.wav","None","726.093568839","129","364267.115751","356517.249855","357283.601175","358050.610416","358817.410965","359600.883988","360367.161107","361133.788828","350367.371963","351134.043277","351900.58072","352667.35839","353433.900161","354217.579712","354984.275451","355750.192074","361143.132042","Mapping"
"Blocked","m150","cave","9","m150tile.wav","None","726.234551752","129","364267.115751","356517.249855","357283.601175","358050.610416","358817.410965","359600.883988","360367.161107","361133.788828","365033.335363","351134.043277","351900.58072","352667.35839","353433.900161","354217.579712","354984.275451","355750.192074","364276.070953","Mapping"
"Blocked","m150","cave","9","m150tile.wav","None","729.668229353","129","364267.115751","356517.249855","357283.601175","358050.610416","358817.410965","359600.883988","360367.161107","361133.788828","365033.335363","365799.972051","351900.58072","352667.35839","353433.900161","354217.579712","354984.275451","355750.192074","365042.044463","Mapping"
"Blocked","m150","cave","9","m150cave.wav","None","732.185517671","129","364267.115751","356517.249855","357283.601175","358050.610416","358817.410965","359600.883988","360367.161107","361133.788828","365033.335363","365799.972051","366567.010972","352667.35839","353433.900161","354217.579712","354984.275451","355750.192074","365808.903137","Mapping"
"Blocked","m150","cave","9","m150lash.wav","space","615.09389733","129","364267.115751","356517.249855","357283.601175","358050.610416","358817.410965","359600.883988","360367.161107","361133.788828","365033.335363","365799.972051","366567.010972","367333.659717","353433.900161","354217.579712","354984.275451","355750.192074","366576.051197","Mapping"
"Blocked","m150","cave","9","m150done.wav","None","735.269829398","129","364267.115751","356517.249855","357283.601175","358050.610416","358817.410965","359600.883988","360367.161107","361133.788828","365033.335363","365799.972051","366567.010972","367333.659717","368116.833769","354217.579712","354984.275451","355750.192074","367343.099393","Mapping"
"Blocked","m150","cave","9","m150priest.wav","None","721.936426125","129","364267.115751","356517.249855","357283.601175","358050.610416","358817.410965","359600.883988","360367.161107","361133.788828","365033.335363","365799.972051","366567.010972","367333.659717","368116.833769","368883.576194","354984.275451","355750.192074","368125.773513","Mapping"
"Blocked","m150","cave","9","m150cave.wav","None","724.860585993","129","364267.115751","356517.249855","357283.601175","358050.610416","358817.410965","359600.883988","360367.161107","361133.788828","365033.335363","365799.972051","366567.010972","367333.659717","368116.833769","368883.576194","369650.231431","355750.192074","368892.643316","Mapping"
"Blocked","m150","cave","9","m150ball.wav","space","507.176682819","129","364267.115751","356517.249855","357283.601175","358050.610416","358817.410965","359600.883988","360367.161107","361133.788828","365033.335363","365799.972051","366567.010972","367333.659717","368116.833769","368883.576194","369650.231431","370416.920369","369659.892476","Mapping"
"Blocked","m150","cave","9","m150depth.wav","None","729.221473914","129","364267.115751","371183.166261","357283.601175","358050.610416","358817.410965","359600.883988","360367.161107","361133.788828","365033.335363","365799.972051","366567.010972","367333.659717","368116.833769","368883.576194","369650.231431","370416.920369","370425.751901","Mapping"
"Blocked","m150","cave","9","m150cave.wav","None","732.513550203","129","364267.115751","371183.166261","371950.19498","358050.610416","358817.410965","359600.883988","360367.161107","361133.788828","365033.335363","365799.972051","366567.010972","367333.659717","368116.833769","368883.576194","369650.231431","370416.920369","371191.934104","Mapping"
"Blocked","m150","cave","9","m150gnash.wav","space","599.905454786","129","364267.115751","371183.166261","371950.19498","372716.422322","358817.410965","359600.883988","360367.161107","361133.788828","365033.335363","365799.972051","366567.010972","367333.659717","368116.833769","368883.576194","369650.231431","370416.920369","371959.157911","Mapping"
"Blocked","m150","cave","9","m150priest.wav","None","736.320399912","129","364267.115751","371183.166261","371950.19498","372716.422322","373500.036019","359600.883988","360367.161107","361133.788828","365033.335363","365799.972051","366567.010972","367333.659717","368116.833769","368883.576194","369650.231431","370416.920369","372725.397929","Mapping"
"Blocked","m150","cave","9","m150jaw.wav","None","722.473768983","129","364267.115751","371183.166261","371950.19498","372716.422322","373500.036019","374267.294144","360367.161107","361133.788828","365033.335363","365799.972051","366567.010972","367333.659717","368116.833769","368883.576194","369650.231431","370416.920369","373508.89043","Mapping"
"Blocked","m150","cave","9","m150cave.wav","None","723.580918275","129","364267.115751","371183.166261","371950.19498","372716.422322","373500.036019","374267.294144","375033.198091","361133.788828","365033.335363","365799.972051","366567.010972","367333.659717","368116.833769","368883.576194","369650.231431","370416.920369","374277.024134","Mapping"
"Blocked","m150","cave","9","m150ball.wav","space","485.085021239","129","364267.115751","371183.166261","371950.19498","372716.422322","373500.036019","374267.294144","375033.198091","375799.652675","365033.335363","365799.972051","366567.010972","367333.659717","368116.833769","368883.576194","369650.231431","370416.920369","375041.943673","Mapping"
"Blocked","m150","done","24","m150gnash.wav","None","730.972631136","129","378933.456961","371183.166261","371950.19498","372716.422322","373500.036019","374267.294144","375033.198091","375799.652675","365033.335363","365799.972051","366567.010972","367333.659717","368116.833769","368883.576194","369650.231431","370416.920369","375808.609422","Mapping"
"Blocked","m150","done","24","m150jolt.wav","None","724.789785454","129","378933.456961","371183.166261","371950.19498","372716.422322","373500.036019","374267.294144","375033.198091","375799.652675","379699.752012","365799.972051","366567.010972","367333.659717","368116.833769","368883.576194","369650.231431","370416.920369","378942.864483","Mapping"
"Blocked","m150","done","24","m150greet.wav","None","728.717830731","129","378933.456961","371183.166261","371950.19498","372716.422322","373500.036019","374267.294144","375033.198091","375799.652675","379699.752012","380467.080011","366567.010972","367333.659717","368116.833769","368883.576194","369650.231431","370416.920369","379708.518927","Mapping"
"Blocked","m150","done","24","m150jaw.wav","None","730.356449028","129","378933.456961","371183.166261","371950.19498","372716.422322","373500.036019","374267.294144","375033.198091","375799.652675","379699.752012","380467.080011","381233.309207","367333.659717","368116.833769","368883.576194","369650.231431","370416.920369","380476.199383","Mapping"
"Blocked","m150","done","24","m150done.wav","None","733.167142607","129","378933.456961","371183.166261","371950.19498","372716.422322","373500.036019","374267.294144","375033.198091","375799.652675","379699.752012","380467.080011","381233.309207","382017.30968","368116.833769","368883.576194","369650.231431","370416.920369","381242.858949","Mapping"
"Blocked","m150","done","24","m150tile.wav","space","540.051687742","129","378933.456961","371183.166261","371950.19498","372716.422322","373500.036019","374267.294144","375033.198091","375799.652675","379699.752012","380467.080011","381233.309207","382017.30968","382783.722526","368883.576194","369650.231431","370416.920369","382026.851692","Mapping"
"Blocked","m150","done","24","m150knife.wav","None","720.354695804","129","378933.456961","371183.166261","371950.19498","372716.422322","373500.036019","374267.294144","375033.198091","375799.652675","379699.752012","380467.080011","381233.309207","382017.30968","382783.722526","383549.896999","369650.231431","370416.920369","382793.133758","Mapping"
"Blocked","m150","done","24","m150depth.wav","None","724.825958721","129","378933.456961","371183.166261","371950.19498","372716.422322","373500.036019","374267.294144","375033.198091","375799.652675","379699.752012","380467.080011","381233.309207","382017.30968","382783.722526","383549.896999","384316.256358","370416.920369","383558.706271","Mapping"
"Blocked","m150","done","24","m150done.wav","None","727.958810749","129","378933.456961","371183.166261","371950.19498","372716.422322","373500.036019","374267.294144","375033.198091","375799.652675","379699.752012","380467.080011","381233.309207","382017.30968","382783.722526","383549.896999","384316.256358","385083.320013","384324.966694","Mapping"
"Blocked","m150","done","24","m150priest.wav","space","545.798599022","129","378933.456961","385850.105103","371950.19498","372716.422322","373500.036019","374267.294144","375033.198091","375799.652675","379699.752012","380467.080011","381233.309207","382017.30968","382783.722526","383549.896999","384316.256358","385083.320013","385093.035781","Mapping"
"Blocked","m150","done","24","m150done.wav","None","730.928110192","129","378933.456961","385850.105103","386616.53248","372716.422322","373500.036019","374267.294144","375033.198091","375799.652675","379699.752012","380467.080011","381233.309207","382017.30968","382783.722526","383549.896999","384316.256358","385083.320013","385859.171916","Mapping"
"Blocked","m150","done","24","m150depth.wav","space","637.380956672","129","378933.456961","385850.105103","386616.53248","387383.125883","373500.036019","374267.294144","375033.198091","375799.652675","379699.752012","380467.080011","381233.309207","382017.30968","382783.722526","383549.896999","384316.256358","385083.320013","386625.455219","Mapping"
"Blocked","m150","done","24","m150done.wav","None","735.370310722","129","378933.456961","385850.105103","386616.53248","387383.125883","388166.999285","374267.294144","375033.198091","375799.652675","379699.752012","380467.080011","381233.309207","382017.30968","382783.722526","383549.896999","384316.256358","385083.320013","387392.167653","Mapping"
