"Condition","Talker","Target","Trial","current_stimulus","response_response","response_time_response","subject_nr","time_Audio1","time_Audio10","time_Audio11","time_Audio12","time_Audio13","time_Audio14","time_Audio15","time_Audio16","time_Audio2","time_Audio3","time_Audio4","time_Audio5","time_Audio6","time_Audio7","time_Audio8","time_Audio9","time_response","title"
"Mixed","Both","tile","29","m160done.wav","NA","NA","111","252056.613189","NA","NA","NA","NA","NA","NA","NA","NA","NA","NA","NA","NA","NA","NA","NA","NA","Mapping"
"Mixed","Both","tile","29","m150tile.wav","space","364.983491658","111","252056.613189","NA","NA","NA","NA","NA","NA","NA","252805.911595","NA","NA","NA","NA","NA","NA","NA","252070.895798","Mapping"
"Mixed","Both","tile","29","m150jaw.wav","None","734.344889352","111","252056.613189","NA","NA","NA","NA","NA","NA","NA","252805.911595","253572.546324","NA","NA","NA","NA","NA","NA","252815.759411","Mapping"
"Mixed","Both","tile","29","m160tile.wav","None","731.594785175","111","252056.613189","NA","NA","NA","NA","NA","NA","NA","252805.911595","253572.546324","254339.57154","NA","NA","NA","NA","NA","253582.242644","Mapping"
"Mixed","Both","tile","29","m160ball.wav","space","310.744760325","111","252056.613189","NA","NA","NA","NA","NA","NA","NA","252805.911595","253572.546324","254339.57154","255106.023238","NA","NA","NA","NA","254349.138007","Mapping"
"Mixed","Both","tile","29","m150priest.wav","None","726.308834681","111","252056.613189","NA","NA","NA","NA","NA","NA","NA","252805.911595","253572.546324","254339.57154","255106.023238","255873.129767","NA","NA","NA","255115.243739","Mapping"
"Mixed","Both","tile","29","m150priest.wav","None","722.546494391","111","252056.613189","NA","NA","NA","NA","NA","NA","NA","252805.911595","253572.546324","254339.57154","255106.023238","255873.129767","256639.480056","NA","NA","255882.703654","Mapping"
"Mixed","Both","tile","29","m160ball.wav","None","719.787733397","111","252056.613189","NA","NA","NA","NA","NA","NA","NA","252805.911595","253572.546324","254339.57154","255106.023238","255873.129767","256639.480056","257389.174823","NA","256649.188433","Mapping"
"Mixed","Both","tile","29","m150jaw.wav","None","734.326338861","111","252056.613189","NA","NA","NA","NA","NA","NA","NA","252805.911595","253572.546324","254339.57154","255106.023238","255873.129767","256639.480056","257389.174823","258155.961357","257398.601543","Mapping"
"Mixed","Both","tile","29","m160jolt.wav","None","731.628176","111","252056.613189","258922.869087","NA","NA","NA","NA","NA","NA","252805.911595","253572.546324","254339.57154","255106.023238","255873.129767","256639.480056","257389.174823","258155.961357","258165.043657","Mapping"
"Mixed","Both","tile","29","m150tile.wav","None","728.625476593","111","252056.613189","258922.869087","259689.38602","NA","NA","NA","NA","NA","252805.911595","253572.546324","254339.57154","255106.023238","255873.129767","256639.480056","257389.174823","258155.961357","258932.131326","Mapping"
"Mixed","Both","tile","29","m160gnash.wav","space","433.172160818","111","252056.613189","258922.869087","259689.38602","260456.582828","NA","NA","NA","NA","252805.911595","253572.546324","254339.57154","255106.023238","255873.129767","256639.480056","257389.174823","258155.961357","259698.638675","Mapping"
"Mixed","Both","tile","29","m150park.wav","None","721.275479416","111","252056.613189","258922.869087","259689.38602","260456.582828","261223.036381","NA","NA","NA","252805.911595","253572.546324","254339.57154","255106.023238","255873.129767","256639.480056","257389.174823","258155.961357","260466.811546","Mapping"
"Mixed","Both","tile","29","m160tile.wav","None","719.917277398","111","252056.613189","258922.869087","259689.38602","260456.582828","261223.036381","261972.62572","NA","NA","252805.911595","253572.546324","254339.57154","255106.023238","255873.129767","256639.480056","257389.174823","258155.961357","261232.335412","Mapping"
"Mixed","Both","tile","29","m160lash.wav","space","486.289826687","111","252056.613189","258922.869087","259689.38602","260456.582828","261223.036381","261972.62572","262739.369279","NA","252805.911595","253572.546324","254339.57154","255106.023238","255873.129767","256639.480056","257389.174823","258155.961357","261981.497473","Mapping"
"Mixed","Both","tile","29","m150cave.wav","None","731.194095511","111","252056.613189","258922.869087","259689.38602","260456.582828","261223.036381","261972.62572","262739.369279","263506.252893","252805.911595","253572.546324","254339.57154","255106.023238","255873.129767","256639.480056","257389.174823","258155.961357","262748.417569","Mapping"
"Mixed","Both","done","40","m150tile.wav","None","727.107122366","111","266789.862983","258922.869087","259689.38602","260456.582828","261223.036381","261972.62572","262739.369279","263506.252893","252805.911595","253572.546324","254339.57154","255106.023238","255873.129767","256639.480056","257389.174823","258155.961357","263516.195006","Mapping"
"Mixed","Both","done","40","m150done.wav","None","721.838176367","111","266789.862983","258922.869087","259689.38602","260456.582828","261223.036381","261972.62572","262739.369279","263506.252893","267540.071289","253572.546324","254339.57154","255106.023238","255873.129767","256639.480056","257389.174823","258155.961357","266799.510454","Mapping"
"Mixed","Both","done","40","m150greet.wav","space","414.202780521","111","266789.862983","258922.869087","259689.38602","260456.582828","261223.036381","261972.62572","262739.369279","263506.252893","267540.071289","268306.112095","254339.57154","255106.023238","255873.129767","256639.480056","257389.174823","258155.961357","267549.510067","Mapping"
"Mixed","Both","done","40","m150priest.wav","None","732.978030399","111","266789.862983","258922.869087","259689.38602","260456.582828","261223.036381","261972.62572","262739.369279","263506.252893","267540.071289","268306.112095","269072.842049","255106.023238","255873.129767","256639.480056","257389.174823","258155.961357","268315.598485","Mapping"
"Mixed","Both","done","40","m150romp.wav","None","730.584404024","111","266789.862983","258922.869087","259689.38602","260456.582828","261223.036381","261972.62572","262739.369279","263506.252893","267540.071289","268306.112095","269072.842049","269839.250154","255873.129767","256639.480056","257389.174823","258155.961357","269081.6733","Mapping"
"Mixed","Both","done","40","m160done.wav","None","733.420767763","111","266789.862983","258922.869087","259689.38602","260456.582828","261223.036381","261972.62572","262739.369279","263506.252893","267540.071289","268306.112095","269072.842049","269839.250154","270606.393165","256639.480056","257389.174823","258155.961357","269842.609022","Mapping"
"Mixed","Both","done","40","m150jaw.wav","space","339.304413821","111","266789.862983","258922.869087","259689.38602","260456.582828","261223.036381","261972.62572","262739.369279","263506.252893","267540.071289","268306.112095","269072.842049","269839.250154","270606.393165","271372.960494","257389.174823","258155.961357","270616.329404","Mapping"
"Mixed","Both","done","40","m160romp.wav","None","720.561596332","111","266789.862983","258922.869087","259689.38602","260456.582828","261223.036381","261972.62572","262739.369279","263506.252893","267540.071289","268306.112095","269072.842049","269839.250154","270606.393165","271372.960494","272122.567456","258155.961357","271382.831806","Mapping"
"Mixed","Both","done","40","m150done.wav","None","735.320333799","111","266789.862983","258922.869087","259689.38602","260456.582828","261223.036381","261972.62572","262739.369279","263506.252893","267540.071289","268306.112095","269072.842049","269839.250154","270606.393165","271372.960494","272122.567456","272889.283189","272131.699533","Mapping"
"Mixed","Both","done","40","m160reek.wav","space","465.11943551","111","266789.862983","273655.794867","259689.38602","260456.582828","261223.036381","261972.62572","262739.369279","263506.252893","267540.071289","268306.112095","269072.842049","269839.250154","270606.393165","271372.960494","272122.567456","272889.283189","272898.498434","Mapping"
"Mixed","Both","done","40","m160park.wav","None","729.877631937","111","266789.862983","273655.794867","274422.392186","260456.582828","261223.036381","261972.62572","262739.369279","263506.252893","267540.071289","268306.112095","269072.842049","269839.250154","270606.393165","271372.960494","272122.567456","272889.283189","273665.029589","Mapping"
"Mixed","Both","done","40","m150dime.wav","None","727.138658112","111","266789.862983","273655.794867","274422.392186","275189.785628","261223.036381","261972.62572","262739.369279","263506.252893","267540.071289","268306.112095","269072.842049","269839.250154","270606.393165","271372.960494","272122.567456","272889.283189","274431.520243","Mapping"
"Mixed","Both","done","40","m160done.wav","space","403.607691405","111","266789.862983","273655.794867","274422.392186","275189.785628","275956.34801","261972.62572","262739.369279","263506.252893","267540.071289","268306.112095","269072.842049","269839.250154","270606.393165","271372.960494","272122.567456","272889.283189","275199.957458","Mapping"
"Mixed","Both","done","40","m160cave.wav","space","619.038388017","111","266789.862983","273655.794867","274422.392186","275189.785628","275956.34801","276705.936422","262739.369279","263506.252893","267540.071289","268306.112095","269072.842049","269839.250154","270606.393165","271372.960494","272122.567456","272889.283189","275960.530518","Mapping"
"Mixed","Both","done","40","m160knife.wav","None","734.262339829","111","266789.862983","273655.794867","274422.392186","275189.785628","275956.34801","276705.936422","277472.059468","263506.252893","267540.071289","268306.112095","269072.842049","269839.250154","270606.393165","271372.960494","272122.567456","272889.283189","276715.480319","Mapping"
"Mixed","Both","done","40","m160cave.wav","None","733.740453899","111","266789.862983","273655.794867","274422.392186","275189.785628","275956.34801","276705.936422","277472.059468","278239.342535","267540.071289","268306.112095","269072.842049","269839.250154","270606.393165","271372.960494","272122.567456","272889.283189","277480.831357","Mapping"
"Mixed","Both","ball","2","m160jaw.wav","None","729.986461229","111","281372.84208","273655.794867","274422.392186","275189.785628","275956.34801","276705.936422","277472.059468","278239.342535","267540.071289","268306.112095","269072.842049","269839.250154","270606.393165","271372.960494","272122.567456","272889.283189","278248.672174","Mapping"
"Mixed","Both","ball","2","m150reek.wav","None","719.713531609","111","281372.84208","273655.794867","274422.392186","275189.785628","275956.34801","276705.936422","277472.059468","278239.342535","282122.26292","268306.112095","269072.842049","269839.250154","270606.393165","271372.960494","272122.567456","272889.283189","281382.952075","Mapping"
"Mixed","Both","ball","2","m160done.wav","None","735.168529325","111","281372.84208","273655.794867","274422.392186","275189.785628","275956.34801","276705.936422","277472.059468","278239.342535","282122.26292","282889.264639","269072.842049","269839.250154","270606.393165","271372.960494","272122.567456","272889.283189","282131.320795","Mapping"
"Mixed","Both","ball","2","m160ball.wav","None","732.07400518","111","281372.84208","273655.794867","274422.392186","275189.785628","275956.34801","276705.936422","277472.059468","278239.342535","282122.26292","282889.264639","283655.887001","269839.250154","270606.393165","271372.960494","272122.567456","272889.283189","282898.275828","Mapping"
"Mixed","Both","ball","2","m150lash.wav","space","466.122087324","111","281372.84208","273655.794867","274422.392186","275189.785628","275956.34801","276705.936422","277472.059468","278239.342535","282122.26292","282889.264639","283655.887001","284422.456185","270606.393165","271372.960494","272122.567456","272889.283189","283665.322377","Mapping"
"Mixed","Both","ball","2","m160gnash.wav","None","726.206188847","111","281372.84208","273655.794867","274422.392186","275189.785628","275956.34801","276705.936422","277472.059468","278239.342535","282122.26292","282889.264639","283655.887001","284422.456185","285189.644645","271372.960494","272122.567456","272889.283189","284432.014304","Mapping"
"Mixed","Both","ball","2","m150ball.wav","None","722.958314349","111","281372.84208","273655.794867","274422.392186","275189.785628","275956.34801","276705.936422","277472.059468","278239.342535","282122.26292","282889.264639","283655.887001","284422.456185","285189.644645","285955.810665","272122.567456","272889.283189","285199.232753","Mapping"
"Mixed","Both","ball","2","m150bluff.wav","space","590.261075937","111","281372.84208","273655.794867","274422.392186","275189.785628","275956.34801","276705.936422","277472.059468","278239.342535","282122.26292","282889.264639","283655.887001","284422.456185","285189.644645","285955.810665","286705.786163","272889.283189","285965.154527","Mapping"
"Mixed","Both","ball","2","m160ball.wav","None","734.365913144","111","281372.84208","273655.794867","274422.392186","275189.785628","275956.34801","276705.936422","277472.059468","278239.342535","282122.26292","282889.264639","283655.887001","284422.456185","285189.644645","285955.810665","286705.786163","287472.197978","286715.222777","Mapping"
"Mixed","Both","ball","2","m160tile.wav","space","514.079636487","111","281372.84208","288239.087157","274422.392186","275189.785628","275956.34801","276705.936422","277472.059468","278239.342535","282122.26292","282889.264639","283655.887001","284422.456185","285189.644645","285955.810665","286705.786163","287472.197978","287481.3282","Mapping"
"Mixed","Both","ball","2","m160done.wav","None","728.838806797","111","281372.84208","288239.087157","289005.788049","275189.785628","275956.34801","276705.936422","277472.059468","278239.342535","282122.26292","282889.264639","283655.887001","284422.456185","285189.644645","285955.810665","286705.786163","287472.197978","288248.092164","Mapping"
"Mixed","Both","ball","2","m160romp.wav","None","725.224560942","111","281372.84208","288239.087157","289005.788049","289772.536245","275956.34801","276705.936422","277472.059468","278239.342535","282122.26292","282889.264639","283655.887001","284422.456185","285189.644645","285955.810665","286705.786163","287472.197978","289015.670183","Mapping"
"Mixed","Both","ball","2","m150greet.wav","None","722.112723044","111","281372.84208","288239.087157","289005.788049","289772.536245","290539.425425","276705.936422","277472.059468","278239.342535","282122.26292","282889.264639","283655.887001","284422.456185","285189.644645","285955.810665","286705.786163","287472.197978","289782.632018","Mapping"
"Mixed","Both","ball","2","m150done.wav","None","719.741666457","111","281372.84208","288239.087157","289005.788049","289772.536245","290539.425425","291288.830805","277472.059468","278239.342535","282122.26292","282889.264639","283655.887001","284422.456185","285189.644645","285955.810665","286705.786163","287472.197978","290548.979833","Mapping"
"Mixed","Both","ball","2","m150ball.wav","None","734.763511166","111","281372.84208","288239.087157","289005.788049","289772.536245","290539.425425","291288.830805","292055.514384","278239.342535","282122.26292","282889.264639","283655.887001","284422.456185","285189.644645","285955.810665","286705.786163","287472.197978","291298.012659","Mapping"
"Mixed","Both","ball","2","m150done.wav","space","370.774941926","111","281372.84208","288239.087157","289005.788049","289772.536245","290539.425425","291288.830805","292055.514384","292822.38223","282122.26292","282889.264639","283655.887001","284422.456185","285189.644645","285955.810665","286705.786163","287472.197978","292064.562366","Mapping"
"Mixed","Both","tile","34","m150romp.wav","None","728.711736272","111","295956.120458","288239.087157","289005.788049","289772.536245","290539.425425","291288.830805","292055.514384","292822.38223","282122.26292","282889.264639","283655.887001","284422.456185","285189.644645","285955.810665","286705.786163","287472.197978","292831.242543","Mapping"
"Mixed","Both","tile","34","m160knife.wav","None","719.587697706","111","295956.120458","288239.087157","289005.788049","289772.536245","290539.425425","291288.830805","292055.514384","292822.38223","296705.643325","282889.264639","283655.887001","284422.456185","285189.644645","285955.810665","286705.786163","287472.197978","295966.193352","Mapping"
"Mixed","Both","tile","34","m160greet.wav","None","734.217818768","111","295956.120458","288239.087157","289005.788049","289772.536245","290539.425425","291288.830805","292055.514384","292822.38223","296705.643325","297472.265687","283655.887001","284422.456185","285189.644645","285955.810665","286705.786163","287472.197978","296715.50258","Mapping"
"Mixed","Both","tile","34","m150greet.wav","None","731.928693305","111","295956.120458","288239.087157","289005.788049","289772.536245","290539.425425","291288.830805","292055.514384","292822.38223","296705.643325","297472.265687","298238.908764","284422.456185","285189.644645","285955.810665","286705.786163","287472.197978","297481.724561","Mapping"
"Mixed","Both","tile","34","m160tile.wav","None","729.605249537","111","295956.120458","288239.087157","289005.788049","289772.536245","290539.425425","291288.830805","292055.514384","292822.38223","296705.643325","297472.265687","298238.908764","299005.430953","285189.644645","285955.810665","286705.786163","287472.197978","298248.031256","Mapping"
"Mixed","Both","tile","34","m160gnash.wav","space","388.622947561","111","295956.120458","288239.087157","289005.788049","289772.536245","290539.425425","291288.830805","292055.514384","292822.38223","296705.643325","297472.265687","298238.908764","299005.430953","299772.558197","285955.810665","286705.786163","287472.197978","299014.595184","Mapping"
"Mixed","Both","tile","34","m150tile.wav","None","723.454229708","111","295956.120458","288239.087157","289005.788049","289772.536245","290539.425425","291288.830805","292055.514384","292822.38223","296705.643325","297472.265687","298238.908764","299005.430953","299772.558197","300539.405947","286705.786163","287472.197978","299782.027892","Mapping"
"Mixed","Both","tile","34","m150greet.wav","space","597.827495018","111","295956.120458","288239.087157","289005.788049","289772.536245","290539.425425","291288.830805","292055.514384","292822.38223","296705.643325","297472.265687","298238.908764","299005.430953","299772.558197","300539.405947","301288.627678","287472.197978","300549.36661","Mapping"
"Mixed","Both","tile","34","m160park.wav","None","735.646203393","111","295956.120458","288239.087157","289005.788049","289772.536245","290539.425425","291288.830805","292055.514384","292822.38223","296705.643325","297472.265687","298238.908764","299005.430953","299772.558197","300539.405947","301288.627678","302055.613629","301297.720181","Mapping"
"Mixed","Both","tile","34","m150done.wav","None","732.181906991","111","295956.120458","302822.134582","289005.788049","289772.536245","290539.425425","291288.830805","292055.514384","292822.38223","296705.643325","297472.265687","298238.908764","299005.430953","299772.558197","300539.405947","301288.627678","302055.613629","302065.083633","Mapping"
"Mixed","Both","tile","34","m160tile.wav","None","729.974712594","111","295956.120458","302822.134582","303588.899473","289772.536245","290539.425425","291288.830805","292055.514384","292822.38223","296705.643325","297472.265687","298238.908764","299005.430953","299772.558197","300539.405947","301288.627678","302055.613629","302831.456801","Mapping"
"Mixed","Both","tile","34","m150greet.wav","space","420.763456088","111","295956.120458","302822.134582","303588.899473","304356.05516","290539.425425","291288.830805","292055.514384","292822.38223","296705.643325","297472.265687","298238.908764","299005.430953","299772.558197","300539.405947","301288.627678","302055.613629","303598.399467","Mapping"
"Mixed","Both","tile","34","m160cad.wav","None","723.667559854","111","295956.120458","302822.134582","303588.899473","304356.05516","305122.182844","291288.830805","292055.514384","292822.38223","296705.643325","297472.265687","298238.908764","299005.430953","299772.558197","300539.405947","301288.627678","302055.613629","304365.837121","Mapping"
"Mixed","Both","tile","34","m150tile.wav","None","722.460853169","111","295956.120458","302822.134582","303588.899473","304356.05516","305122.182844","305872.215539","292055.514384","292822.38223","296705.643325","297472.265687","298238.908764","299005.430953","299772.558197","300539.405947","301288.627678","302055.613629","305131.231444","Mapping"
"Mixed","Both","tile","34","m160done.wav","space","418.045815255","111","295956.120458","302822.134582","303588.899473","304356.05516","305122.182844","305872.215539","306638.609112","292822.38223","296705.643325","297472.265687","298238.908764","299005.430953","299772.558197","300539.405947","301288.627678","302055.613629","305881.08389","Mapping"
"Mixed","Both","tile","34","m150bluff.wav","None","734.061376657","111","295956.120458","302822.134582","303588.899473","304356.05516","305122.182844","305872.215539","306638.609112","307405.485615","296705.643325","297472.265687","298238.908764","299005.430953","299772.558197","300539.405947","301288.627678","302055.613629","306647.882791","Mapping"
"Mixed","Both","ball","4","m160romp.wav","None","730.95077544","111","310539.123361","302822.134582","303588.899473","304356.05516","305122.182844","305872.215539","306638.609112","307405.485615","296705.643325","297472.265687","298238.908764","299005.430953","299772.558197","300539.405947","301288.627678","302055.613629","307415.096912","Mapping"
"Mixed","Both","ball","4","m150greet.wav","None","720.658367849","111","310539.123361","302822.134582","303588.899473","304356.05516","305122.182844","305872.215539","306638.609112","307405.485615","311288.438154","297472.265687","298238.908764","299005.430953","299772.558197","300539.405947","301288.627678","302055.613629","310548.771759","Mapping"
"Mixed","Both","ball","4","m150priest.wav","None","735.661662067","111","310539.123361","302822.134582","303588.899473","304356.05516","305122.182844","305872.215539","306638.609112","307405.485615","311288.438154","312055.295489","298238.908764","299005.430953","299772.558197","300539.405947","301288.627678","302055.613629","311297.888681","Mapping"
"Mixed","Both","ball","4","m160gnash.wav","None","733.168172534","111","310539.123361","302822.134582","303588.899473","304356.05516","305122.182844","305872.215539","306638.609112","307405.485615","311288.438154","312055.295489","312821.828499","299005.430953","299772.558197","300539.405947","301288.627678","302055.613629","312064.499912","Mapping"
"Mixed","Both","ball","4","m160greet.wav","None","731.095468975","111","310539.123361","302822.134582","303588.899473","304356.05516","305122.182844","305872.215539","306638.609112","307405.485615","311288.438154","312055.295489","312821.828499","313588.534338","299772.558197","300539.405947","301288.627678","302055.613629","312830.746937","Mapping"
"Mixed","Both","ball","4","m150ball.wav","None","728.101426444","111","310539.123361","302822.134582","303588.899473","304356.05516","305122.182844","305872.215539","306638.609112","307405.485615","311288.438154","312055.295489","312821.828499","313588.534338","314355.368794","300539.405947","301288.627678","302055.613629","313597.760404","Mapping"
"Mixed","Both","ball","4","m150gnash.wav","space","462.112407666","111","310539.123361","302822.134582","303588.899473","304356.05516","305122.182844","305872.215539","306638.609112","307405.485615","311288.438154","312055.295489","312821.828499","313588.534338","314355.368794","315122.250862","301288.627678","302055.613629","314364.843127","Mapping"
"Mixed","Both","ball","4","m160cave.wav","None","721.980087343","111","310539.123361","302822.134582","303588.899473","304356.05516","305122.182844","305872.215539","306638.609112","307405.485615","311288.438154","312055.295489","312821.828499","313588.534338","314355.368794","315122.250862","315888.892084","302055.613629","315131.836188","Mapping"
"Mixed","Both","ball","4","m160ball.wav","None","719.562654616","111","310539.123361","302822.134582","303588.899473","304356.05516","305122.182844","305872.215539","306638.609112","307405.485615","311288.438154","312055.295489","312821.828499","313588.534338","314355.368794","315122.250862","315888.892084","316638.350952","315898.246457","Mapping"
"Mixed","Both","ball","4","m160jaw.wav","space","475.661655888","111","310539.123361","317405.327318","303588.899473","304356.05516","305122.182844","305872.215539","306638.609112","307405.485615","311288.438154","312055.295489","312821.828499","313588.534338","314355.368794","315122.250862","315888.892084","316638.350952","316647.305872","Mapping"
"Mixed","Both","ball","4","m150cad.wav","None","731.137516676","111","310539.123361","317405.327318","318171.915671","304356.05516","305122.182844","305872.215539","306638.609112","307405.485615","311288.438154","312055.295489","312821.828499","313588.534338","314355.368794","315122.250862","315888.892084","316638.350952","317414.856993","Mapping"
"Mixed","Both","ball","4","m160ball.wav","None","728.895385691","111","310539.123361","317405.327318","318171.915671","318938.47187","305122.182844","305872.215539","306638.609112","307405.485615","311288.438154","312055.295489","312821.828499","313588.534338","314355.368794","315122.250862","315888.892084","316638.350952","318181.213774","Mapping"
"Mixed","Both","ball","4","m160priest.wav","space","487.207146361","111","310539.123361","317405.327318","318171.915671","318938.47187","319705.453801","305872.215539","306638.609112","307405.485615","311288.438154","312055.295489","312821.828499","313588.534338","314355.368794","315122.250862","315888.892084","316638.350952","318947.710921","Mapping"
"Mixed","Both","ball","4","m150ball.wav","None","722.206093604","111","310539.123361","317405.327318","318171.915671","318938.47187","319705.453801","320472.172626","306638.609112","307405.485615","311288.438154","312055.295489","312821.828499","313588.534338","314355.368794","315122.250862","315888.892084","316638.350952","319715.302235","Mapping"
"Mixed","Both","ball","4","m150jaw.wav","space","328.667276946","111","310539.123361","317405.327318","318171.915671","318938.47187","319705.453801","320472.172626","321221.847297","307405.485615","311288.438154","312055.295489","312821.828499","313588.534338","314355.368794","315122.250862","315888.892084","316638.350952","320482.258505","Mapping"
"Mixed","Both","ball","4","m150reek.wav","None","733.917919861","111","310539.123361","317405.327318","318171.915671","318938.47187","319705.453801","320472.172626","321221.847297","321988.452964","311288.438154","312055.295489","312821.828499","313588.534338","314355.368794","315122.250862","315888.892084","316638.350952","321231.164879","Mapping"
"Mixed","Both","cave","19","m150reek.wav","None","731.652291608","111","325122.089164","317405.327318","318171.915671","318938.47187","319705.453801","320472.172626","321221.847297","321988.452964","311288.438154","312055.295489","312821.828499","313588.534338","314355.368794","315122.250862","315888.892084","316638.350952","321997.523515","Mapping"
"Mixed","Both","cave","19","m160cave.wav","None","720.324150578","111","325122.089164","317405.327318","318171.915671","318938.47187","319705.453801","320472.172626","321221.847297","321988.452964","325871.623161","312055.295489","312821.828499","313588.534338","314355.368794","315122.250862","315888.892084","316638.350952","325131.73818","Mapping"
"Mixed","Both","cave","19","m160park.wav","space","345.934035257","111","325122.089164","317405.327318","318171.915671","318938.47187","319705.453801","320472.172626","321221.847297","321988.452964","325871.623161","326638.656725","312821.828499","313588.534338","314355.368794","315122.250862","315888.892084","316638.350952","325880.856957","Mapping"
"Mixed","Both","cave","19","m150cave.wav","None","731.874897028","111","325122.089164","317405.327318","318171.915671","318938.47187","319705.453801","320472.172626","321221.847297","321988.452964","325871.623161","326638.656725","327405.253116","313588.534338","314355.368794","315122.250862","315888.892084","316638.350952","326647.737788","Mapping"
"Mixed","Both","cave","19","m150jaw.wav","space","315.477907483","111","325122.089164","317405.327318","318171.915671","318938.47187","319705.453801","320472.172626","321221.847297","321988.452964","325871.623161","326638.656725","327405.253116","328171.945661","314355.368794","315122.250862","315888.892084","316638.350952","327415.31859","Mapping"
"Mixed","Both","cave","19","m160cave.wav","None","726.08592012","111","325122.089164","317405.327318","318171.915671","318938.47187","319705.453801","320472.172626","321221.847297","321988.452964","325871.623161","326638.656725","327405.253116","328171.945661","328938.939959","315122.250862","315888.892084","316638.350952","328181.145447","Mapping"
"Mixed","Both","cave","19","m160tile.wav","space","294.131287083","111","325122.089164","317405.327318","318171.915671","318938.47187","319705.453801","320472.172626","321221.847297","321988.452964","325871.623161","326638.656725","327405.253116","328171.945661","328938.939959","329705.661566","315888.892084","316638.350952","328948.639371","Mapping"
"Mixed","Both","cave","19","m150priest.wav","None","719.710130652","111","325122.089164","317405.327318","318171.915671","318938.47187","319705.453801","320472.172626","321221.847297","321988.452964","325871.623161","326638.656725","327405.253116","328171.945661","328938.939959","329705.661566","330455.079932","316638.350952","329715.287704","Mapping"
"Mixed","Both","cave","19","m160cad.wav","None","734.120738111","111","325122.089164","317405.327318","318171.915671","318938.47187","319705.453801","320472.172626","321221.847297","321988.452964","325871.623161","326638.656725","327405.253116","328171.945661","328938.939959","329705.661566","330455.079932","331221.5542","330465.00164","Mapping"
"Mixed","Both","cave","19","m150cave.wav","None","732.597746188","111","325122.089164","331988.397621","318171.915671","318938.47187","319705.453801","320472.172626","321221.847297","321988.452964","325871.623161","326638.656725","327405.253116","328171.945661","328938.939959","329705.661566","330455.079932","331221.5542","331230.597853","Mapping"
"Mixed","Both","cave","19","m160jolt.wav","space","453.040001274","111","325122.089164","331988.397621","332755.141489","318938.47187","319705.453801","320472.172626","321221.847297","321988.452964","325871.623161","326638.656725","327405.253116","328171.945661","328938.939959","329705.661566","330455.079932","331221.5542","331997.682121","Mapping"
"Mixed","Both","cave","19","m150lash.wav","None","726.486918982","111","325122.089164","331988.397621","332755.141489","333522.040253","319705.453801","320472.172626","321221.847297","321988.452964","325871.623161","326638.656725","327405.253116","328171.945661","328938.939959","329705.661566","330455.079932","331221.5542","332764.647358","Mapping"
"Mixed","Both","cave","19","m160tile.wav","None","723.69878646","111","325122.089164","331988.397621","332755.141489","333522.040253","334288.735271","320472.172626","321221.847297","321988.452964","325871.623161","326638.656725","327405.253116","328171.945661","328938.939959","329705.661566","330455.079932","331221.5542","333531.563126","Mapping"
"Mixed","Both","cave","19","m150depth.wav","None","721.295884927","111","325122.089164","331988.397621","332755.141489","333522.040253","334288.735271","335038.718189","321221.847297","321988.452964","325871.623161","326638.656725","327405.253116","328171.945661","328938.939959","329705.661566","330455.079932","331221.5542","334298.026263","Mapping"
"Mixed","Both","cave","19","m160dime.wav","None","735.458534618","111","325122.089164","331988.397621","332755.141489","333522.040253","334288.735271","335038.718189","335804.813409","321988.452964","325871.623161","326638.656725","327405.253116","328171.945661","328938.939959","329705.661566","330455.079932","331221.5542","335048.084311","Mapping"
"Mixed","Both","cave","19","m150cling.wav","None","733.957494085","111","325122.089164","331988.397621","332755.141489","333522.040253","334288.735271","335038.718189","335804.813409","336571.445355","325871.623161","326638.656725","327405.253116","328171.945661","328938.939959","329705.661566","330455.079932","331221.5542","335813.782242","Mapping"
"Mixed","Both","done","44","m150tile.wav","None","731.203061587","111","339705.646107","331988.397621","332755.141489","333522.040253","334288.735271","335038.718189","335804.813409","336571.445355","325871.623161","326638.656725","327405.253116","328171.945661","328938.939959","329705.661566","330455.079932","331221.5542","336580.59691","Mapping"
"Mixed","Both","done","44","m150done.wav","None","719.002431026","111","339705.646107","331988.397621","332755.141489","333522.040253","334288.735271","335038.718189","335804.813409","336571.445355","340454.93122","326638.656725","327405.253116","328171.945661","328938.939959","329705.661566","330455.079932","331221.5542","339715.935114","Mapping"
"Mixed","Both","done","44","m150knife.wav","space","50.0651893672","111","339705.646107","331988.397621","332755.141489","333522.040253","334288.735271","335038.718189","335804.813409","336571.445355","340454.93122","341221.415072","327405.253116","328171.945661","328938.939959","329705.661566","330455.079932","331221.5542","340464.528295","Mapping"
"Mixed","Both","done","44","m160dime.wav","space","0.022878870368","111","339705.646107","331988.397621","332755.141489","333522.040253","334288.735271","335038.718189","335804.813409","336571.445355","340454.93122","341221.415072","341988.399167","328171.945661","328938.939959","329705.661566","330455.079932","331221.5542","341230.37061","Mapping"
"Mixed","Both","done","44","m150done.wav","space","357.029058971","111","339705.646107","331988.397621","332755.141489","333522.040253","334288.735271","335038.718189","335804.813409","336571.445355","340454.93122","341221.415072","341988.399167","342755.000196","328938.939959","329705.661566","330455.079932","331221.5542","341997.563398","Mapping"
"Mixed","Both","done","44","m150priest.wav","space","533.717142127","111","339705.646107","331988.397621","332755.141489","333522.040253","334288.735271","335038.718189","335804.813409","336571.445355","340454.93122","341221.415072","341988.399167","342755.000196","343521.957703","329705.661566","330455.079932","331221.5542","342764.859142","Mapping"
"Mixed","Both","done","44","m150jolt.wav","None","714.415214083","111","339705.646107","331988.397621","332755.141489","333522.040253","334288.735271","335038.718189","335804.813409","336571.445355","340454.93122","341221.415072","341988.399167","342755.000196","343521.957703","344288.185868","330455.079932","331221.5542","343539.435627","Mapping"
"Mixed","Both","done","44","m160done.wav","None","720.353831246","111","339705.646107","331988.397621","332755.141489","333522.040253","334288.735271","335038.718189","335804.813409","336571.445355","340454.93122","341221.415072","341988.399167","342755.000196","343521.957703","344288.185868","345038.082527","331221.5542","344297.610115","Mapping"
"Mixed","Both","done","44","m160knife.wav","space","554.643904034","111","339705.646107","331988.397621","332755.141489","333522.040253","334288.735271","335038.718189","335804.813409","336571.445355","340454.93122","341221.415072","341988.399167","342755.000196","343521.957703","344288.185868","345038.082527","345804.67057","345047.870053","Mapping"
"Mixed","Both","done","44","m160ball.wav","None","731.58025404","111","339705.646107","346571.45092","332755.141489","333522.040253","334288.735271","335038.718189","335804.813409","336571.445355","340454.93122","341221.415072","341988.399167","342755.000196","343521.957703","344288.185868","345038.082527","345804.67057","345814.081832","Mapping"
"Mixed","Both","done","44","m160priest.wav","None","728.846536134","111","339705.646107","346571.45092","347338.084413","333522.040253","334288.735271","335038.718189","335804.813409","336571.445355","340454.93122","341221.415072","341988.399167","342755.000196","343521.957703","344288.185868","345038.082527","345804.67057","346580.944422","Mapping"
"Mixed","Both","done","44","m160romp.wav","None","726.670259261","111","339705.646107","346571.45092","347338.084413","348105.392523","334288.735271","335038.718189","335804.813409","336571.445355","340454.93122","341221.415072","341988.399167","342755.000196","343521.957703","344288.185868","345038.082527","345804.67057","347347.370149","Mapping"
"Mixed","Both","done","44","m150jaw.wav","None","721.67122236","111","339705.646107","346571.45092","347338.084413","348105.392523","348871.84082","335038.718189","335804.813409","336571.445355","340454.93122","341221.415072","341988.399167","342755.000196","343521.957703","344288.185868","345038.082527","345804.67057","348116.562058","Mapping"
"Mixed","Both","done","44","m150tile.wav","None","720.754520968","111","339705.646107","346571.45092","347338.084413","348105.392523","348871.84082","349621.280828","335804.813409","336571.445355","340454.93122","341221.415072","341988.399167","342755.000196","343521.957703","344288.185868","345038.082527","345804.67057","348881.713987","Mapping"
"Mixed","Both","done","44","m160done.wav","None","736.239508551","111","339705.646107","346571.45092","347338.084413","348105.392523","348871.84082","349621.280828","350388.21391","336571.445355","340454.93122","341221.415072","341988.399167","342755.000196","343521.957703","344288.185868","345038.082527","345804.67057","349630.473194","Mapping"
"Mixed","Both","done","44","m160bluff.wav","space","396.437942691","111","339705.646107","346571.45092","347338.084413","348105.392523","348871.84082","349621.280828","350388.21391","351154.658497","340454.93122","341221.415072","341988.399167","342755.000196","343521.957703","344288.185868","345038.082527","345804.67057","350398.040083","Mapping"
"Mixed","Both","done","45","m160bluff.wav","None","730.563998572","111","354288.456395","346571.45092","347338.084413","348105.392523","348871.84082","349621.280828","350388.21391","351154.658497","340454.93122","341221.415072","341988.399167","342755.000196","343521.957703","344288.185868","345038.082527","345804.67057","351164.118917","Mapping"
"Mixed","Both","done","45","m150ball.wav","None","720.355995523","111","354288.456395","346571.45092","347338.084413","348105.392523","348871.84082","349621.280828","350388.21391","351154.658497","355037.921447","341221.415072","341988.399167","342755.000196","343521.957703","344288.185868","345038.082527","345804.67057","354298.392944","Mapping"
"Mixed","Both","done","45","m150done.wav","None","733.329561423","111","354288.456395","346571.45092","347338.084413","348105.392523","348871.84082","349621.280828","350388.21391","351154.658497","355037.921447","355804.839689","341988.399167","342755.000196","343521.957703","344288.185868","345038.082527","345804.67057","355049.631727","Mapping"
"Mixed","Both","done","45","m160jolt.wav","space","483.527046395","111","354288.456395","346571.45092","347338.084413","348105.392523","348871.84082","349621.280828","350388.21391","351154.658497","355037.921447","355804.839689","356571.281184","342755.000196","343521.957703","344288.185868","345038.082527","345804.67057","355814.831579","Mapping"
"Mixed","Both","done","45","m160done.wav","None","730.074575928","111","354288.456395","346571.45092","347338.084413","348105.392523","348871.84082","349621.280828","350388.21391","351154.658497","355037.921447","355804.839689","356571.281184","357337.898599","343521.957703","344288.185868","345038.082527","345804.67057","356580.676059","Mapping"
"Mixed","Both","done","45","m150cave.wav","space","631.039601169","111","354288.456395","346571.45092","347338.084413","348105.392523","348871.84082","349621.280828","350388.21391","351154.658497","355037.921447","355804.839689","356571.281184","357337.898599","358104.484788","344288.185868","345038.082527","345804.67057","357347.363966","Mapping"
"Mixed","Both","done","45","m150romp.wav","None","724.487798871","111","354288.456395","346571.45092","347338.084413","348105.392523","348871.84082","349621.280828","350388.21391","351154.658497","355037.921447","355804.839689","356571.281184","357337.898599","358104.484788","358871.710348","345038.082527","345804.67057","358114.140606","Mapping"
"Mixed","Both","done","45","m160ball.wav","None","721.748206706","111","354288.456395","346571.45092","347338.084413","348105.392523","348871.84082","349621.280828","350388.21391","351154.658497","355037.921447","355804.839689","356571.281184","357337.898599","358104.484788","358871.710348","359638.534601","345804.67057","358881.141706","Mapping"
"Mixed","Both","done","45","m160done.wav","None","718.547017546","111","354288.456395","346571.45092","347338.084413","348105.392523","348871.84082","349621.280828","350388.21391","351154.658497","355037.921447","355804.839689","356571.281184","357337.898599","358104.484788","358871.710348","359638.534601","360387.781066","359648.681388","Mapping"
"Mixed","Both","done","45","m160cling.wav","space","556.991463411","111","354288.456395","361154.486287","347338.084413","348105.392523","348871.84082","349621.280828","350388.21391","351154.658497","355037.921447","355804.839689","356571.281184","357337.898599","358104.484788","358871.710348","359638.534601","360387.781066","360397.33362","Mapping"
"Mixed","Both","done","45","m160cave.wav","None","731.403406418","111","354288.456395","361154.486287","361921.247159","348105.392523","348871.84082","349621.280828","350388.21391","351154.658497","355037.921447","355804.839689","356571.281184","357337.898599","358104.484788","358871.710348","359638.534601","360387.781066","361164.089855","Mapping"
"Mixed","Both","done","45","m150jaw.wav","None","729.087073647","111","354288.456395","361154.486287","361921.247159","362687.856227","348871.84082","349621.280828","350388.21391","351154.658497","355037.921447","355804.839689","356571.281184","357337.898599","358104.484788","358871.710348","359638.534601","360387.781066","361930.617919","Mapping"
"Mixed","Both","done","45","m150done.wav","None","726.78372619","111","354288.456395","361154.486287","361921.247159","362687.856227","363455.135893","349621.280828","350388.21391","351154.658497","355037.921447","355804.839689","356571.281184","357337.898599","358104.484788","358871.710348","359638.534601","360387.781066","362697.273671","Mapping"
"Mixed","Both","done","45","m160greet.wav","space","432.744882186","111","354288.456395","361154.486287","361921.247159","362687.856227","363455.135893","364221.497312","350388.21391","351154.658497","355037.921447","355804.839689","356571.281184","357337.898599","358104.484788","358871.710348","359638.534601","360387.781066","363465.469421","Mapping"
"Mixed","Both","done","45","m150cad.wav","None","720.944044762","111","354288.456395","361154.486287","361921.247159","362687.856227","363455.135893","364221.497312","364970.801902","351154.658497","355037.921447","355804.839689","356571.281184","357337.898599","358104.484788","358871.710348","359638.534601","360387.781066","364231.216201","Mapping"
"Mixed","Both","done","45","m150depth.wav","None","736.071936146","111","354288.456395","361154.486287","361921.247159","362687.856227","363455.135893","364221.497312","364970.801902","365737.984797","355037.921447","355804.839689","356571.281184","357337.898599","358104.484788","358871.710348","359638.534601","360387.781066","364980.347654","Mapping"
"Mixed","Both","done","38","m150reek.wav","None","733.29122382","111","368871.54123","361154.486287","361921.247159","362687.856227","363455.135893","364221.497312","364970.801902","365737.984797","355037.921447","355804.839689","356571.281184","357337.898599","358104.484788","358871.710348","359638.534601","360387.781066","365747.512926","Mapping"
"Mixed","Both","done","38","m160done.wav","None","719.652315078","111","368871.54123","361154.486287","361921.247159","362687.856227","363455.135893","364221.497312","364970.801902","365737.984797","369620.80841","355804.839689","356571.281184","357337.898599","358104.484788","358871.710348","359638.534601","360387.781066","368881.677196","Mapping"
"Mixed","Both","done","38","m150reek.wav","space","675.955185841","111","368871.54123","361154.486287","361921.247159","362687.856227","363455.135893","364221.497312","364970.801902","365737.984797","369620.80841","370387.927615","356571.281184","357337.898599","358104.484788","358871.710348","359638.534601","360387.781066","369630.234202","Mapping"
"Mixed","Both","done","38","m160done.wav","None","731.62693932","111","368871.54123","361154.486287","361921.247159","362687.856227","363455.135893","364221.497312","364970.801902","365737.984797","369620.80841","370387.927615","371154.584604","357337.898599","358104.484788","358871.710348","359638.534601","360387.781066","370397.603529","Mapping"
"Mixed","Both","done","38","m160greet.wav","space","389.7526699","111","368871.54123","361154.486287","361921.247159","362687.856227","363455.135893","364221.497312","364970.801902","365737.984797","369620.80841","370387.927615","371154.584604","371920.921908","358104.484788","358871.710348","359638.534601","360387.781066","371164.389135","Mapping"
"Mixed","Both","done","38","m150priest.wav","None","727.084243495","111","368871.54123","361154.486287","361921.247159","362687.856227","363455.135893","364221.497312","364970.801902","365737.984797","369620.80841","370387.927615","371154.584604","371920.921908","372687.434204","358871.710348","359638.534601","360387.781066","371930.166524","Mapping"
"Mixed","Both","done","38","m150priest.wav","None","726.8981206","111","368871.54123","361154.486287","361921.247159","362687.856227","363455.135893","364221.497312","364970.801902","365737.984797","369620.80841","370387.927615","371154.584604","371920.921908","372687.434204","373454.64276","359638.534601","360387.781066","372696.473219","Mapping"
"Mixed","Both","done","38","m150done.wav","None","723.278618825","111","368871.54123","361154.486287","361921.247159","362687.856227","363455.135893","364221.497312","364970.801902","365737.984797","369620.80841","370387.927615","371154.584604","371920.921908","372687.434204","373454.64276","374221.510297","360387.781066","373464.507889","Mapping"
"Mixed","Both","done","38","m150dime.wav","space","475.125547906","111","368871.54123","361154.486287","361921.247159","362687.856227","363455.135893","364221.497312","364970.801902","365737.984797","369620.80841","370387.927615","371154.584604","371920.921908","372687.434204","373454.64276","374221.510297","374970.752125","374230.970408","Mapping"
"Mixed","Both","done","38","m160greet.wav","None","735.555306135","111","368871.54123","375737.578233","361921.247159","362687.856227","363455.135893","364221.497312","364970.801902","365737.984797","369620.80841","370387.927615","371154.584604","371920.921908","372687.434204","373454.64276","374221.510297","374970.752125","374980.273452","Mapping"
"Mixed","Both","done","38","m160park.wav","None","733.493114531","111","368871.54123","375737.578233","376504.489982","362687.856227","363455.135893","364221.497312","364970.801902","365737.984797","369620.80841","370387.927615","371154.584604","371920.921908","372687.434204","373454.64276","374221.510297","374970.752125","375746.999078","Mapping"
"Mixed","Both","done","38","m150tile.wav","None","730.406628922","111","368871.54123","375737.578233","376504.489982","377271.152227","363455.135893","364221.497312","364970.801902","365737.984797","369620.80841","370387.927615","371154.584604","371920.921908","372687.434204","373454.64276","374221.510297","374970.752125","376514.494857","Mapping"
"Mixed","Both","done","38","m160greet.wav","None","728.560859221","111","368871.54123","375737.578233","376504.489982","377271.152227","378037.666069","364221.497312","364970.801902","365737.984797","369620.80841","370387.927615","371154.584604","371920.921908","372687.434204","373454.64276","374221.510297","374970.752125","377280.95212","Mapping"
"Mixed","Both","done","38","m160cling.wav","None","726.430340088","111","368871.54123","375737.578233","376504.489982","377271.152227","378037.666069","378804.455385","364970.801902","365737.984797","369620.80841","370387.927615","371154.584604","371920.921908","372687.434204","373454.64276","374221.510297","374970.752125","378047.469672","Mapping"
"Mixed","Both","done","38","m150done.wav","None","724.843658332","111","368871.54123","375737.578233","376504.489982","377271.152227","378037.666069","378804.455385","379571.304063","365737.984797","369620.80841","370387.927615","371154.584604","371920.921908","372687.434204","373454.64276","374221.510297","374970.752125","378814.326388","Mapping"
"Mixed","Both","done","38","m160cave.wav","space","557.032274373","111","368871.54123","375737.578233","376504.489982","377271.152227","378037.666069","378804.455385","379571.304063","380338.531478","369620.80841","370387.927615","371154.584604","371920.921908","372687.434204","373454.64276","374221.510297","374970.752125","379580.998837","Mapping"
"Mixed","Both","ball","5","m160tile.wav","None","718.617818377","111","383454.723455","375737.578233","376504.489982","377271.152227","378037.666069","378804.455385","379571.304063","380338.531478","369620.80841","370387.927615","371154.584604","371920.921908","372687.434204","373454.64276","374221.510297","374970.752125","380348.492142","Mapping"
"Mixed","Both","ball","5","m150ball.wav","None","719.609339896","111","383454.723455","375737.578233","376504.489982","377271.152227","378037.666069","378804.455385","379571.304063","380338.531478","384204.230554","370387.927615","371154.584604","371920.921908","372687.434204","373454.64276","374221.510297","374970.752125","383464.756465","Mapping"
"Mixed","Both","ball","5","m160done.wav","space","444.103631482","111","383454.723455","375737.578233","376504.489982","377271.152227","378037.666069","378804.455385","379571.304063","380338.531478","384204.230554","384970.985861","371154.584604","371920.921908","372687.434204","373454.64276","374221.510297","374970.752125","384213.843396","Mapping"
"Mixed","Both","ball","5","m150tile.wav","None","731.993310677","111","383454.723455","375737.578233","376504.489982","377271.152227","378037.666069","378804.455385","379571.304063","380338.531478","384204.230554","384970.985861","385737.662637","371920.921908","372687.434204","373454.64276","374221.510297","374970.752125","384980.407015","Mapping"
"Mixed","Both","ball","5","m160ball.wav","None","729.496111046","111","383454.723455","375737.578233","376504.489982","377271.152227","378037.666069","378804.455385","379571.304063","380338.531478","384204.230554","384970.985861","385737.662637","386504.327356","372687.434204","373454.64276","374221.510297","374970.752125","385747.461294","Mapping"
"Mixed","Both","ball","5","m160cling.wav","None","726.865348173","111","383454.723455","375737.578233","376504.489982","377271.152227","378037.666069","378804.455385","379571.304063","380338.531478","384204.230554","384970.985861","385737.662637","386504.327356","387270.760194","373454.64276","374221.510297","374970.752125","386514.635222","Mapping"
"Mixed","Both","ball","5","m160romp.wav","None","726.358611719","111","383454.723455","375737.578233","376504.489982","377271.152227","378037.666069","378804.455385","379571.304063","380338.531478","384204.230554","384970.985861","385737.662637","386504.327356","387270.760194","388037.991939","374221.510297","374970.752125","387279.773858","Mapping"
"Mixed","Both","ball","5","m160cling.wav","None","722.544021031","111","383454.723455","375737.578233","376504.489982","377271.152227","378037.666069","378804.455385","379571.304063","380338.531478","384204.230554","384970.985861","385737.662637","386504.327356","387270.760194","388037.991939","388804.878954","374970.752125","388048.171188","Mapping"
"Mixed","Both","ball","5","m160romp.wav","None","719.945412187","111","383454.723455","375737.578233","376504.489982","377271.152227","378037.666069","378804.455385","379571.304063","380338.531478","384204.230554","384970.985861","385737.662637","386504.327356","387270.760194","388037.991939","388804.878954","389554.444177","388815.307707","Mapping"
"Mixed","Both","ball","5","m150ball.wav","None","735.414941097","111","383454.723455","390320.637406","376504.489982","377271.152227","378037.666069","378804.455385","379571.304063","380338.531478","384204.230554","384970.985861","385737.662637","386504.327356","387270.760194","388037.991939","388804.878954","389554.444177","389564.376397","Mapping"
"Mixed","Both","ball","5","m150cad.wav","space","472.084201698","111","383454.723455","390320.637406","391087.369834","377271.152227","378037.666069","378804.455385","379571.304063","380338.531478","384204.230554","384970.985861","385737.662637","386504.327356","387270.760194","388037.991939","388804.878954","389554.444177","390329.799782","Mapping"
"Mixed","Both","ball","5","m160ball.wav","None","731.101961632","111","383454.723455","390320.637406","391087.369834","391854.023113","378037.666069","378804.455385","379571.304063","380338.531478","384204.230554","384970.985861","385737.662637","386504.327356","387270.760194","388037.991939","388804.878954","389554.444177","391096.777385","Mapping"
"Mixed","Both","ball","5","m150romp.wav","space","458.505272807","111","383454.723455","390320.637406","391087.369834","391854.023113","392620.689687","378804.455385","379571.304063","380338.531478","384204.230554","384970.985861","385737.662637","386504.327356","387270.760194","388037.991939","388804.878954","389554.444177","391863.336985","Mapping"
"Mixed","Both","ball","5","m150reek.wav","None","726.21948336","111","383454.723455","390320.637406","391087.369834","391854.023113","392620.689687","393388.003981","379571.304063","380338.531478","384204.230554","384970.985861","385737.662637","386504.327356","387270.760194","388037.991939","388804.878954","389554.444177","392630.178551","Mapping"
"Mixed","Both","ball","5","m150gnash.wav","None","722.853195155","111","383454.723455","390320.637406","391087.369834","391854.023113","392620.689687","393388.003981","394154.53019","380338.531478","384204.230554","384970.985861","385737.662637","386504.327356","387270.760194","388037.991939","388804.878954","389554.444177","393398.050595","Mapping"
"Mixed","Both","ball","5","m150knife.wav","None","720.781109936","111","383454.723455","390320.637406","391087.369834","391854.023113","392620.689687","393388.003981","394154.53019","394904.293594","384204.230554","384970.985861","385737.662637","386504.327356","387270.760194","388037.991939","388804.878954","389554.444177","394164.65688","Mapping"
"Mixed","Both","done","42","m150gnash.wav","None","736.446655239","111","398037.778608","390320.637406","391087.369834","391854.023113","392620.689687","393388.003981","394154.53019","394904.293594","384204.230554","384970.985861","385737.662637","386504.327356","387270.760194","388037.991939","388804.878954","389554.444177","394913.569437","Mapping"
"Mixed","Both","done","42","m160done.wav","None","719.798245293","111","398037.778608","390320.637406","391087.369834","391854.023113","392620.689687","393388.003981","394154.53019","394904.293594","398787.31106","384970.985861","385737.662637","386504.327356","387270.760194","388037.991939","388804.878954","389554.444177","398048.355765","Mapping"
"Mixed","Both","done","42","m160park.wav","space","540.423129569","111","398037.778608","390320.637406","391087.369834","391854.023113","392620.689687","393388.003981","394154.53019","394904.293594","398787.31106","399554.249707","385737.662637","386504.327356","387270.760194","388037.991939","388804.878954","389554.444177","398797.359529","Mapping"
"Mixed","Both","done","42","m160cling.wav","None","732.27435007","111","398037.778608","390320.637406","391087.369834","391854.023113","392620.689687","393388.003981","394154.53019","394904.293594","398787.31106","399554.249707","400320.571552","386504.327356","387270.760194","388037.991939","388804.878954","389554.444177","399563.80628","Mapping"
"Mixed","Both","done","42","m150romp.wav","None","730.751048948","111","398037.778608","390320.637406","391087.369834","391854.023113","392620.689687","393388.003981","394154.53019","394904.293594","398787.31106","399554.249707","400320.571552","401087.244","387270.760194","388037.991939","388804.878954","389554.444177","400329.95406","Mapping"
"Mixed","Both","done","42","m160cad.wav","None","728.572917054","111","398037.778608","390320.637406","391087.369834","391854.023113","392620.689687","393388.003981","394154.53019","394904.293594","398787.31106","399554.249707","400320.571552","401087.244","401853.82586","388037.991939","388804.878954","389554.444177","401096.637329","Mapping"
"Mixed","Both","done","42","m160romp.wav","None","726.482899743","111","398037.778608","390320.637406","391087.369834","391854.023113","392620.689687","393388.003981","394154.53019","394904.293594","398787.31106","399554.249707","400320.571552","401087.244","401853.82586","402620.490579","388804.878954","389554.444177","401863.720361","Mapping"
"Mixed","Both","done","42","m160bluff.wav","None","725.156542612","111","398037.778608","390320.637406","391087.369834","391854.023113","392620.689687","393388.003981","394154.53019","394904.293594","398787.31106","399554.249707","400320.571552","401087.244","401853.82586","402620.490579","403387.276803","389554.444177","402629.601632","Mapping"
"Mixed","Both","done","42","m150cad.wav","None","722.604309965","111","398037.778608","390320.637406","391087.369834","391854.023113","392620.689687","393388.003981","394154.53019","394904.293594","398787.31106","399554.249707","400320.571552","401087.244","401853.82586","402620.490579","403387.276803","404154.495871","403396.700741","Mapping"
"Mixed","Both","done","42","m160done.wav","None","719.566983054","111","398037.778608","404904.00699","391087.369834","391854.023113","392620.689687","393388.003981","394154.53019","394904.293594","398787.31106","399554.249707","400320.571552","401087.244","401853.82586","402620.490579","403387.276803","404154.495871","404164.341832","Mapping"
"Mixed","Both","done","42","m150greet.wav","space","528.109341336","111","398037.778608","404904.00699","405670.60771","391854.023113","392620.689687","393388.003981","394154.53019","394904.293594","398787.31106","399554.249707","400320.571552","401087.244","401853.82586","402620.490579","403387.276803","404154.495871","404913.587679","Mapping"
"Mixed","Both","done","42","m160tile.wav","None","731.389802764","111","398037.778608","404904.00699","405670.60771","406437.25326","392620.689687","393388.003981","394154.53019","394904.293594","398787.31106","399554.249707","400320.571552","401087.244","401853.82586","402620.490579","403387.276803","404154.495871","405680.541784","Mapping"
"Mixed","Both","done","42","m150done.wav","None","729.548361502","111","398037.778608","404904.00699","405670.60771","406437.25326","407204.048141","393388.003981","394154.53019","394904.293594","398787.31106","399554.249707","400320.571552","401087.244","401853.82586","402620.490579","403387.276803","404154.495871","406447.047897","Mapping"
"Mixed","Both","done","42","m150ball.wav","space","467.972185463","111","398037.778608","404904.00699","405670.60771","406437.25326","407204.048141","407970.596301","394154.53019","394904.293594","398787.31106","399554.249707","400320.571552","401087.244","401853.82586","402620.490579","403387.276803","404154.495871","407213.658201","Mapping"
"Mixed","Both","done","42","m150done.wav","None","724.687834561","111","398037.778608","404904.00699","405670.60771","406437.25326","407204.048141","407970.596301","408737.656145","394904.293594","398787.31106","399554.249707","400320.571552","401087.244","401853.82586","402620.490579","403387.276803","404154.495871","407980.171734","Mapping"
"Mixed","Both","done","42","m150lash.wav","space","502.044414112","111","398037.778608","404904.00699","405670.60771","406437.25326","407204.048141","407970.596301","408737.656145","409504.481325","398787.31106","399554.249707","400320.571552","401087.244","401853.82586","402620.490579","403387.276803","404154.495871","408747.54137","Mapping"
"Mixed","Both","tile","25","m150ball.wav","None","718.196104863","111","412620.916621","404904.00699","405670.60771","406437.25326","407204.048141","407970.596301","408737.656145","409504.481325","398787.31106","399554.249707","400320.571552","401087.244","401853.82586","402620.490579","403387.276803","404154.495871","409514.801249","Mapping"
"Mixed","Both","tile","25","m160tile.wav","None","720.698251273","111","412620.916621","404904.00699","405670.60771","406437.25326","407204.048141","407970.596301","408737.656145","409504.481325","413387.451796","399554.249707","400320.571552","401087.244","401853.82586","402620.490579","403387.276803","404154.495871","412630.247188","Mapping"
"Mixed","Both","tile","25","m160cling.wav","space","484.70685503","111","412620.916621","404904.00699","405670.60771","406437.25326","407204.048141","407970.596301","408737.656145","409504.481325","413387.451796","414137.51108","400320.571552","401087.244","401853.82586","402620.490579","403387.276803","404154.495871","413396.815135","Mapping"
"Mixed","Both","tile","25","m150done.wav","None","733.713246533","111","412620.916621","404904.00699","405670.60771","406437.25326","407204.048141","407970.596301","408737.656145","409504.481325","413387.451796","414137.51108","414903.893832","401087.244","401853.82586","402620.490579","403387.276803","404154.495871","414146.856796","Mapping"
"Mixed","Both","tile","25","m160tile.wav","None","731.49121186","111","412620.916621","404904.00699","405670.60771","406437.25326","407204.048141","407970.596301","408737.656145","409504.481325","413387.451796","414137.51108","414903.893832","415670.446012","401853.82586","402620.490579","403387.276803","404154.495871","414913.784004","Mapping"
"Mixed","Both","tile","25","m150greet.wav","space","393.286530569","111","412620.916621","404904.00699","405670.60771","406437.25326","407204.048141","407970.596301","408737.656145","409504.481325","413387.451796","414137.51108","414903.893832","415670.446012","416436.997263","402620.490579","403387.276803","404154.495871","415680.242504","Mapping"
"Mixed","Both","tile","25","m150tile.wav","None","727.323544212","111","412620.916621","404904.00699","405670.60771","406437.25326","407204.048141","407970.596301","408737.656145","409504.481325","413387.451796","414137.51108","414903.893832","415670.446012","416436.997263","417203.889844","403387.276803","404154.495871","416446.491383","Mapping"
"Mixed","Both","tile","25","m160park.wav","space","451.80979732","111","412620.916621","404904.00699","405670.60771","406437.25326","407204.048141","407970.596301","408737.656145","409504.481325","413387.451796","414137.51108","414903.893832","415670.446012","416436.997263","417203.889844","417970.777477","404154.495871","417213.69994","Mapping"
"Mixed","Both","tile","25","m160jaw.wav","None","722.572155821","111","412620.916621","404904.00699","405670.60771","406437.25326","407204.048141","407970.596301","408737.656145","409504.481325","413387.451796","414137.51108","414903.893832","415670.446012","416436.997263","417203.889844","417970.777477","418737.689535","417980.377953","Mapping"
"Mixed","Both","tile","25","m150reek.wav","None","719.838437915","111","412620.916621","419486.965991","405670.60771","406437.25326","407204.048141","407970.596301","408737.656145","409504.481325","413387.451796","414137.51108","414903.893832","415670.446012","416436.997263","417203.889844","417970.777477","418737.689535","418747.950716","Mapping"
"Mixed","Both","tile","25","m150tile.wav","None","735.999898578","111","412620.916621","419486.965991","420253.84404","406437.25326","407204.048141","407970.596301","408737.656145","409504.481325","413387.451796","414137.51108","414903.893832","415670.446012","416436.997263","417203.889844","417970.777477","418737.689535","419496.530602","Mapping"
"Mixed","Both","tile","25","m160cling.wav","space","353.889086284","111","412620.916621","419486.965991","420253.84404","421020.509068","407204.048141","407970.596301","408737.656145","409504.481325","413387.451796","414137.51108","414903.893832","415670.446012","416436.997263","417203.889844","417970.777477","418737.689535","420263.554891","Mapping"
"Mixed","Both","tile","25","m150knife.wav","None","730.100546556","111","412620.916621","419486.965991","420253.84404","421020.509068","421787.091546","407970.596301","408737.656145","409504.481325","413387.451796","414137.51108","414903.893832","415670.446012","416436.997263","417203.889844","417970.777477","418737.689535","421030.61257","Mapping"
"Mixed","Both","tile","25","m160reek.wav","None","727.758861438","111","412620.916621","419486.965991","420253.84404","421020.509068","421787.091546","422553.79924","408737.656145","409504.481325","413387.451796","414137.51108","414903.893832","415670.446012","416436.997263","417203.889844","417970.777477","418737.689535","421797.63995","Mapping"
"Mixed","Both","tile","25","m160jolt.wav","None","726.187947555","111","412620.916621","419486.965991","420253.84404","421020.509068","421787.091546","422553.79924","423320.266088","409504.481325","413387.451796","414137.51108","414903.893832","415670.446012","416436.997263","417203.889844","417970.777477","418737.689535","422563.958394","Mapping"
"Mixed","Both","tile","25","m150reek.wav","None","725.63669004","111","412620.916621","419486.965991","420253.84404","421020.509068","421787.091546","422553.79924","423320.266088","424087.642525","413387.451796","414137.51108","414903.893832","415670.446012","416436.997263","417203.889844","417970.777477","418737.689535","423329.229665","Mapping"
"Mixed","Both","cave","21","m160cling.wav","None","722.015642328","111","427204.16068","419486.965991","420253.84404","421020.509068","421787.091546","422553.79924","423320.266088","424087.642525","413387.451796","414137.51108","414903.893832","415670.446012","416436.997263","417203.889844","417970.777477","418737.689535","424097.544755","Mapping"
"Mixed","Both","cave","21","m150greet.wav","None","719.458462961","111","427204.16068","419486.965991","420253.84404","421020.509068","421787.091546","422553.79924","423320.266088","424087.642525","427953.646756","414137.51108","414903.893832","415670.446012","416436.997263","417203.889844","417970.777477","418737.689535","427214.211314","Mapping"
"Mixed","Both","cave","21","m150cave.wav","None","735.096182558","111","427204.16068","419486.965991","420253.84404","421020.509068","421787.091546","422553.79924","423320.266088","424087.642525","427953.646756","428720.400826","414903.893832","415670.446012","416436.997263","417203.889844","417970.777477","418737.689535","427963.357916","Mapping"
"Mixed","Both","cave","21","m150done.wav","space","479.400808108","111","427204.16068","419486.965991","420253.84404","421020.509068","421787.091546","422553.79924","423320.266088","424087.642525","427953.646756","428720.400826","429486.977739","415670.446012","416436.997263","417203.889844","417970.777477","418737.689535","428729.905148","Mapping"
"Mixed","Both","cave","21","m160lash.wav","None","729.878868675","111","427204.16068","419486.965991","420253.84404","421020.509068","421787.091546","422553.79924","423320.266088","424087.642525","427953.646756","428720.400826","429486.977739","430253.405321","416436.997263","417203.889844","417970.777477","418737.689535","429496.923253","Mapping"
"Mixed","Both","cave","21","m150cave.wav","None","728.782846243","111","427204.16068","419486.965991","420253.84404","421020.509068","421787.091546","422553.79924","423320.266088","424087.642525","427953.646756","428720.400826","429486.977739","430253.405321","431020.220917","417203.889844","417970.777477","418737.689535","430262.978899","Mapping"
"Mixed","Both","cave","21","m160knife.wav","space","532.117784256","111","427204.16068","419486.965991","420253.84404","421020.509068","421787.091546","422553.79924","423320.266088","424087.642525","427953.646756","428720.400826","429486.977739","430253.405321","431020.220917","431787.195119","417970.777477","418737.689535","431029.157596","Mapping"
"Mixed","Both","cave","21","m160bluff.wav","None","723.309845373","111","427204.16068","419486.965991","420253.84404","421020.509068","421787.091546","422553.79924","423320.266088","424087.642525","427953.646756","428720.400826","429486.977739","430253.405321","431020.220917","431787.195119","432553.832013","418737.689535","431796.785083","Mapping"
"Mixed","Both","cave","21","m150cling.wav","None","721.058748371","111","427204.16068","419486.965991","420253.84404","421020.509068","421787.091546","422553.79924","423320.266088","424087.642525","427953.646756","428720.400826","429486.977739","430253.405321","431020.220917","431787.195119","432553.832013","433320.556402","432563.727132","Mapping"
"Mixed","Both","cave","21","m150greet.wav","None","719.315315306","111","427204.16068","434069.911388","420253.84404","421020.509068","421787.091546","422553.79924","423320.266088","424087.642525","427953.646756","428720.400826","429486.977739","430253.405321","431020.220917","431787.195119","432553.832013","433320.556402","433330.278074","Mapping"
"Mixed","Both","cave","21","m160cave.wav","None","735.16079993","111","427204.16068","434069.911388","434836.948661","421020.509068","421787.091546","422553.79924","423320.266088","424087.642525","427953.646756","428720.400826","429486.977739","430253.405321","431020.220917","431787.195119","432553.832013","433320.556402","434079.162497","Mapping"
"Mixed","Both","cave","21","m160jaw.wav","space","440.101681161","111","427204.16068","434069.911388","434836.948661","435603.599777","421787.091546","422553.79924","423320.266088","424087.642525","427953.646756","428720.400826","429486.977739","430253.405321","431020.220917","431787.195119","432553.832013","433320.556402","434841.061296","Mapping"
"Mixed","Both","cave","21","m160cave.wav","None","728.963094822","111","427204.16068","434069.911388","434836.948661","435603.599777","436369.980364","422553.79924","423320.266088","424087.642525","427953.646756","428720.400826","429486.977739","430253.405321","431020.220917","431787.195119","432553.832013","433320.556402","435613.810562","Mapping"
"Mixed","Both","cave","21","m150dime.wav","space","445.954966359","111","427204.16068","434069.911388","434836.948661","435603.599777","436369.980364","437136.947765","423320.266088","424087.642525","427953.646756","428720.400826","429486.977739","430253.405321","431020.220917","431787.195119","432553.832013","433320.556402","436379.238275","Mapping"
"Mixed","Both","cave","21","m150cling.wav","None","724.399993429","111","427204.16068","434069.911388","434836.948661","435603.599777","436369.980364","437136.947765","437903.753467","424087.642525","427953.646756","428720.400826","429486.977739","430253.405321","431020.220917","431787.195119","432553.832013","433320.556402","437146.668509","Mapping"
"Mixed","Both","cave","21","m160jaw.wav","None","721.857036056","111","427204.16068","434069.911388","434836.948661","435603.599777","436369.980364","437136.947765","437903.753467","438670.30441","427953.646756","428720.400826","429486.977739","430253.405321","431020.220917","431787.195119","432553.832013","433320.556402","437913.869645","Mapping"
"Mixed","Both","ball","10","m160cave.wav","None","720.559432055","111","441787.074851","434069.911388","434836.948661","435603.599777","436369.980364","437136.947765","437903.753467","438670.30441","427953.646756","428720.400826","429486.977739","430253.405321","431020.220917","431787.195119","432553.832013","433320.556402","438680.06813","Mapping"
"Mixed","Both","ball","10","m160jaw.wav","None","720.303435868","111","441787.074851","434069.911388","434836.948661","435603.599777","436369.980364","437136.947765","437903.753467","438670.30441","442537.14712","428720.400826","429486.977739","430253.405321","431020.220917","431787.195119","432553.832013","433320.556402","441797.182991","Mapping"
"Mixed","Both","ball","10","m150ball.wav","None","735.501819057","111","441787.074851","434069.911388","434836.948661","435603.599777","436369.980364","437136.947765","437903.753467","438670.30441","442537.14712","443303.226882","429486.977739","430253.405321","431020.220917","431787.195119","432553.832013","433320.556402","442546.878377","Mapping"
"Mixed","Both","ball","10","m150romp.wav","space","432.504344673","111","441787.074851","434069.911388","434836.948661","435603.599777","436369.980364","437136.947765","437903.753467","438670.30441","442537.14712","443303.226882","444070.043714","430253.405321","431020.220917","431787.195119","432553.832013","433320.556402","443312.573525","Mapping"
"Mixed","Both","ball","10","m150jaw.wav","None","731.15235701","111","441787.074851","434069.911388","434836.948661","435603.599777","436369.980364","437136.947765","437903.753467","438670.30441","442537.14712","443303.226882","444070.043714","444836.544261","431020.220917","431787.195119","432553.832013","433320.556402","444079.577099","Mapping"
"Mixed","Both","ball","10","m150ball.wav","None","730.043040123","111","441787.074851","434069.911388","434836.948661","435603.599777","436369.980364","437136.947765","437903.753467","438670.30441","442537.14712","443303.226882","444070.043714","444836.544261","445603.495276","431787.195119","432553.832013","433320.556402","444845.69458","Mapping"
"Mixed","Both","ball","10","m160tile.wav","space","651.527954091","111","441787.074851","434069.911388","434836.948661","435603.599777","436369.980364","437136.947765","437903.753467","438670.30441","442537.14712","443303.226882","444070.043714","444836.544261","445603.495276","446370.016229","432553.832013","433320.556402","445613.522103","Mapping"
"Mixed","Both","ball","10","m150jaw.wav","None","724.755234551","111","441787.074851","434069.911388","434836.948661","435603.599777","436369.980364","437136.947765","437903.753467","438670.30441","442537.14712","443303.226882","444070.043714","444836.544261","445603.495276","446370.016229","447136.925504","433320.556402","446379.628762","Mapping"
"Mixed","Both","ball","10","m150lash.wav","None","722.804345656","111","441787.074851","434069.911388","434836.948661","435603.599777","436369.980364","437136.947765","437903.753467","438670.30441","442537.14712","443303.226882","444070.043714","444836.544261","445603.495276","446370.016229","447136.925504","447903.788094","447146.403856","Mapping"
"Mixed","Both","ball","10","m150cad.wav","None","720.43112485","111","441787.074851","448669.988434","434836.948661","435603.599777","436369.980364","437136.947765","437903.753467","438670.30441","442537.14712","443303.226882","444070.043714","444836.544261","445603.495276","446370.016229","447136.925504","447903.788094","447913.810593","Mapping"
"Mixed","Both","ball","10","m160ball.wav","None","719.80288293","111","441787.074851","448669.988434","449419.638371","435603.599777","436369.980364","437136.947765","437903.753467","438670.30441","442537.14712","443303.226882","444070.043714","444836.544261","445603.495276","446370.016229","447136.925504","447903.788094","448679.478225","Mapping"
"Mixed","Both","ball","10","m160cave.wav","space","435.410272563","111","441787.074851","448669.988434","449419.638371","450186.649674","436369.980364","437136.947765","437903.753467","438670.30441","442537.14712","443303.226882","444070.043714","444836.544261","445603.495276","446370.016229","447136.925504","447903.788094","449429.587905","Mapping"
"Mixed","Both","ball","10","m160ball.wav","None","731.675479678","111","441787.074851","448669.988434","449419.638371","450186.649674","450953.36417","437136.947765","437903.753467","438670.30441","442537.14712","443303.226882","444070.043714","444836.544261","445603.495276","446370.016229","447136.925504","447903.788094","450196.177804","Mapping"
"Mixed","Both","ball","10","m160depth.wav","space","613.702042087","111","441787.074851","448669.988434","449419.638371","450186.649674","450953.36417","451719.799173","437903.753467","438670.30441","442537.14712","443303.226882","444070.043714","444836.544261","445603.495276","446370.016229","447136.925504","447903.788094","450963.259598","Mapping"
"Mixed","Both","ball","10","m160tile.wav","None","727.403001976","111","441787.074851","448669.988434","449419.638371","450186.649674","450953.36417","451719.799173","452486.693299","438670.30441","442537.14712","443303.226882","444070.043714","444836.544261","445603.495276","446370.016229","447136.925504","447903.788094","451728.957221","Mapping"
"Mixed","Both","ball","10","m150cad.wav","None","724.548397004","111","441787.074851","448669.988434","449419.638371","450186.649674","450953.36417","451719.799173","452486.693299","453253.77262","442537.14712","443303.226882","444070.043714","444836.544261","445603.495276","446370.016229","447136.925504","447903.788094","452496.726","Mapping"
"Mixed","Both","cave","14","m150jaw.wav","None","722.561334725","111","456370.176381","448669.988434","449419.638371","450186.649674","450953.36417","451719.799173","452486.693299","453253.77262","442537.14712","443303.226882","444070.043714","444836.544261","445603.495276","446370.016229","447136.925504","447903.788094","453263.707623","Mapping"
"Mixed","Both","cave","14","m160cave.wav","None","720.211301988","111","456370.176381","448669.988434","449419.638371","450186.649674","450953.36417","451719.799173","452486.693299","453253.77262","457119.913505","443303.226882","444070.043714","444836.544261","445603.495276","446370.016229","447136.925504","447903.788094","456379.871155","Mapping"
"Mixed","Both","cave","14","m160knife.wav","space","495.413555996","111","456370.176381","448669.988434","449419.638371","450186.649674","450953.36417","451719.799173","452486.693299","453253.77262","457119.913505","457886.631093","444070.043714","444836.544261","445603.495276","446370.016229","447136.925504","447903.788094","457129.458639","Mapping"
"Mixed","Both","cave","14","m150jolt.wav","None","732.564973703","111","456370.176381","448669.988434","449419.638371","450186.649674","450953.36417","451719.799173","452486.693299","453253.77262","457119.913505","457886.631093","458653.029922","444836.544261","445603.495276","446370.016229","447136.925504","447903.788094","457895.907245","Mapping"
"Mixed","Both","cave","14","m150done.wav","None","731.186675315","111","456370.176381","448669.988434","449419.638371","450186.649674","450953.36417","451719.799173","452486.693299","453253.77262","457119.913505","457886.631093","458653.029922","459419.655376","445603.495276","446370.016229","447136.925504","447903.788094","458662.281031","Mapping"
"Mixed","Both","cave","14","m160cave.wav","None","729.694600857","111","456370.176381","448669.988434","449419.638371","450186.649674","450953.36417","451719.799173","452486.693299","453253.77262","457119.913505","457886.631093","458653.029922","459419.655376","460186.390896","446370.016229","447136.925504","447903.788094","459429.026754","Mapping"
"Mixed","Both","cave","14","m150greet.wav","space","597.179775184","111","456370.176381","448669.988434","449419.638371","450186.649674","450953.36417","451719.799173","452486.693299","453253.77262","457119.913505","457886.631093","458653.029922","459419.655376","460186.390896","460953.672108","447136.925504","447903.788094","460195.66612","Mapping"
"Mixed","Both","cave","14","m160lash.wav","None","723.567696637","111","456370.176381","448669.988434","449419.638371","450186.649674","450953.36417","451719.799173","452486.693299","453253.77262","457119.913505","457886.631093","458653.029922","459419.655376","460186.390896","460953.672108","461719.766091","447903.788094","460963.572173","Mapping"
"Mixed","Both","cave","14","m150jolt.wav","None","722.758896998","111","456370.176381","448669.988434","449419.638371","450186.649674","450953.36417","451719.799173","452486.693299","453253.77262","457119.913505","457886.631093","458653.029922","459419.655376","460186.390896","460953.672108","461719.766091","462486.733182","461729.245062","Mapping"
"Mixed","Both","cave","14","m150cave.wav","None","719.227200607","111","456370.176381","463236.57017","449419.638371","450186.649674","450953.36417","451719.799173","452486.693299","453253.77262","457119.913505","457886.631093","458653.029922","459419.655376","460186.390896","460953.672108","461719.766091","462486.733182","462497.672073","Mapping"
"Mixed","Both","cave","14","m160reek.wav","space","610.694705043","111","456370.176381","463236.57017","464003.199952","450186.649674","450953.36417","451719.799173","452486.693299","453253.77262","457119.913505","457886.631093","458653.029922","459419.655376","460186.390896","460953.672108","461719.766091","462486.733182","463246.097372","Mapping"
"Mixed","Both","cave","14","m160gnash.wav","None","732.63886635","111","456370.176381","463236.57017","464003.199952","464769.60682","450953.36417","451719.799173","452486.693299","453253.77262","457119.913505","457886.631093","458653.029922","459419.655376","460186.390896","460953.672108","461719.766091","462486.733182","464012.722207","Mapping"
"Mixed","Both","cave","14","m160done.wav","None","731.17461754","111","456370.176381","463236.57017","464003.199952","464769.60682","465536.480541","451719.799173","452486.693299","453253.77262","457119.913505","457886.631093","458653.029922","459419.655376","460186.390896","460953.672108","461719.766091","462486.733182","464779.197712","Mapping"
"Mixed","Both","cave","14","m150cave.wav","None","729.211361671","111","456370.176381","463236.57017","464003.199952","464769.60682","465536.480541","466302.859583","452486.693299","453253.77262","457119.913505","457886.631093","458653.029922","459419.655376","460186.390896","460953.672108","461719.766091","462486.733182","465546.115335","Mapping"
"Mixed","Both","cave","14","m150priest.wav","space","672.407721519","111","456370.176381","463236.57017","464003.199952","464769.60682","465536.480541","466302.859583","467069.615199","453253.77262","457119.913505","457886.631093","458653.029922","459419.655376","460186.390896","460953.672108","461719.766091","462486.733182","466312.365142","Mapping"
"Mixed","Both","cave","14","m160romp.wav","None","724.719370366","111","456370.176381","463236.57017","464003.199952","464769.60682","465536.480541","466302.859583","467069.615199","467836.937222","457119.913505","457886.631093","458653.029922","459419.655376","460186.390896","460953.672108","461719.766091","462486.733182","467079.229587","Mapping"
"Mixed","Both","cave","17","m160priest.wav","None","722.294826584","111","470953.423223","463236.57017","464003.199952","464769.60682","465536.480541","466302.859583","467069.615199","467836.937222","457119.913505","457886.631093","458653.029922","459419.655376","460186.390896","460953.672108","461719.766091","462486.733182","467846.772052","Mapping"
"Mixed","Both","cave","17","m150tile.wav","None","719.482578512","111","470953.423223","463236.57017","464003.199952","464769.60682","465536.480541","466302.859583","467069.615199","467836.937222","471702.913626","457886.631093","458653.029922","459419.655376","460186.390896","460953.672108","461719.766091","462486.733182","470963.613912","Mapping"
"Mixed","Both","cave","17","m160done.wav","None","735.862934438","111","470953.423223","463236.57017","464003.199952","464769.60682","465536.480541","466302.859583","467069.615199","467836.937222","471702.913626","472469.53537","458653.029922","459419.655376","460186.390896","460953.672108","461719.766091","462486.733182","471712.268927","Mapping"
"Mixed","Both","cave","17","m150lash.wav","None","733.932760137","111","470953.423223","463236.57017","464003.199952","464769.60682","465536.480541","466302.859583","467069.615199","467836.937222","471702.913626","472469.53537","473236.297788","459419.655376","460186.390896","460953.672108","461719.766091","462486.733182","472479.109566","Mapping"
"Mixed","Both","cave","17","m150cave.wav","None","732.292900502","111","470953.423223","463236.57017","464003.199952","464769.60682","465536.480541","466302.859583","467069.615199","467836.937222","471702.913626","472469.53537","473236.297788","474003.000226","460186.390896","460953.672108","461719.766091","462486.733182","473245.682151","Mapping"
"Mixed","Both","cave","17","m160park.wav","space","507.586669992","111","470953.423223","463236.57017","464003.199952","464769.60682","465536.480541","466302.859583","467069.615199","467836.937222","471702.913626","472469.53537","473236.297788","474003.000226","474769.494281","460953.672108","461719.766091","462486.733182","474013.032927","Mapping"
"Mixed","Both","cave","17","m160cave.wav","None","727.812966972","111","470953.423223","463236.57017","464003.199952","464769.60682","465536.480541","466302.859583","467069.615199","467836.937222","471702.913626","472469.53537","473236.297788","474003.000226","474769.494281","475536.280505","461719.766091","462486.733182","474778.855456","Mapping"
"Mixed","Both","cave","17","m150romp.wav","space","518.48938741","111","470953.423223","463236.57017","464003.199952","464769.60682","465536.480541","466302.859583","467069.615199","467836.937222","471702.913626","472469.53537","473236.297788","474003.000226","474769.494281","475536.280505","476303.090227","462486.733182","475546.11719","Mapping"
"Mixed","Both","cave","17","m160cave.wav","None","722.084279056","111","470953.423223","463236.57017","464003.199952","464769.60682","465536.480541","466302.859583","467069.615199","467836.937222","471702.913626","472469.53537","473236.297788","474003.000226","474769.494281","475536.280505","476303.090227","477069.813689","476313.032958","Mapping"
"Mixed","Both","cave","17","m150cling.wav","space","505.263226223","111","470953.423223","477819.280286","464003.199952","464769.60682","465536.480541","466302.859583","467069.615199","467836.937222","471702.913626","472469.53537","473236.297788","474003.000226","474769.494281","475536.280505","476303.090227","477069.813689","477079.331615","Mapping"
"Mixed","Both","cave","17","m160lash.wav","None","734.43795077","111","470953.423223","477819.280286","478586.38465","464769.60682","465536.480541","466302.859583","467069.615199","467836.937222","471702.913626","472469.53537","473236.297788","474003.000226","474769.494281","475536.280505","476303.090227","477069.813689","477829.106768","Mapping"
"Mixed","Both","cave","17","m150tile.wav","None","732.360300433","111","470953.423223","477819.280286","478586.38465","479352.941158","465536.480541","466302.859583","467069.615199","467836.937222","471702.913626","472469.53537","473236.297788","474003.000226","474769.494281","475536.280505","476303.090227","477069.813689","478596.125491","Mapping"
"Mixed","Both","cave","17","m150depth.wav","None","730.723223242","111","470953.423223","477819.280286","478586.38465","479352.941158","480119.487773","466302.859583","467069.615199","467836.937222","471702.913626","472469.53537","473236.297788","474003.000226","474769.494281","475536.280505","476303.090227","477069.813689","479362.830094","Mapping"
"Mixed","Both","cave","17","m160gnash.wav","None","729.431184474","111","470953.423223","477819.280286","478586.38465","479352.941158","480119.487773","480886.052319","467069.615199","467836.937222","471702.913626","472469.53537","473236.297788","474003.000226","474769.494281","475536.280505","476303.090227","477069.813689","480129.198624","Mapping"
"Mixed","Both","cave","17","m150cave.wav","None","728.17562829","111","470953.423223","477819.280286","478586.38465","479352.941158","480119.487773","480886.052319","481652.636343","467836.937222","471702.913626","472469.53537","473236.297788","474003.000226","474769.494281","475536.280505","476303.090227","477069.813689","480895.5047","Mapping"
"Mixed","Both","cave","17","m160cling.wav","space","330.775226408","111","470953.423223","477819.280286","478586.38465","479352.941158","480119.487773","480886.052319","481652.636343","482419.792031","471702.913626","472469.53537","473236.297788","474003.000226","474769.494281","475536.280505","476303.090227","477069.813689","481661.73874","Mapping"
"Mixed","Both","done","47","m160gnash.wav","None","722.847630037","111","485536.486106","477819.280286","478586.38465","479352.941158","480119.487773","480886.052319","481652.636343","482419.792031","471702.913626","472469.53537","473236.297788","474003.000226","474769.494281","475536.280505","476303.090227","477069.813689","482429.872345","Mapping"
"Mixed","Both","done","47","m150done.wav","None","720.673517324","111","485536.486106","477819.280286","478586.38465","479352.941158","480119.487773","480886.052319","481652.636343","482419.792031","486303.297992","472469.53537","473236.297788","474003.000226","474769.494281","475536.280505","476303.090227","477069.813689","485546.196029","Mapping"
"Mixed","Both","done","47","m150depth.wav","space","358.723951678","111","485536.486106","477819.280286","478586.38465","479352.941158","480119.487773","480886.052319","481652.636343","482419.792031","486303.297992","487052.921959","473236.297788","474003.000226","474769.494281","475536.280505","476303.090227","477069.813689","486313.725199","Mapping"
"Mixed","Both","done","47","m150cad.wav","None","732.606403064","111","485536.486106","477819.280286","478586.38465","479352.941158","480119.487773","480886.052319","481652.636343","482419.792031","486303.297992","487052.921959","487819.322024","474003.000226","474769.494281","475536.280505","476303.090227","477069.813689","487062.726799","Mapping"
"Mixed","Both","done","47","m150priest.wav","None","731.454420136","111","485536.486106","477819.280286","478586.38465","479352.941158","480119.487773","480886.052319","481652.636343","482419.792031","486303.297992","487052.921959","487819.322024","488585.90945","474769.494281","475536.280505","476303.090227","477069.813689","487828.9899","Mapping"
"Mixed","Both","done","47","m160greet.wav","None","730.025726371","111","485536.486106","477819.280286","478586.38465","479352.941158","480119.487773","480886.052319","481652.636343","482419.792031","486303.297992","487052.921959","487819.322024","488585.90945","489352.862628","475536.280505","476303.090227","477069.813689","488595.435105","Mapping"
"Mixed","Both","done","47","m150done.wav","None","727.889332979","111","485536.486106","477819.280286","478586.38465","479352.941158","480119.487773","480886.052319","481652.636343","482419.792031","486303.297992","487052.921959","487819.322024","488585.90945","489352.862628","490119.29392","476303.090227","477069.813689","489362.831949","Mapping"
"Mixed","Both","done","47","m160bluff.wav","space","575.633119093","111","485536.486106","477819.280286","478586.38465","479352.941158","480119.487773","480886.052319","481652.636343","482419.792031","486303.297992","487052.921959","487819.322024","488585.90945","489352.862628","490119.29392","490886.453318","477069.813689","490128.747848","Mapping"
"Mixed","Both","done","47","m150romp.wav","None","722.894933657","111","485536.486106","477819.280286","478586.38465","479352.941158","480119.487773","480886.052319","481652.636343","482419.792031","486303.297992","487052.921959","487819.322024","488585.90945","489352.862628","490119.29392","490886.453318","491653.156684","490896.381518","Mapping"
"Mixed","Both","done","47","m160done.wav","None","721.511688491","111","485536.486106","492419.734834","478586.38465","479352.941158","480119.487773","480886.052319","481652.636343","482419.792031","486303.297992","487052.921959","487819.322024","488585.90945","489352.862628","490119.29392","490886.453318","491653.156684","491663.200824","Mapping"
"Mixed","Both","done","47","m160priest.wav","space","378.878705727","111","485536.486106","492419.734834","493169.177006","479352.941158","480119.487773","480886.052319","481652.636343","482419.792031","486303.297992","487052.921959","487819.322024","488585.90945","489352.862628","490119.29392","490886.453318","491653.156684","492429.476911","Mapping"
"Mixed","Both","done","47","m160gnash.wav","None","734.756090969","111","485536.486106","492419.734834","493169.177006","493936.063403","480119.487773","480886.052319","481652.636343","482419.792031","486303.297992","487052.921959","487819.322024","488585.90945","489352.862628","490119.29392","490886.453318","491653.156684","493178.654431","Mapping"
"Mixed","Both","done","47","m160done.wav","None","732.384725183","111","485536.486106","492419.734834","493169.177006","493936.063403","494702.709571","480886.052319","481652.636343","482419.792031","486303.297992","487052.921959","487819.322024","488585.90945","489352.862628","490119.29392","490886.453318","491653.156684","493946.170615","Mapping"
"Mixed","Both","done","47","m160ball.wav","space","423.116580583","111","485536.486106","492419.734834","493169.177006","493936.063403","494702.709571","495469.325132","481652.636343","482419.792031","486303.297992","487052.921959","487819.322024","488585.90945","489352.862628","490119.29392","490886.453318","491653.156684","494713.215309","Mapping"
"Mixed","Both","done","47","m150cling.wav","None","728.601979441","111","485536.486106","492419.734834","493169.177006","493936.063403","494702.709571","495469.325132","496236.051994","482419.792031","486303.297992","487052.921959","487819.322024","488585.90945","489352.862628","490119.29392","490886.453318","491653.156684","495478.955906","Mapping"
"Mixed","Both","done","47","m150tile.wav","None","726.927801326","111","485536.486106","492419.734834","493169.177006","493936.063403","494702.709571","495469.325132","496236.051994","497002.71424","486303.297992","487052.921959","487819.322024","488585.90945","489352.862628","490119.29392","490886.453318","491653.156684","496245.796545","Mapping"
"Mixed","Both","ball","6","m160gnash.wav","None","726.144972432","111","500136.166172","492419.734834","493169.177006","493936.063403","494702.709571","495469.325132","496236.051994","497002.71424","486303.297992","487052.921959","487819.322024","488585.90945","489352.862628","490119.29392","490886.453318","491653.156684","497012.147762","Mapping"
"Mixed","Both","ball","6","m150ball.wav","None","720.127824985","111","500136.166172","492419.734834","493169.177006","493936.063403","494702.709571","495469.325132","496236.051994","497002.71424","500902.558509","487052.921959","487819.322024","488585.90945","489352.862628","490119.29392","490886.453318","491653.156684","500146.536183","Mapping"
"Mixed","Both","ball","6","m150knife.wav","space","512.010024686","111","500136.166172","492419.734834","493169.177006","493936.063403","494702.709571","495469.325132","496236.051994","497002.71424","500902.558509","501652.69385","487819.322024","488585.90945","489352.862628","490119.29392","490886.453318","491653.156684","500912.234732","Mapping"
"Mixed","Both","ball","6","m160cave.wav","None","733.033063356","111","500136.166172","492419.734834","493169.177006","493936.063403","494702.709571","495469.325132","496236.051994","497002.71424","500902.558509","501652.69385","502419.09237","488585.90945","489352.862628","490119.29392","490886.453318","491653.156684","501662.357088","Mapping"
"Mixed","Both","ball","6","m160ball.wav","None","731.80471448","111","500136.166172","492419.734834","493169.177006","493936.063403","494702.709571","495469.325132","496236.051994","497002.71424","500902.558509","501652.69385","502419.09237","503186.076466","489352.862628","490119.29392","490886.453318","491653.156684","502428.767975","Mapping"
"Mixed","Both","ball","6","m160romp.wav","space","491.474986426","111","500136.166172","492419.734834","493169.177006","493936.063403","494702.709571","495469.325132","496236.051994","497002.71424","500902.558509","501652.69385","502419.09237","503186.076466","503952.656471","490119.29392","490886.453318","491653.156684","503196.726897","Mapping"
"Mixed","Both","ball","6","m160jolt.wav","None","726.804440841","111","500136.166172","492419.734834","493169.177006","493936.063403","494702.709571","495469.325132","496236.051994","497002.71424","500902.558509","501652.69385","502419.09237","503186.076466","503952.656471","504718.989755","490886.453318","491653.156684","503962.544788","Mapping"
"Mixed","Both","ball","6","m150ball.wav","None","726.311926439","111","500136.166172","492419.734834","493169.177006","493936.063403","494702.709571","495469.325132","496236.051994","497002.71424","500902.558509","501652.69385","502419.09237","503186.076466","503952.656471","504718.989755","505485.839978","491653.156684","504728.719466","Mapping"
"Mixed","Both","ball","6","m150depth.wav","space","328.380054212","111","500136.166172","492419.734834","493169.177006","493936.063403","494702.709571","495469.325132","496236.051994","497002.71424","500902.558509","501652.69385","502419.09237","503186.076466","503952.656471","504718.989755","505485.839978","506252.626512","505495.757358","Mapping"
"Mixed","Both","ball","6","m150park.wav","None","721.898156218","111","500136.166172","507019.072644","493169.177006","493936.063403","494702.709571","495469.325132","496236.051994","497002.71424","500902.558509","501652.69385","502419.09237","503186.076466","503952.656471","504718.989755","505485.839978","506252.626512","506262.141346","Mapping"
"Mixed","Both","ball","6","m150depth.wav","None","720.479356009","111","500136.166172","507019.072644","507769.124199","493936.063403","494702.709571","495469.325132","496236.051994","497002.71424","500902.558509","501652.69385","502419.09237","503186.076466","503952.656471","504718.989755","505485.839978","506252.626512","507028.845949","Mapping"
"Mixed","Both","ball","6","m160ball.wav","None","736.242600309","111","500136.166172","507019.072644","507769.124199","508535.495203","494702.709571","495469.325132","496236.051994","497002.71424","500902.558509","501652.69385","502419.09237","503186.076466","503952.656471","504718.989755","505485.839978","506252.626512","507778.328932","Mapping"
"Mixed","Both","ball","6","m150jaw.wav","space","511.140317714","111","500136.166172","507019.072644","507769.124199","508535.495203","509302.265041","495469.325132","496236.051994","497002.71424","500902.558509","501652.69385","502419.09237","503186.076466","503952.656471","504718.989755","505485.839978","506252.626512","508545.033535","Mapping"
"Mixed","Both","ball","6","m150cave.wav","None","731.569432945","111","500136.166172","507019.072644","507769.124199","508535.495203","509302.265041","510068.98572","496236.051994","497002.71424","500902.558509","501652.69385","502419.09237","503186.076466","503952.656471","504718.989755","505485.839978","506252.626512","509311.871082","Mapping"
"Mixed","Both","ball","6","m160park.wav","None","729.807758587","111","500136.166172","507019.072644","507769.124199","508535.495203","509302.265041","510068.98572","510835.861605","497002.71424","500902.558509","501652.69385","502419.09237","503186.076466","503952.656471","504718.989755","505485.839978","506252.626512","510078.860434","Mapping"
