"Condition","Talker","Target","Trial","current_stimulus","response_response","response_time_response","subject_nr","time_Audio1","time_Audio10","time_Audio11","time_Audio12","time_Audio13","time_Audio14","time_Audio15","time_Audio16","time_Audio2","time_Audio3","time_Audio4","time_Audio5","time_Audio6","time_Audio7","time_Audio8","time_Audio9","time_response","title"
"Mixed","Both","tile","27","m160cave.wav","NA","NA","151","241110.333712","NA","NA","NA","NA","NA","NA","NA","NA","NA","NA","NA","NA","NA","NA","NA","NA","Mapping"
"Mixed","Both","tile","27","m150tile.wav","None","718.771729153","151","241110.333712","NA","NA","NA","NA","NA","NA","NA","241876.227456","NA","NA","NA","NA","NA","NA","NA","241123.951555","Mapping"
"Mixed","Both","tile","27","m150cave.wav","space","509.838973638","151","241110.333712","NA","NA","NA","NA","NA","NA","NA","241876.227456","242642.908355","NA","NA","NA","NA","NA","NA","241885.179566","Mapping"
"Mixed","Both","tile","27","m150tile.wav","None","727.91799996","151","241110.333712","NA","NA","NA","NA","NA","NA","NA","241876.227456","242642.908355","243409.708595","NA","NA","NA","NA","NA","242651.824292","Mapping"
"Mixed","Both","tile","27","m150jaw.wav","space","440.245632082","151","241110.333712","NA","NA","NA","NA","NA","NA","NA","241876.227456","242642.908355","243409.708595","244176.704851","NA","NA","NA","NA","243418.755312","Mapping"
"Mixed","Both","tile","27","m150cad.wav","None","724.113005213","151","241110.333712","NA","NA","NA","NA","NA","NA","NA","241876.227456","242642.908355","243409.708595","244176.704851","244943.457478","NA","NA","NA","244185.678603","Mapping"
"Mixed","Both","tile","27","m160romp.wav","None","722.998744808","151","241110.333712","NA","NA","NA","NA","NA","NA","NA","241876.227456","242642.908355","243409.708595","244176.704851","244943.457478","245710.334393","NA","NA","244953.385029","Mapping"
"Mixed","Both","tile","27","m160tile.wav","None","722.21529996","151","241110.333712","NA","NA","NA","NA","NA","NA","NA","241876.227456","242642.908355","243409.708595","244176.704851","244943.457478","245710.334393","246476.400346","NA","245720.83577","Mapping"
"Mixed","Both","tile","27","m150greet.wav","space","477.38475306","151","241110.333712","NA","NA","NA","NA","NA","NA","NA","241876.227456","242642.908355","243409.708595","244176.704851","244943.457478","245710.334393","246476.400346","247243.593854","246485.492512","Mapping"
"Mixed","Both","tile","27","m150romp.wav","None","722.758517601","151","241110.333712","248010.09636","NA","NA","NA","NA","NA","NA","241876.227456","242642.908355","243409.708595","244176.704851","244943.457478","245710.334393","246476.400346","247243.593854","247253.520478","Mapping"
"Mixed","Both","tile","27","m160tile.wav","None","723.110356834","151","241110.333712","248010.09636","248777.050259","NA","NA","NA","NA","NA","241876.227456","242642.908355","243409.708595","244176.704851","244943.457478","245710.334393","246476.400346","247243.593854","248019.964241","Mapping"
"Mixed","Both","tile","27","m160done.wav","space","440.419696271","151","241110.333712","248010.09636","248777.050259","249543.57317","NA","NA","NA","NA","241876.227456","242642.908355","243409.708595","244176.704851","244943.457478","245710.334393","246476.400346","247243.593854","248786.50663","Mapping"
"Mixed","Both","tile","27","m160greet.wav","None","719.153557904","151","241110.333712","248010.09636","248777.050259","249543.57317","250310.343111","NA","NA","NA","241876.227456","242642.908355","243409.708595","244176.704851","244943.457478","245710.334393","246476.400346","247243.593854","249553.604295","Mapping"
"Mixed","Both","tile","27","m160ball.wav","None","719.771904405","151","241110.333712","248010.09636","248777.050259","249543.57317","250310.343111","251076.353104","NA","NA","241876.227456","242642.908355","243409.708595","244176.704851","244943.457478","245710.334393","246476.400346","247243.593854","250319.699311","Mapping"
"Mixed","Both","tile","27","m160cling.wav","None","720.719829667","151","241110.333712","248010.09636","248777.050259","249543.57317","250310.343111","251076.353104","251843.178387","NA","241876.227456","242642.908355","243409.708595","244176.704851","244943.457478","245710.334393","246476.400346","247243.593854","251085.513288","Mapping"
"Mixed","Both","tile","27","m150depth.wav","None","720.955110155","151","241110.333712","248010.09636","248777.050259","249543.57317","250310.343111","251076.353104","251843.178387","252609.756641","241876.227456","242642.908355","243409.708595","244176.704851","244943.457478","245710.334393","246476.400346","247243.593854","251852.282919","Mapping"
"Mixed","Both","done","46","m150jolt.wav","None","721.489979886","151","255776.633803","248010.09636","248777.050259","249543.57317","250310.343111","251076.353104","251843.178387","252609.756641","241876.227456","242642.908355","243409.708595","244176.704851","244943.457478","245710.334393","246476.400346","247243.593854","252618.570241","Mapping"
"Mixed","Both","done","46","m160ball.wav","None","725.278897211","151","255776.633803","248010.09636","248777.050259","249543.57317","250310.343111","251076.353104","251843.178387","252609.756641","256542.986978","242642.908355","243409.708595","244176.704851","244943.457478","245710.334393","246476.400346","247243.593854","255785.70278","Mapping"
"Mixed","Both","done","46","m150priest.wav","None","727.711781394","151","255776.633803","248010.09636","248777.050259","249543.57317","250310.343111","251076.353104","251843.178387","252609.756641","256542.986978","257310.107212","243409.708595","244176.704851","244943.457478","245710.334393","246476.400346","247243.593854","256546.629347","Mapping"
"Mixed","Both","done","46","m150done.wav","None","721.638382878","151","255776.633803","248010.09636","248777.050259","249543.57317","250310.343111","251076.353104","251843.178387","252609.756641","256542.986978","257310.107212","258077.56259","244176.704851","244943.457478","245710.334393","246476.400346","247243.593854","257319.414562","Mapping"
"Mixed","Both","done","46","m150reek.wav","space","667.168866843","151","255776.633803","248010.09636","248777.050259","249543.57317","250310.343111","251076.353104","251843.178387","252609.756641","256542.986978","257310.107212","258077.56259","258843.561453","244943.457478","245710.334393","246476.400346","247243.593854","258087.551667","Mapping"
"Mixed","Both","done","46","m150knife.wav","None","722.596819978","151","255776.633803","248010.09636","248777.050259","249543.57317","250310.343111","251076.353104","251843.178387","252609.756641","256542.986978","257310.107212","258077.56259","258843.561453","259609.886803","245710.334393","246476.400346","247243.593854","258853.131909","Mapping"
"Mixed","Both","done","46","m150cad.wav","None","722.637012601","151","255776.633803","248010.09636","248777.050259","249543.57317","250310.343111","251076.353104","251843.178387","252609.756641","256542.986978","257310.107212","258077.56259","258843.561453","259609.886803","260376.751659","246476.400346","247243.593854","259619.751592","Mapping"
"Mixed","Both","done","46","m150bluff.wav","None","719.266097061","151","255776.633803","248010.09636","248777.050259","249543.57317","250310.343111","251076.353104","251843.178387","252609.756641","256542.986978","257310.107212","258077.56259","258843.561453","259609.886803","260376.751659","261142.950558","247243.593854","260386.35427","Mapping"
"Mixed","Both","done","46","m160ball.wav","None","720.076439902","151","255776.633803","248010.09636","248777.050259","249543.57317","250310.343111","251076.353104","251843.178387","252609.756641","256542.986978","257310.107212","258077.56259","258843.561453","259609.886803","260376.751659","261142.950558","261893.089144","261152.142277","Mapping"
"Mixed","Both","done","46","m160done.wav","None","733.484663535","151","255776.633803","262659.286805","248777.050259","249543.57317","250310.343111","251076.353104","251843.178387","252609.756641","256542.986978","257310.107212","258077.56259","258843.561453","259609.886803","260376.751659","261142.950558","261893.089144","261902.198623","Mapping"
"Mixed","Both","done","46","m160gnash.wav","space","478.433468845","151","255776.633803","262659.286805","263426.323563","249543.57317","250310.343111","251076.353104","251843.178387","252609.756641","256542.986978","257310.107212","258077.56259","258843.561453","259609.886803","260376.751659","261142.950558","261893.089144","262668.202124","Mapping"
"Mixed","Both","done","46","m160done.wav","None","730.188876856","151","255776.633803","262659.286805","263426.323563","264193.039707","250310.343111","251076.353104","251843.178387","252609.756641","256542.986978","257310.107212","258077.56259","258843.561453","259609.886803","260376.751659","261142.950558","261893.089144","263435.302262","Mapping"
"Mixed","Both","done","46","m160bluff.wav","space","480.117535684","151","255776.633803","262659.286805","263426.323563","264193.039707","264959.605594","251076.353104","251843.178387","252609.756641","256542.986978","257310.107212","258077.56259","258843.561453","259609.886803","260376.751659","261142.950558","261893.089144","264202.501335","Mapping"
"Mixed","Both","done","46","m150done.wav","None","726.733866613","151","255776.633803","262659.286805","263426.323563","264193.039707","264959.605594","265727.015832","251843.178387","252609.756641","256542.986978","257310.107212","258077.56259","258843.561453","259609.886803","260376.751659","261142.950558","261893.089144","264968.571617","Mapping"
"Mixed","Both","done","46","m160gnash.wav","space","337.458528113","151","255776.633803","262659.286805","263426.323563","264193.039707","264959.605594","265727.015832","266477.144526","252609.756641","256542.986978","257310.107212","258077.56259","258843.561453","259609.886803","260376.751659","261142.950558","261893.089144","265737.137545","Mapping"
"Mixed","Both","done","46","m160jolt.wav","None","735.738226678","151","255776.633803","262659.286805","263426.323563","264193.039707","264959.605594","265727.015832","266477.144526","267259.471753","256542.986978","257310.107212","258077.56259","258843.561453","259609.886803","260376.751659","261142.950558","261893.089144","266486.187533","Mapping"
"Mixed","Both","tile","31","m160park.wav","None","721.354252659","151","270376.252654","262659.286805","263426.323563","264193.039707","264959.605594","265727.015832","266477.144526","267259.471753","256542.986978","257310.107212","258077.56259","258843.561453","259609.886803","260376.751659","261142.950558","261893.089144","267268.743548","Mapping"
"Mixed","Both","tile","31","m160tile.wav","None","725.559008308","151","270376.252654","262659.286805","263426.323563","264193.039707","264959.605594","265727.015832","266477.144526","267259.471753","271143.457601","257310.107212","258077.56259","258843.561453","259609.886803","260376.751659","261142.950558","261893.089144","270385.332453","Mapping"
"Mixed","Both","tile","31","m150lash.wav","space","607.008399907","151","270376.252654","262659.286805","263426.323563","264193.039707","264959.605594","265727.015832","266477.144526","267259.471753","271143.457601","271909.801811","258077.56259","258843.561453","259609.886803","260376.751659","261142.950558","261893.089144","271147.466959","Mapping"
"Mixed","Both","tile","31","m150tile.wav","None","721.617050003","151","270376.252654","262659.286805","263426.323563","264193.039707","264959.605594","265727.015832","266477.144526","267259.471753","271143.457601","271909.801811","272659.267019","258843.561453","259609.886803","260376.751659","261142.950558","261893.089144","271919.353717","Mapping"
"Mixed","Both","tile","31","m150dime.wav","space","405.930498615","151","270376.252654","262659.286805","263426.323563","264193.039707","264959.605594","265727.015832","266477.144526","267259.471753","271143.457601","271909.801811","272659.267019","273442.499504","259609.886803","260376.751659","261142.950558","261893.089144","272668.533248","Mapping"
"Mixed","Both","tile","31","m150priest.wav","None","722.238488495","151","270376.252654","262659.286805","263426.323563","264193.039707","264959.605594","265727.015832","266477.144526","267259.471753","271143.457601","271909.801811","272659.267019","273442.499504","274192.388279","260376.751659","261142.950558","261893.089144","273451.222517","Mapping"
"Mixed","Both","tile","31","m160done.wav","None","735.962377395","151","270376.252654","262659.286805","263426.323563","264193.039707","264959.605594","265727.015832","266477.144526","267259.471753","271143.457601","271909.801811","272659.267019","273442.499504","274192.388279","274959.416689","261142.950558","261893.089144","274201.106345","Mapping"
"Mixed","Both","tile","31","m150knife.wav","None","732.356181368","151","270376.252654","262659.286805","263426.323563","264193.039707","264959.605594","265727.015832","266477.144526","267259.471753","271143.457601","271909.801811","272659.267019","273442.499504","274192.388279","274959.416689","275726.347091","261893.089144","274968.213594","Mapping"
"Mixed","Both","tile","31","m160ball.wav","None","728.614258114","151","270376.252654","262659.286805","263426.323563","264193.039707","264959.605594","265727.015832","266477.144526","267259.471753","271143.457601","271909.801811","272659.267019","273442.499504","274192.388279","274959.416689","275726.347091","276492.498376","275735.359799","Mapping"
"Mixed","Both","tile","31","m160tile.wav","None","726.164369378","151","270376.252654","277259.2711","263426.323563","264193.039707","264959.605594","265727.015832","266477.144526","267259.471753","271143.457601","271909.801811","272659.267019","273442.499504","274192.388279","274959.416689","275726.347091","276492.498376","276501.401637","Mapping"
"Mixed","Both","tile","31","m160cave.wav","space","518.046594225","151","270376.252654","277259.2711","278009.405976","264193.039707","264959.605594","265727.015832","266477.144526","267259.471753","271143.457601","271909.801811","272659.267019","273442.499504","274192.388279","274959.416689","275726.347091","276492.498376","277268.281643","Mapping"
"Mixed","Both","tile","31","m150dime.wav","None","735.711947083","151","270376.252654","277259.2711","278009.405976","278776.102952","264959.605594","265727.015832","266477.144526","267259.471753","271143.457601","271909.801811","272659.267019","273442.499504","274192.388279","274959.416689","275726.347091","276492.498376","278018.83545","Mapping"
"Mixed","Both","tile","31","m150ball.wav","None","732.84591129","151","270376.252654","277259.2711","278009.405976","278776.102952","279542.790653","265727.015832","266477.144526","267259.471753","271143.457601","271909.801811","272659.267019","273442.499504","274192.388279","274959.416689","275726.347091","276492.498376","278785.229436","Mapping"
"Mixed","Both","tile","31","m150tile.wav","None","733.144882135","151","270376.252654","277259.2711","278009.405976","278776.102952","279542.790653","280309.021396","266477.144526","267259.471753","271143.457601","271909.801811","272659.267019","273442.499504","274192.388279","274959.416689","275726.347091","276492.498376","279551.910644","Mapping"
"Mixed","Both","tile","31","m160gnash.wav","space","492.436850909","151","270376.252654","277259.2711","278009.405976","278776.102952","279542.790653","280309.021396","281076.056916","267259.471753","271143.457601","271909.801811","272659.267019","273442.499504","274192.388279","274959.416689","275726.347091","276492.498376","280317.917236","Mapping"
"Mixed","Both","tile","31","m160jaw.wav","None","726.561965887","151","270376.252654","277259.2711","278009.405976","278776.102952","279542.790653","280309.021396","281076.056916","281842.415038","271143.457601","271909.801811","272659.267019","273442.499504","274192.388279","274959.416689","275726.347091","276492.498376","281085.322528","Mapping"
"Mixed","Both","ball","10","m150bluff.wav","None","728.217279539","151","284959.68938","277259.2711","278009.405976","278776.102952","279542.790653","280309.021396","281076.056916","281842.415038","271143.457601","271909.801811","272659.267019","273442.499504","274192.388279","274959.416689","275726.347091","276492.498376","281851.200195","Mapping"
"Mixed","Both","ball","10","m160ball.wav","None","720.065309666","151","284959.68938","277259.2711","278009.405976","278776.102952","279542.790653","280309.021396","281076.056916","281842.415038","285708.871385","271909.801811","272659.267019","273442.499504","274192.388279","274959.416689","275726.347091","276492.498376","284969.107723","Mapping"
"Mixed","Both","ball","10","m150jolt.wav","space","532.266088296","151","284959.68938","277259.2711","278009.405976","278776.102952","279542.790653","280309.021396","281076.056916","281842.415038","285708.871385","286475.815699","272659.267019","273442.499504","274192.388279","274959.416689","275726.347091","276492.498376","285717.970043","Mapping"
"Mixed","Both","ball","10","m150ball.wav","None","730.908941478","151","284959.68938","277259.2711","278009.405976","278776.102952","279542.790653","280309.021396","281076.056916","281842.415038","285708.871385","286475.815699","287242.645311","273442.499504","274192.388279","274959.416689","275726.347091","276492.498376","286484.777703","Mapping"
"Mixed","Both","ball","10","m150park.wav","space","428.176128771","151","284959.68938","277259.2711","278009.405976","278776.102952","279542.790653","280309.021396","281076.056916","281842.415038","285708.871385","286475.815699","287242.645311","288009.171932","274192.388279","274959.416689","275726.347091","276492.498376","287254.008353","Mapping"
"Mixed","Both","ball","10","m150depth.wav","None","727.316039614","151","284959.68938","277259.2711","278009.405976","278776.102952","279542.790653","280309.021396","281076.056916","281842.415038","285708.871385","286475.815699","287242.645311","288009.171932","288776.417072","274959.416689","275726.347091","276492.498376","288018.344174","Mapping"
"Mixed","Both","ball","10","m160park.wav","None","723.459722009","151","284959.68938","277259.2711","278009.405976","278776.102952","279542.790653","280309.021396","281076.056916","281842.415038","285708.871385","286475.815699","287242.645311","288009.171932","288776.417072","289542.122839","275726.347091","276492.498376","288785.968051","Mapping"
"Mixed","Both","ball","10","m160gnash.wav","None","722.379779909","151","284959.68938","277259.2711","278009.405976","278776.102952","279542.790653","280309.021396","281076.056916","281842.415038","285708.871385","286475.815699","287242.645311","288009.171932","288776.417072","289542.122839","290292.634289","276492.498376","289550.658493","Mapping"
"Mixed","Both","ball","10","m160greet.wav","None","733.959553298","151","284959.68938","277259.2711","278009.405976","278776.102952","279542.790653","280309.021396","281076.056916","281842.415038","285708.871385","286475.815699","287242.645311","288009.171932","288776.417072","289542.122839","290292.634289","291059.087636","290302.529686","Mapping"
"Mixed","Both","ball","10","m150depth.wav","None","731.568716932","151","284959.68938","291825.981246","278009.405976","278776.102952","279542.790653","280309.021396","281076.056916","281842.415038","285708.871385","286475.815699","287242.645311","288009.171932","288776.417072","289542.122839","290292.634289","291059.087636","291068.117658","Mapping"
"Mixed","Both","ball","10","m160dime.wav","None","733.591637108","151","284959.68938","291825.981246","292592.255892","278776.102952","279542.790653","280309.021396","281076.056916","281842.415038","285708.871385","286475.815699","287242.645311","288009.171932","288776.417072","289542.122839","290292.634289","291059.087636","291830.095414","Mapping"
"Mixed","Both","ball","10","m150ball.wav","None","729.792517144","151","284959.68938","291825.981246","292592.255892","293359.096324","279542.790653","280309.021396","281076.056916","281842.415038","285708.871385","286475.815699","287242.645311","288009.171932","288776.417072","289542.122839","290292.634289","291059.087636","292601.061144","Mapping"
"Mixed","Both","ball","10","m150done.wav","space","545.909283217","151","284959.68938","291825.981246","292592.255892","293359.096324","294125.713842","280309.021396","281076.056916","281842.415038","285708.871385","286475.815699","287242.645311","288009.171932","288776.417072","289542.122839","290292.634289","291059.087636","293376.188346","Mapping"
"Mixed","Both","ball","10","m160romp.wav","None","722.534985282","151","284959.68938","291825.981246","292592.255892","293359.096324","294125.713842","294875.773899","281076.056916","281842.415038","285708.871385","286475.815699","287242.645311","288009.171932","288776.417072","289542.122839","290292.634289","291059.087636","294135.019337","Mapping"
"Mixed","Both","ball","10","m160ball.wav","None","735.345886089","151","284959.68938","291825.981246","292592.255892","293359.096324","294125.713842","294875.773899","295642.123364","281842.415038","285708.871385","286475.815699","287242.645311","288009.171932","288776.417072","289542.122839","290292.634289","291059.087636","294885.731131","Mapping"
"Mixed","Both","ball","10","m160jaw.wav","space","671.094439458","151","284959.68938","291825.981246","292592.255892","293359.096324","294125.713842","294875.773899","295642.123364","296408.827142","285708.871385","286475.815699","287242.645311","288009.171932","288776.417072","289542.122839","290292.634289","291059.087636","295650.957679","Mapping"
"Mixed","Both","tile","33","m150jolt.wav","None","729.812304024","151","299542.85527","291825.981246","292592.255892","293359.096324","294125.713842","294875.773899","295642.123364","296408.827142","285708.871385","286475.815699","287242.645311","288009.171932","288776.417072","289542.122839","290292.634289","291059.087636","296417.761011","Mapping"
"Mixed","Both","tile","33","m160tile.wav","None","719.021231867","151","299542.85527","291825.981246","292592.255892","293359.096324","294125.713842","294875.773899","295642.123364","296408.827142","300292.327898","286475.815699","287242.645311","288009.171932","288776.417072","289542.122839","290292.634289","291059.087636","299553.044691","Mapping"
"Mixed","Both","tile","33","m150jaw.wav","space","524.303022772","151","299542.85527","291825.981246","292592.255892","293359.096324","294125.713842","294875.773899","295642.123364","296408.827142","300292.327898","301058.664996","287242.645311","288009.171932","288776.417072","289542.122839","290292.634289","291059.087636","300301.681006","Mapping"
"Mixed","Both","tile","33","m160tile.wav","None","731.043741107","151","299542.85527","291825.981246","292592.255892","293359.096324","294125.713842","294875.773899","295642.123364","296408.827142","300292.327898","301058.664996","301825.317451","288009.171932","288776.417072","289542.122839","290292.634289","291059.087636","301067.750978","Mapping"
"Mixed","Both","tile","33","m150priest.wav","space","431.434504688","151","299542.85527","291825.981246","292592.255892","293359.096324","294125.713842","294875.773899","295642.123364","296408.827142","300292.327898","301058.664996","301825.317451","302591.975781","288776.417072","289542.122839","290292.634289","291059.087636","301834.500823","Mapping"
"Mixed","Both","tile","33","m160jolt.wav","None","725.056910887","151","299542.85527","291825.981246","292592.255892","293359.096324","294125.713842","294875.773899","295642.123364","296408.827142","300292.327898","301058.664996","301825.317451","302591.975781","303359.302852","289542.122839","290292.634289","291059.087636","302600.971793","Mapping"
"Mixed","Both","tile","33","m150greet.wav","None","721.067958511","151","299542.85527","291825.981246","292592.255892","293359.096324","294125.713842","294875.773899","295642.123364","296408.827142","300292.327898","301058.664996","301825.317451","302591.975781","303359.302852","304108.866686","290292.634289","291059.087636","303368.866197","Mapping"
"Mixed","Both","tile","33","m160done.wav","None","734.816890676","151","299542.85527","291825.981246","292592.255892","293359.096324","294125.713842","294875.773899","295642.123364","296408.827142","300292.327898","301058.664996","301825.317451","302591.975781","303359.302852","304108.866686","304875.804198","291059.087636","304118.585854","Mapping"
"Mixed","Both","tile","33","m150tile.wav","None","731.847282033","151","299542.85527","291825.981246","292592.255892","293359.096324","294125.713842","294875.773899","295642.123364","296408.827142","300292.327898","301058.664996","301825.317451","302591.975781","303359.302852","304108.866686","304875.804198","305642.329892","304885.408045","Mapping"
"Mixed","Both","tile","33","m150jaw.wav","space","494.007450063","151","299542.85527","306408.898561","292592.255892","293359.096324","294125.713842","294875.773899","295642.123364","296408.827142","300292.327898","301058.664996","301825.317451","302591.975781","303359.302852","304108.866686","304875.804198","305642.329892","305651.862939","Mapping"
"Mixed","Both","tile","33","m150tile.wav","None","725.428846199","151","299542.85527","306408.898561","307176.344973","293359.096324","294125.713842","294875.773899","295642.123364","296408.827142","300292.327898","301058.664996","301825.317451","302591.975781","303359.302852","304108.866686","304875.804198","305642.329892","306418.357715","Mapping"
"Mixed","Both","tile","33","m160ball.wav","space","686.789616942","151","299542.85527","306408.898561","307176.344973","307925.572427","294125.713842","294875.773899","295642.123364","296408.827142","300292.327898","301058.664996","301825.317451","302591.975781","303359.302852","304108.866686","304875.804198","305642.329892","307187.045148","Mapping"
"Mixed","Both","tile","33","m160reek.wav","None","735.389788635","151","299542.85527","306408.898561","307176.344973","307925.572427","308692.488915","294875.773899","295642.123364","296408.827142","300292.327898","301058.664996","301825.317451","302591.975781","303359.302852","304108.866686","304875.804198","305642.329892","307935.292214","Mapping"
"Mixed","Both","tile","33","m160jolt.wav","None","735.938880127","151","299542.85527","306408.898561","307176.344973","307925.572427","308692.488915","309458.757377","295642.123364","296408.827142","300292.327898","301058.664996","301825.317451","302591.975781","303359.302852","304108.866686","304875.804198","305642.329892","308701.788845","Mapping"
"Mixed","Both","tile","33","m160bluff.wav","None","732.971745078","151","299542.85527","306408.898561","307176.344973","307925.572427","308692.488915","309458.757377","310225.534429","296408.827142","300292.327898","301058.664996","301825.317451","302591.975781","303359.302852","304108.866686","304875.804198","305642.329892","309468.265072","Mapping"
"Mixed","Both","tile","33","m150cling.wav","None","730.178365018","151","299542.85527","306408.898561","307176.344973","307925.572427","308692.488915","309458.757377","310225.534429","310992.232332","300292.327898","301058.664996","301825.317451","302591.975781","303359.302852","304108.866686","304875.804198","305642.329892","310234.761394","Mapping"
"Mixed","Both","done","45","m160bluff.wav","None","730.558339041","151","314125.811232","306408.898561","307176.344973","307925.572427","308692.488915","309458.757377","310225.534429","310992.232332","300292.327898","301058.664996","301825.317451","302591.975781","303359.302852","304108.866686","304875.804198","305642.329892","311001.658405","Mapping"
"Mixed","Both","done","45","m150depth.wav","None","720.269673504","151","314125.811232","306408.898561","307176.344973","307925.572427","308692.488915","309458.757377","310225.534429","310992.232332","314875.139476","301058.664996","301825.317451","302591.975781","303359.302852","304108.866686","304875.804198","305642.329892","314135.56781","Mapping"
"Mixed","Both","done","45","m150knife.wav","None","735.275085084","151","314125.811232","306408.898561","307176.344973","307925.572427","308692.488915","309458.757377","310225.534429","310992.232332","314875.139476","315642.132331","301825.317451","302591.975781","303359.302852","304108.866686","304875.804198","305642.329892","314884.491965","Mapping"
"Mixed","Both","done","45","m160bluff.wav","None","731.744945981","151","314125.811232","306408.898561","307176.344973","307925.572427","308692.488915","309458.757377","310225.534429","310992.232332","314875.139476","315642.132331","316408.375749","302591.975781","303359.302852","304108.866686","304875.804198","305642.329892","315651.652082","Mapping"
"Mixed","Both","done","45","m160knife.wav","None","729.585061781","151","314125.811232","306408.898561","307176.344973","307925.572427","308692.488915","309458.757377","310225.534429","310992.232332","314875.139476","315642.132331","316408.375749","317175.567403","303359.302852","304108.866686","304875.804198","305642.329892","316417.505634","Mapping"
"Mixed","Both","done","45","m160done.wav","None","729.367095046","151","314125.811232","306408.898561","307176.344973","307925.572427","308692.488915","309458.757377","310225.534429","310992.232332","314875.139476","315642.132331","316408.375749","317175.567403","317942.068672","304108.866686","304875.804198","305642.329892","317184.643491","Mapping"
"Mixed","Both","done","45","m160cave.wav","space","561.922290362","151","314125.811232","306408.898561","307176.344973","307925.572427","308692.488915","309458.757377","310225.534429","310992.232332","314875.139476","315642.132331","316408.375749","317175.567403","317942.068672","318708.974958","304875.804198","305642.329892","317951.732499","Mapping"
"Mixed","Both","done","45","m160done.wav","None","722.069988959","151","314125.811232","306408.898561","307176.344973","307925.572427","308692.488915","309458.757377","310225.534429","310992.232332","314875.139476","315642.132331","316408.375749","317175.567403","317942.068672","318708.974958","319475.133973","305642.329892","318718.682687","Mapping"
"Mixed","Both","done","45","m160cling.wav","space","405.244752299","151","314125.811232","306408.898561","307176.344973","307925.572427","308692.488915","309458.757377","310225.534429","310992.232332","314875.139476","315642.132331","316408.375749","317175.567403","317942.068672","318708.974958","319475.133973","320225.372422","319484.368976","Mapping"
"Mixed","Both","done","45","m150done.wav","None","732.381842565","151","314125.811232","320991.693444","307176.344973","307925.572427","308692.488915","309458.757377","310225.534429","310992.232332","314875.139476","315642.132331","316408.375749","317175.567403","317942.068672","318708.974958","319475.133973","320225.372422","320235.23412","Mapping"
"Mixed","Both","done","45","m150dime.wav","space","400.165963918","151","314125.811232","320991.693444","321758.211717","307925.572427","308692.488915","309458.757377","310225.534429","310992.232332","314875.139476","315642.132331","316408.375749","317175.567403","317942.068672","318708.974958","319475.133973","320225.372422","321001.43611","Mapping"
"Mixed","Both","done","45","m150bluff.wav","None","726.865574252","151","314125.811232","320991.693444","321758.211717","322525.988945","308692.488915","309458.757377","310225.534429","310992.232332","314875.139476","315642.132331","316408.375749","317175.567403","317942.068672","318708.974958","319475.133973","320225.372422","321767.24885","Mapping"
"Mixed","Both","done","45","m150gnash.wav","None","722.303414717","151","314125.811232","320991.693444","321758.211717","322525.988945","323292.197118","309458.757377","310225.534429","310992.232332","314875.139476","315642.132331","316408.375749","317175.567403","317942.068672","318708.974958","319475.133973","320225.372422","322535.555382","Mapping"
"Mixed","Both","done","45","m150done.wav","None","723.277928308","151","314125.811232","320991.693444","321758.211717","322525.988945","323292.197118","324058.534835","310225.534429","310992.232332","314875.139476","315642.132331","316408.375749","317175.567403","317942.068672","318708.974958","319475.133973","320225.372422","323302.217421","Mapping"
"Mixed","Both","done","45","m160jaw.wav","space","574.020547327","151","314125.811232","320991.693444","321758.211717","322525.988945","323292.197118","324058.534835","324808.136388","310992.232332","314875.139476","315642.132331","316408.375749","317175.567403","317942.068672","318708.974958","319475.133973","320225.372422","324067.522499","Mapping"
"Mixed","Both","done","45","m150dime.wav","None","734.692294151","151","314125.811232","320991.693444","321758.211717","322525.988945","323292.197118","324058.534835","324808.136388","325574.858407","314875.139476","315642.132331","316408.375749","317175.567403","317942.068672","318708.974958","319475.133973","320225.372422","324817.534016","Mapping"
"Mixed","Both","tile","29","m160park.wav","None","732.073287945","151","328708.799657","320991.693444","321758.211717","322525.988945","323292.197118","324058.534835","324808.136388","325574.858407","314875.139476","315642.132331","316408.375749","317175.567403","317942.068672","318708.974958","319475.133973","320225.372422","325583.940987","Mapping"
"Mixed","Both","tile","29","m160cling.wav","None","718.913021497","151","328708.799657","320991.693444","321758.211717","322525.988945","323292.197118","324058.534835","324808.136388","325574.858407","329458.442639","315642.132331","316408.375749","317175.567403","317942.068672","318708.974958","319475.133973","320225.372422","328719.509416","Mapping"
"Mixed","Both","tile","29","m150tile.wav","None","734.183085617","151","328708.799657","320991.693444","321758.211717","322525.988945","323292.197118","324058.534835","324808.136388","325574.858407","329458.442639","330225.286163","316408.375749","317175.567403","317942.068672","318708.974958","319475.133973","320225.372422","329467.895301","Mapping"
"Mixed","Both","tile","29","m150dime.wav","space","606.09850334","151","328708.799657","320991.693444","321758.211717","322525.988945","323292.197118","324058.534835","324808.136388","325574.858407","329458.442639","330225.286163","330991.94542","317175.567403","317942.068672","318708.974958","319475.133973","320225.372422","330235.333055","Mapping"
"Mixed","Both","tile","29","m150reek.wav","None","727.397661656","151","328708.799657","320991.693444","321758.211717","322525.988945","323292.197118","324058.534835","324808.136388","325574.858407","329458.442639","330225.286163","330991.94542","331758.429685","317942.068672","318708.974958","319475.133973","320225.372422","331001.440129","Mapping"
"Mixed","Both","tile","29","m150tile.wav","None","724.666116294","151","328708.799657","320991.693444","321758.211717","322525.988945","323292.197118","324058.534835","324808.136388","325574.858407","329458.442639","330225.286163","330991.94542","331758.429685","332525.630613","318708.974958","319475.133973","320225.372422","331767.753112","Mapping"
"Mixed","Both","tile","29","m160lash.wav","space","561.974540818","151","328708.799657","320991.693444","321758.211717","322525.988945","323292.197118","324058.534835","324808.136388","325574.858407","329458.442639","330225.286163","330991.94542","331758.429685","332525.630613","333292.304401","319475.133973","320225.372422","332535.422747","Mapping"
"Mixed","Both","tile","29","m160greet.wav","None","722.054220736","151","328708.799657","320991.693444","321758.211717","322525.988945","323292.197118","324058.534835","324808.136388","325574.858407","329458.442639","330225.286163","330991.94542","331758.429685","332525.630613","333292.304401","334058.90677","320225.372422","333302.207837","Mapping"
"Mixed","Both","tile","29","m160lash.wav","None","719.127896708","151","328708.799657","320991.693444","321758.211717","322525.988945","323292.197118","324058.534835","324808.136388","325574.858407","329458.442639","330225.286163","330991.94542","331758.429685","332525.630613","333292.304401","334058.90677","334808.391146","334068.823809","Mapping"
"Mixed","Both","tile","29","m160tile.wav","None","733.259894419","151","328708.799657","335575.186749","321758.211717","322525.988945","323292.197118","324058.534835","324808.136388","325574.858407","329458.442639","330225.286163","330991.94542","331758.429685","332525.630613","333292.304401","334058.90677","334808.391146","334818.407121","Mapping"
"Mixed","Both","tile","29","m150reek.wav","space","664.596236777","151","328708.799657","335575.186749","336341.837039","322525.988945","323292.197118","324058.534835","324808.136388","325574.858407","329458.442639","330225.286163","330991.94542","331758.429685","332525.630613","333292.304401","334058.90677","334808.391146","335584.739582","Mapping"
"Mixed","Both","tile","29","m160tile.wav","None","727.486084681","151","328708.799657","335575.186749","336341.837039","337107.997909","323292.197118","324058.534835","324808.136388","325574.858407","329458.442639","330225.286163","330991.94542","331758.429685","332525.630613","333292.304401","334058.90677","334808.391146","336350.9796","Mapping"
"Mixed","Both","tile","29","m150cave.wav","space","676.293186378","151","328708.799657","335575.186749","336341.837039","337107.997909","337875.152461","324058.534835","324808.136388","325574.858407","329458.442639","330225.286163","330991.94542","331758.429685","332525.630613","333292.304401","334058.90677","334808.391146","337117.015563","Mapping"
"Mixed","Both","tile","29","m160romp.wav","None","723.225059919","151","328708.799657","335575.186749","336341.837039","337107.997909","337875.152461","338642.171905","324808.136388","325574.858407","329458.442639","330225.286163","330991.94542","331758.429685","332525.630613","333292.304401","334058.90677","334808.391146","337884.234424","Mapping"
"Mixed","Both","tile","29","m150dime.wav","None","719.070390332","151","328708.799657","335575.186749","336341.837039","337107.997909","337875.152461","338642.171905","339391.652262","325574.858407","329458.442639","330225.286163","330991.94542","331758.429685","332525.630613","333292.304401","334058.90677","334808.391146","338652.203029","Mapping"
"Mixed","Both","tile","29","m150ball.wav","None","733.98676049","151","328708.799657","335575.186749","336341.837039","337107.997909","337875.152461","338642.171905","339391.652262","340158.258032","329458.442639","330225.286163","330991.94542","331758.429685","332525.630613","333292.304401","334058.90677","334808.391146","339401.2558","Mapping"
"Mixed","Both","done","47","m160gnash.wav","None","731.424642261","151","343292.138066","335575.186749","336341.837039","337107.997909","337875.152461","338642.171905","339391.652262","340158.258032","329458.442639","330225.286163","330991.94542","331758.429685","332525.630613","333292.304401","334058.90677","334808.391146","340167.526117","Mapping"
"Mixed","Both","done","47","m150cling.wav","None","718.590862583","151","343292.138066","335575.186749","336341.837039","337107.997909","337875.152461","338642.171905","339391.652262","340158.258032","344041.562772","330225.286163","330991.94542","331758.429685","332525.630613","333292.304401","334058.90677","334808.391146","343302.556893","Mapping"
"Mixed","Both","done","47","m160done.wav","None","733.900501393","151","343292.138066","335575.186749","336341.837039","337107.997909","337875.152461","338642.171905","339391.652262","340158.258032","344041.562772","344807.867098","330991.94542","331758.429685","332525.630613","333292.304401","334058.90677","334808.391146","344050.944014","Mapping"
"Mixed","Both","done","47","m150romp.wav","space","488.354218658","151","343292.138066","335575.186749","336341.837039","337107.997909","337875.152461","338642.171905","339391.652262","340158.258032","344041.562772","344807.867098","345574.539958","331758.429685","332525.630613","333292.304401","334058.90677","334808.391146","344816.804367","Mapping"
"Mixed","Both","done","47","m160greet.wav","None","728.142769076","151","343292.138066","335575.186749","336341.837039","337107.997909","337875.152461","338642.171905","339391.652262","340158.258032","344041.562772","344807.867098","345574.539958","346341.15253","332525.630613","333292.304401","334058.90677","334808.391146","345583.650365","Mapping"
"Mixed","Both","done","47","m160done.wav","None","725.391745567","151","343292.138066","335575.186749","336341.837039","337107.997909","337875.152461","338642.171905","339391.652262","340158.258032","344041.562772","344807.867098","345574.539958","346341.15253","347108.536488","333292.304401","334058.90677","334808.391146","346350.233874","Mapping"
"Mixed","Both","done","47","m150dime.wav","space","498.959477525","151","343292.138066","335575.186749","336341.837039","337107.997909","337875.152461","338642.171905","339391.652262","340158.258032","344041.562772","344807.867098","345574.539958","346341.15253","347108.536488","347857.86195","334058.90677","334808.391146","347118.17218","Mapping"
"Mixed","Both","done","47","m150done.wav","None","735.217887908","151","343292.138066","335575.186749","336341.837039","337107.997909","337875.152461","338642.171905","339391.652262","340158.258032","344041.562772","344807.867098","345574.539958","346341.15253","347108.536488","347857.86195","348624.872427","334808.391146","347867.186305","Mapping"
"Mixed","Both","done","47","m150depth.wav","space","590.123523958","151","343292.138066","335575.186749","336341.837039","337107.997909","337875.152461","338642.171905","339391.652262","340158.258032","344041.562772","344807.867098","345574.539958","346341.15253","347108.536488","347857.86195","348624.872427","349391.512515","348635.004652","Mapping"
"Mixed","Both","done","47","m150cling.wav","None","728.519032709","151","343292.138066","350158.106537","336341.837039","337107.997909","337875.152461","338642.171905","339391.652262","340158.258032","344041.562772","344807.867098","345574.539958","346341.15253","347108.536488","347857.86195","348624.872427","349391.512515","349400.837488","Mapping"
"Mixed","Both","done","47","m160jaw.wav","None","725.722560659","151","343292.138066","350158.106537","350924.683244","337107.997909","337875.152461","338642.171905","339391.652262","340158.258032","344041.562772","344807.867098","345574.539958","346341.15253","347108.536488","347857.86195","348624.872427","349391.512515","350167.468611","Mapping"
"Mixed","Both","done","47","m160dime.wav","None","723.674597684","151","343292.138066","350158.106537","350924.683244","351691.270773","337875.152461","338642.171905","339391.652262","340158.258032","344041.562772","344807.867098","345574.539958","346341.15253","347108.536488","347857.86195","348624.872427","349391.512515","350933.647103","Mapping"
"Mixed","Both","done","47","m150done.wav","None","720.713646151","151","343292.138066","350158.106537","350924.683244","351691.270773","352441.447079","338642.171905","339391.652262","340158.258032","344041.562772","344807.867098","345574.539958","346341.15253","347108.536488","347857.86195","348624.872427","349391.512515","351700.567302","Mapping"
"Mixed","Both","done","47","m160cling.wav","space","494.319406338","151","343292.138066","350158.106537","350924.683244","351691.270773","352441.447079","353208.035844","339391.652262","340158.258032","344041.562772","344807.867098","345574.539958","346341.15253","347108.536488","347857.86195","348624.872427","349391.512515","352450.6793","Mapping"
"Mixed","Both","done","47","m160cling.wav","None","730.536387768","151","343292.138066","350158.106537","350924.683244","351691.270773","352441.447079","353208.035844","353974.370779","340158.258032","344041.562772","344807.867098","345574.539958","346341.15253","347108.536488","347857.86195","348624.872427","349391.512515","353217.487578","Mapping"
"Mixed","Both","done","47","m150cling.wav","None","727.946752682","151","343292.138066","350158.106537","350924.683244","351691.270773","352441.447079","353208.035844","353974.370779","354741.434743","344041.562772","344807.867098","345574.539958","346341.15253","347108.536488","347857.86195","348624.872427","349391.512515","353983.957621","Mapping"
"Mixed","Both","cave","17","m150cad.wav","None","724.389406387","151","357858.173287","350158.106537","350924.683244","351691.270773","352441.447079","353208.035844","353974.370779","354741.434743","344041.562772","344807.867098","345574.539958","346341.15253","347108.536488","347857.86195","348624.872427","349391.512515","354751.345599","Mapping"
"Mixed","Both","cave","17","m150knife.wav","None","719.552391674","151","357858.173287","350158.106537","350924.683244","351691.270773","352441.447079","353208.035844","353974.370779","354741.434743","358607.640659","344807.867098","345574.539958","346341.15253","347108.536488","347857.86195","348624.872427","349391.512515","357868.239348","Mapping"
"Mixed","Both","cave","17","m160jaw.wav","None","734.791847412","151","357858.173287","350158.106537","350924.683244","351691.270773","352441.447079","353208.035844","353974.370779","354741.434743","358607.640659","359374.752237","345574.539958","346341.15253","347108.536488","347857.86195","348624.872427","349391.512515","358616.563707","Mapping"
"Mixed","Both","cave","17","m150lash.wav","None","731.272528879","151","357858.173287","350158.106537","350924.683244","351691.270773","352441.447079","353208.035844","353974.370779","354741.434743","358607.640659","359374.752237","360141.326162","346341.15253","347108.536488","347857.86195","348624.872427","349391.512515","359384.030833","Mapping"
"Mixed","Both","cave","17","m150cave.wav","None","728.279732633","151","357858.173287","350158.106537","350924.683244","351691.270773","352441.447079","353208.035844","353974.370779","354741.434743","358607.640659","359374.752237","360141.326162","360907.854947","347108.536488","347857.86195","348624.872427","349391.512515","360150.765838","Mapping"
"Mixed","Both","cave","17","m160done.wav","space","539.364086464","151","357858.173287","350158.106537","350924.683244","351691.270773","352441.447079","353208.035844","353974.370779","354741.434743","358607.640659","359374.752237","360141.326162","360907.854947","361675.095759","347857.86195","348624.872427","349391.512515","360917.522793","Mapping"
"Mixed","Both","cave","17","m160dime.wav","None","721.091764979","151","357858.173287","350158.106537","350924.683244","351691.270773","352441.447079","353208.035844","353974.370779","354741.434743","358607.640659","359374.752237","360141.326162","360907.854947","361675.095759","362424.617236","348624.872427","349391.512515","361684.801633","Mapping"
"Mixed","Both","cave","17","m150depth.wav","None","735.493361484","151","357858.173287","350158.106537","350924.683244","351691.270773","352441.447079","353208.035844","353974.370779","354741.434743","358607.640659","359374.752237","360141.326162","360907.854947","361675.095759","362424.617236","363191.333071","349391.512515","362434.325275","Mapping"
"Mixed","Both","cave","17","m160cave.wav","None","732.628253289","151","357858.173287","350158.106537","350924.683244","351691.270773","352441.447079","353208.035844","353974.370779","354741.434743","358607.640659","359374.752237","360141.326162","360907.854947","361675.095759","362424.617236","363191.333071","363957.800022","363200.877558","Mapping"
"Mixed","Both","cave","17","m160knife.wav","space","633.856073488","151","357858.173287","364724.751139","350924.683244","351691.270773","352441.447079","353208.035844","353974.370779","354741.434743","358607.640659","359374.752237","360141.326162","360907.854947","361675.095759","362424.617236","363191.333071","363957.800022","363966.96237","Mapping"
"Mixed","Both","cave","17","m150tile.wav","None","726.457156241","151","357858.173287","364724.751139","365491.491399","351691.270773","352441.447079","353208.035844","353974.370779","354741.434743","358607.640659","359374.752237","360141.326162","360907.854947","361675.095759","362424.617236","363191.333071","363957.800022","364733.808059","Mapping"
"Mixed","Both","cave","17","m160cave.wav","None","721.999497153","151","357858.173287","364724.751139","365491.491399","366258.252992","352441.447079","353208.035844","353974.370779","354741.434743","358607.640659","359374.752237","360141.326162","360907.854947","361675.095759","362424.617236","363191.333071","363957.800022","365502.079344","Mapping"
"Mixed","Both","cave","17","m160priest.wav","space","556.897607632","151","357858.173287","364724.751139","365491.491399","366258.252992","367025.042102","353208.035844","353974.370779","354741.434743","358607.640659","359374.752237","360141.326162","360907.854947","361675.095759","362424.617236","363191.333071","363957.800022","366267.909708","Mapping"
"Mixed","Both","cave","17","m150cave.wav","None","720.397980418","151","357858.173287","364724.751139","365491.491399","366258.252992","367025.042102","367774.410538","353974.370779","354741.434743","358607.640659","359374.752237","360141.326162","360907.854947","361675.095759","362424.617236","363191.333071","363957.800022","367035.209262","Mapping"
"Mixed","Both","cave","17","m150park.wav","space","448.459436186","151","357858.173287","364724.751139","365491.491399","366258.252992","367025.042102","367774.410538","368541.189136","354741.434743","358607.640659","359374.752237","360141.326162","360907.854947","361675.095759","362424.617236","363191.333071","363957.800022","367784.310573","Mapping"
"Mixed","Both","cave","17","m160jolt.wav","None","731.394034345","151","357858.173287","364724.751139","365491.491399","366258.252992","367025.042102","367774.410538","368541.189136","369307.393908","358607.640659","359374.752237","360141.326162","360907.854947","361675.095759","362424.617236","363191.333071","363957.800022","368551.005076","Mapping"
"Mixed","Both","cave","15","m160done.wav","None","729.771802668","151","372441.564256","364724.751139","365491.491399","366258.252992","367025.042102","367774.410538","368541.189136","369307.393908","358607.640659","359374.752237","360141.326162","360907.854947","361675.095759","362424.617236","363191.333071","363957.800022","369316.521628","Mapping"
"Mixed","Both","cave","15","m150cave.wav","None","719.241981395","151","372441.564256","364724.751139","365491.491399","366258.252992","367025.042102","367774.410538","368541.189136","369307.393908","373190.648871","359374.752237","360141.326162","360907.854947","361675.095759","362424.617236","363191.333071","363957.800022","372451.394109","Mapping"
"Mixed","Both","cave","15","m150cling.wav","space","625.022067223","151","372441.564256","364724.751139","365491.491399","366258.252992","367025.042102","367774.410538","368541.189136","369307.393908","373190.648871","373957.302254","360141.326162","360907.854947","361675.095759","362424.617236","363191.333071","363957.800022","373199.66127","Mapping"
"Mixed","Both","cave","15","m160reek.wav","None","731.108976528","151","372441.564256","364724.751139","365491.491399","366258.252992","367025.042102","367774.410538","368541.189136","369307.393908","373190.648871","373957.302254","374724.106204","360907.854947","361675.095759","362424.617236","363191.333071","363957.800022","373966.437085","Mapping"
"Mixed","Both","cave","15","m150depth.wav","None","728.123600129","151","372441.564256","364724.751139","365491.491399","366258.252992","367025.042102","367774.410538","368541.189136","369307.393908","373190.648871","373957.302254","374724.106204","375490.689404","361675.095759","362424.617236","363191.333071","363957.800022","374733.382018","Mapping"
"Mixed","Both","cave","15","m150jolt.wav","None","725.2220097","151","372441.564256","364724.751139","365491.491399","366258.252992","367025.042102","367774.410538","368541.189136","369307.393908","373190.648871","373957.302254","374724.106204","375490.689404","376258.056358","362424.617236","363191.333071","363957.800022","375500.27099","Mapping"
"Mixed","Both","cave","15","m160gnash.wav","None","721.718149725","151","372441.564256","364724.751139","365491.491399","366258.252992","367025.042102","367774.410538","368541.189136","369307.393908","373190.648871","373957.302254","374724.106204","375490.689404","376258.056358","377024.700465","363191.333071","363957.800022","376267.592187","Mapping"
"Mixed","Both","cave","15","m160cave.wav","None","718.914876226","151","372441.564256","364724.751139","365491.491399","366258.252992","367025.042102","367774.410538","368541.189136","369307.393908","373190.648871","373957.302254","374724.106204","375490.689404","376258.056358","377024.700465","377773.850316","363957.800022","377034.388098","Mapping"
"Mixed","Both","cave","15","m150lash.wav","space","505.552595947","151","372441.564256","364724.751139","365491.491399","366258.252992","367025.042102","367774.410538","368541.189136","369307.393908","373190.648871","373957.302254","374724.106204","375490.689404","376258.056358","377024.700465","377773.850316","378540.674053","377783.042036","Mapping"
"Mixed","Both","cave","15","m160cave.wav","None","731.104029808","151","372441.564256","379307.545094","365491.491399","366258.252992","367025.042102","367774.410538","368541.189136","369307.393908","373190.648871","373957.302254","374724.106204","375490.689404","376258.056358","377024.700465","377773.850316","378540.674053","378549.727572","Mapping"
"Mixed","Both","cave","15","m150cad.wav","space","651.583754923","151","372441.564256","379307.545094","380074.817441","366258.252992","367025.042102","367774.410538","368541.189136","369307.393908","373190.648871","373957.302254","374724.106204","375490.689404","376258.056358","377024.700465","377773.850316","378540.674053","379316.975495","Mapping"
"Mixed","Both","cave","15","m160gnash.wav","None","723.321831319","151","372441.564256","379307.545094","380074.817441","380841.43094","367025.042102","367774.410538","368541.189136","369307.393908","373190.648871","373957.302254","374724.106204","375490.689404","376258.056358","377024.700465","377773.850316","378540.674053","380084.557943","Mapping"
"Mixed","Both","cave","15","m150cave.wav","None","720.959747676","151","372441.564256","379307.545094","380074.817441","380841.43094","381591.200992","367774.410538","368541.189136","369307.393908","373190.648871","373957.302254","374724.106204","375490.689404","376258.056358","377024.700465","377773.850316","378540.674053","380851.40023","Mapping"
"Mixed","Both","cave","15","m150lash.wav","space","487.960950471","151","372441.564256","379307.545094","380074.817441","380841.43094","381591.200992","382357.551076","368541.189136","369307.393908","373190.648871","373957.302254","374724.106204","375490.689404","376258.056358","377024.700465","377773.850316","378540.674053","381600.515144","Mapping"
"Mixed","Both","cave","15","m160cling.wav","None","732.59022506","151","372441.564256","379307.545094","380074.817441","380841.43094","381591.200992","382357.551076","383124.23383","369307.393908","373190.648871","373957.302254","374724.106204","375490.689404","376258.056358","377024.700465","377773.850316","378540.674053","382366.885015","Mapping"
"Mixed","Both","cave","15","m160cad.wav","None","730.07942969","151","372441.564256","379307.545094","380074.817441","380841.43094","381591.200992","382357.551076","383124.23383","383890.54403","373190.648871","373957.302254","374724.106204","375490.689404","376258.056358","377024.700465","377773.850316","378540.674053","383133.279311","Mapping"
"Mixed","Both","tile","26","m160lash.wav","None","731.481530238","151","387024.740349","379307.545094","380074.817441","380841.43094","381591.200992","382357.551076","383124.23383","383890.54403","373190.648871","373957.302254","374724.106204","375490.689404","376258.056358","377024.700465","377773.850316","378540.674053","383899.432142","Mapping"
"Mixed","Both","tile","26","m150tile.wav","None","719.036072027","151","387024.740349","379307.545094","380074.817441","380841.43094","381591.200992","382357.551076","383124.23383","383890.54403","387773.696657","373957.302254","374724.106204","375490.689404","376258.056358","377024.700465","377773.850316","378540.674053","387034.556907","Mapping"
"Mixed","Both","tile","26","m160gnash.wav","space","529.660067055","151","387024.740349","379307.545094","380074.817441","380841.43094","381591.200992","382357.551076","383124.23383","383890.54403","387773.696657","388540.946435","374724.106204","375490.689404","376258.056358","377024.700465","377773.850316","378540.674053","387782.75234","Mapping"
"Mixed","Both","tile","26","m160tile.wav","None","730.047275778","151","387024.740349","379307.545094","380074.817441","380841.43094","381591.200992","382357.551076","383124.23383","383890.54403","387773.696657","388540.946435","389307.395763","375490.689404","376258.056358","377024.700465","377773.850316","378540.674053","388550.931492","Mapping"
"Mixed","Both","tile","26","m150dime.wav","space","427.61003226","151","387024.740349","379307.545094","380074.817441","380841.43094","381591.200992","382357.551076","383124.23383","383890.54403","387773.696657","388540.946435","389307.395763","390074.218263","376258.056358","377024.700465","377773.850316","378540.674053","389316.801739","Mapping"
"Mixed","Both","tile","26","m160tile.wav","None","724.097546656","151","387024.740349","379307.545094","380074.817441","380841.43094","381591.200992","382357.551076","383124.23383","383890.54403","387773.696657","388540.946435","389307.395763","390074.218263","390841.201843","377024.700465","377773.850316","378540.674053","390084.174877","Mapping"
"Mixed","Both","tile","26","m160lash.wav","space","461.531897541","151","387024.740349","379307.545094","380074.817441","380841.43094","381591.200992","382357.551076","383124.23383","383890.54403","387773.696657","388540.946435","389307.395763","390074.218263","390841.201843","391590.458668","377773.850316","378540.674053","390850.803216","Mapping"
"Mixed","Both","tile","26","m150priest.wav","None","736.740875524","151","387024.740349","379307.545094","380074.817441","380841.43094","381591.200992","382357.551076","383124.23383","383890.54403","387773.696657","388540.946435","389307.395763","390074.218263","390841.201843","391590.458668","392357.349186","378540.674053","391599.266085","Mapping"
"Mixed","Both","tile","26","m160romp.wav","None","733.82753646","151","387024.740349","379307.545094","380074.817441","380841.43094","381591.200992","382357.551076","383124.23383","383890.54403","387773.696657","388540.946435","389307.395763","390074.218263","390841.201843","391590.458668","392357.349186","393124.152518","392366.434241","Mapping"
"Mixed","Both","tile","26","m160greet.wav","None","730.908632278","151","387024.740349","393890.704492","380074.817441","380841.43094","381591.200992","382357.551076","383124.23383","383890.54403","387773.696657","388540.946435","389307.395763","390074.218263","390841.201843","391590.458668","392357.349186","393124.152518","393133.489239","Mapping"
"Mixed","Both","tile","26","m150tile.wav","None","728.068567347","151","387024.740349","393890.704492","394657.256774","380841.43094","381591.200992","382357.551076","383124.23383","383890.54403","387773.696657","388540.946435","389307.395763","390074.218263","390841.201843","391590.458668","392357.349186","393124.152518","393900.581957","Mapping"
"Mixed","Both","tile","26","m150done.wav","space","461.114823353","151","387024.740349","393890.704492","394657.256774","395424.590647","381591.200992","382357.551076","383124.23383","383890.54403","387773.696657","388540.946435","389307.395763","390074.218263","390841.201843","391590.458668","392357.349186","393124.152518","394667.158046","Mapping"
"Mixed","Both","tile","26","m150greet.wav","None","720.89111153","151","387024.740349","393890.704492","394657.256774","395424.590647","396191.056671","382357.551076","383124.23383","383890.54403","387773.696657","388540.946435","389307.395763","390074.218263","390841.201843","391590.458668","392357.349186","393124.152518","395434.96279","Mapping"
"Mixed","Both","tile","26","m150depth.wav","None","718.844075687","151","387024.740349","393890.704492","394657.256774","395424.590647","396191.056671","396940.586186","383124.23383","383890.54403","387773.696657","388540.946435","389307.395763","390074.218263","390841.201843","391590.458668","392357.349186","393124.152518","396200.951759","Mapping"
"Mixed","Both","tile","26","m150lash.wav","None","733.909158036","151","387024.740349","393890.704492","394657.256774","395424.590647","396191.056671","396940.586186","397707.25781","383890.54403","387773.696657","388540.946435","389307.395763","390074.218263","390841.201843","391590.458668","392357.349186","393124.152518","396950.075949","Mapping"
"Mixed","Both","tile","26","m160done.wav","None","731.863668188","151","387024.740349","393890.704492","394657.256774","395424.590647","396191.056671","396940.586186","397707.25781","398473.935308","387773.696657","388540.946435","389307.395763","390074.218263","390841.201843","391590.458668","392357.349186","393124.152518","397716.447674","Mapping"
"Mixed","Both","ball","6","m160cad.wav","None","728.881692979","151","401607.514207","393890.704492","394657.256774","395424.590647","396191.056671","396940.586186","397707.25781","398473.935308","387773.696657","388540.946435","389307.395763","390074.218263","390841.201843","391590.458668","392357.349186","393124.152518","398483.737644","Mapping"
"Mixed","Both","ball","6","m160knife.wav","None","718.706802931","151","401607.514207","393890.704492","394657.256774","395424.590647","396191.056671","396940.586186","397707.25781","398473.935308","402357.049597","388540.946435","389307.395763","390074.218263","390841.201843","391590.458668","392357.349186","393124.152518","401617.493391","Mapping"
"Mixed","Both","ball","6","m160dime.wav","None","734.172882978","151","401607.514207","393890.704492","394657.256774","395424.590647","396191.056671","396940.586186","397707.25781","398473.935308","402357.049597","403124.286699","389307.395763","390074.218263","390841.201843","391590.458668","392357.349186","393124.152518","402366.21751","Mapping"
"Mixed","Both","ball","6","m150bluff.wav","None","730.473934673","151","401607.514207","393890.704492","394657.256774","395424.590647","396191.056671","396940.586186","397707.25781","398473.935308","402357.049597","403124.286699","403890.504147","390074.218263","390841.201843","391590.458668","392357.349186","393124.152518","403133.968767","Mapping"
"Mixed","Both","ball","6","m150ball.wav","None","728.682276327","151","401607.514207","393890.704492","394657.256774","395424.590647","396191.056671","396940.586186","397707.25781","398473.935308","402357.049597","403124.286699","403890.504147","404656.719431","390841.201843","391590.458668","392357.349186","393124.152518","403899.868076","Mapping"
"Mixed","Both","ball","6","m150reek.wav","space","494.144414086","151","401607.514207","393890.704492","394657.256774","395424.590647","396191.056671","396940.586186","397707.25781","398473.935308","402357.049597","403124.286699","403890.504147","404656.719431","405424.384119","391590.458668","392357.349186","393124.152518","404665.937121","Mapping"
"Mixed","Both","ball","6","m150knife.wav","None","722.138006706","151","401607.514207","393890.704492","394657.256774","395424.590647","396191.056671","396940.586186","397707.25781","398473.935308","402357.049597","403124.286699","403890.504147","404656.719431","405424.384119","406190.82108","392357.349186","393124.152518","405433.995077","Mapping"
"Mixed","Both","ball","6","m160ball.wav","None","719.116457272","151","401607.514207","393890.704492","394657.256774","395424.590647","396191.056671","396940.586186","397707.25781","398473.935308","402357.049597","403124.286699","403890.504147","404656.719431","405424.384119","406190.82108","406940.040496","393124.152518","406201.031835","Mapping"
"Mixed","Both","ball","6","m150dime.wav","space","619.042657781","151","401607.514207","393890.704492","394657.256774","395424.590647","396191.056671","396940.586186","397707.25781","398473.935308","402357.049597","403124.286699","403890.504147","404656.719431","405424.384119","406190.82108","406940.040496","407707.0822","406949.037745","Mapping"
"Mixed","Both","ball","6","m160ball.wav","None","731.089808047","151","401607.514207","408473.780412","394657.256774","395424.590647","396191.056671","396940.586186","397707.25781","398473.935308","402357.049597","403124.286699","403890.504147","404656.719431","405424.384119","406190.82108","406940.040496","407707.0822","407716.323696","Mapping"
"Mixed","Both","ball","6","m160done.wav","space","405.032350216","151","401607.514207","408473.780412","409240.457601","395424.590647","396191.056671","396940.586186","397707.25781","398473.935308","402357.049597","403124.286699","403890.504147","404656.719431","405424.384119","406190.82108","406940.040496","407707.0822","408482.986972","Mapping"
"Mixed","Both","ball","6","m160priest.wav","None","723.625439219","151","401607.514207","408473.780412","409240.457601","410007.140974","396191.056671","396940.586186","397707.25781","398473.935308","402357.049597","403124.286699","403890.504147","404656.719431","405424.384119","406190.82108","406940.040496","407707.0822","409250.915694","Mapping"
"Mixed","Both","ball","6","m150dime.wav","None","721.480704378","151","401607.514207","408473.780412","409240.457601","410007.140974","410774.107548","396940.586186","397707.25781","398473.935308","402357.049597","403124.286699","403890.504147","404656.719431","405424.384119","406190.82108","406940.040496","407707.0822","410017.387592","Mapping"
"Mixed","Both","ball","6","m150ball.wav","None","719.301342964","151","401607.514207","408473.780412","409240.457601","410007.140974","410774.107548","411523.65747","397707.25781","398473.935308","402357.049597","403124.286699","403890.504147","404656.719431","405424.384119","406190.82108","406940.040496","407707.0822","410783.753443","Mapping"
"Mixed","Both","ball","6","m150knife.wav","space","474.649498239","151","401607.514207","408473.780412","409240.457601","410007.140974","410774.107548","411523.65747","412290.396493","398473.935308","402357.049597","403124.286699","403890.504147","404656.719431","405424.384119","406190.82108","406940.040496","407707.0822","411533.326552","Mapping"
"Mixed","Both","ball","6","m160reek.wav","None","729.969364125","151","401607.514207","408473.780412","409240.457601","410007.140974","410774.107548","411523.65747","412290.396493","413056.957124","402357.049597","403124.286699","403890.504147","404656.719431","405424.384119","406190.82108","406940.040496","407707.0822","412300.345996","Mapping"
"Mixed","Both","done","43","m160gnash.wav","None","728.002404328","151","416190.720908","408473.780412","409240.457601","410007.140974","410774.107548","411523.65747","412290.396493","413056.957124","402357.049597","403124.286699","403890.504147","404656.719431","405424.384119","406190.82108","406940.040496","407707.0822","413066.49388","Mapping"
"Mixed","Both","done","43","m150done.wav","None","718.917967752","151","416190.720908","408473.780412","409240.457601","410007.140974","410774.107548","411523.65747","412290.396493","413056.957124","416940.333283","403124.286699","403890.504147","404656.719431","405424.384119","406190.82108","406940.040496","407707.0822","416200.987314","Mapping"
"Mixed","Both","done","43","m160jolt.wav","space","657.916240394","151","416190.720908","408473.780412","409240.457601","410007.140974","410774.107548","411523.65747","412290.396493","413056.957124","416940.333283","417706.957603","403890.504147","404656.719431","405424.384119","406190.82108","406940.040496","407707.0822","416949.925381","Mapping"
"Mixed","Both","done","43","m150jolt.wav","None","730.865966529","151","416190.720908","408473.780412","409240.457601","410007.140974","410774.107548","411523.65747","412290.396493","413056.957124","416940.333283","417706.957603","418473.674366","404656.719431","405424.384119","406190.82108","406940.040496","407707.0822","417716.31844","Mapping"
"Mixed","Both","done","43","m150done.wav","None","728.398146108","151","416190.720908","408473.780412","409240.457601","410007.140974","410774.107548","411523.65747","412290.396493","413056.957124","416940.333283","417706.957603","418473.674366","419240.222011","405424.384119","406190.82108","406940.040496","407707.0822","418482.919572","Mapping"
"Mixed","Both","done","43","m150priest.wav","space","630.516075063","151","416190.720908","408473.780412","409240.457601","410007.140974","410774.107548","411523.65747","412290.396493","413056.957124","416940.333283","417706.957603","418473.674366","419240.222011","420007.322458","406190.82108","406940.040496","407707.0822","419249.326543","Mapping"
"Mixed","Both","done","43","m150greet.wav","None","721.068267711","151","416190.720908","408473.780412","409240.457601","410007.140974","410774.107548","411523.65747","412290.396493","413056.957124","416940.333283","417706.957603","418473.674366","419240.222011","420007.322458","420773.458594","406940.040496","407707.0822","420017.804357","Mapping"
"Mixed","Both","done","43","m160lash.wav","None","720.389632508","151","416190.720908","408473.780412","409240.457601","410007.140974","410774.107548","411523.65747","412290.396493","413056.957124","416940.333283","417706.957603","418473.674366","419240.222011","420007.322458","420773.458594","421523.190927","407707.0822","420782.724205","Mapping"
"Mixed","Both","done","43","m160romp.wav","None","735.247259494","151","416190.720908","408473.780412","409240.457601","410007.140974","410774.107548","411523.65747","412290.396493","413056.957124","416940.333283","417706.957603","418473.674366","419240.222011","420007.322458","420773.458594","421523.190927","422289.877391","421532.271035","Mapping"
"Mixed","Both","done","43","m160park.wav","None","732.837254647","151","416190.720908","423056.827271","409240.457601","410007.140974","410774.107548","411523.65747","412290.396493","413056.957124","416940.333283","417706.957603","418473.674366","419240.222011","420007.322458","420773.458594","421523.190927","422289.877391","422299.09168","Mapping"
"Mixed","Both","done","43","m160lash.wav","None","729.373587295","151","416190.720908","423056.827271","423823.452519","410007.140974","410774.107548","411523.65747","412290.396493","413056.957124","416940.333283","417706.957603","418473.674366","419240.222011","420007.322458","420773.458594","421523.190927","422289.877391","423066.674128","Mapping"
"Mixed","Both","done","43","m150ball.wav","None","728.015698493","151","416190.720908","423056.827271","423823.452519","424590.117031","410774.107548","411523.65747","412290.396493","413056.957124","416940.333283","417706.957603","418473.674366","419240.222011","420007.322458","420773.458594","421523.190927","422289.877391","423833.082955","Mapping"
"Mixed","Both","done","43","m160done.wav","None","725.677112583","151","416190.720908","423056.827271","423823.452519","424590.117031","425357.087935","411523.65747","412290.396493","413056.957124","416940.333283","417706.957603","418473.674366","419240.222011","420007.322458","420773.458594","421523.190927","422289.877391","424599.669246","Mapping"
"Mixed","Both","done","43","m150jolt.wav","space","424.66763081","151","416190.720908","423056.827271","423823.452519","424590.117031","425357.087935","426123.649493","412290.396493","413056.957124","416940.333283","417706.957603","418473.674366","419240.222011","420007.322458","420773.458594","421523.190927","422289.877391","425367.052896","Mapping"
"Mixed","Both","done","43","m160done.wav","None","719.222503714","151","416190.720908","423056.827271","423823.452519","424590.117031","425357.087935","426123.649493","426873.426965","413056.957124","416940.333283","417706.957603","418473.674366","419240.222011","420007.322458","420773.458594","421523.190927","422289.877391","426133.532523","Mapping"
"Mixed","Both","done","43","m150greet.wav","None","734.523176216","151","416190.720908","423056.827271","423823.452519","424590.117031","425357.087935","426123.649493","426873.426965","427639.780759","416940.333283","417706.957603","418473.674366","419240.222011","420007.322458","420773.458594","421523.190927","422289.877391","426882.690722","Mapping"
"Mixed","Both","tile","28","m160knife.wav","space","127.03648489","151","430773.506206","423056.827271","423823.452519","424590.117031","425357.087935","426123.649493","426873.426965","427639.780759","416940.333283","417706.957603","418473.674366","419240.222011","420007.322458","420773.458594","421523.190927","422289.877391","427648.642282","Mapping"
"Mixed","Both","tile","28","m150jolt.wav","None","724.106203299","151","430773.506206","423056.827271","423823.452519","424590.117031","425357.087935","426123.649493","426873.426965","427639.780759","431523.230501","417706.957603","418473.674366","419240.222011","420007.322458","420773.458594","421523.190927","422289.877391","430778.72907","Mapping"
"Mixed","Both","tile","28","m160greet.wav","None","734.696622007","151","430773.506206","423056.827271","423823.452519","424590.117031","425357.087935","426123.649493","426873.426965","427639.780759","431523.230501","432290.184709","418473.674366","419240.222011","420007.322458","420773.458594","421523.190927","422289.877391","431532.633695","Mapping"
"Mixed","Both","tile","28","m150dime.wav","None","735.941044055","151","430773.506206","423056.827271","423823.452519","424590.117031","425357.087935","426123.649493","426873.426965","427639.780759","431523.230501","432290.184709","433056.571585","419240.222011","420007.322458","420773.458594","421523.190927","422289.877391","432299.217205","Mapping"
"Mixed","Both","tile","28","m160park.wav","None","733.783943113","151","430773.506206","423056.827271","423823.452519","424590.117031","425357.087935","426123.649493","426873.426965","427639.780759","431523.230501","432290.184709","433056.571585","433823.358839","420007.322458","420773.458594","421523.190927","422289.877391","433065.664987","Mapping"
"Mixed","Both","tile","28","m150tile.wav","None","731.275311671","151","430773.506206","423056.827271","423823.452519","424590.117031","425357.087935","426123.649493","426873.426965","427639.780759","431523.230501","432290.184709","433056.571585","433823.358839","434589.987488","420773.458594","421523.190927","422289.877391","433833.147263","Mapping"
"Mixed","Both","tile","28","m150bluff.wav","space","512.386869639","151","430773.506206","423056.827271","423823.452519","424590.117031","425357.087935","426123.649493","426873.426965","427639.780759","431523.230501","432290.184709","433056.571585","433823.358839","434589.987488","435356.204936","421523.190927","422289.877391","434599.17426","Mapping"
"Mixed","Both","tile","28","m160greet.wav","None","726.702021901","151","430773.506206","423056.827271","423823.452519","424590.117031","425357.087935","426123.649493","426873.426965","427639.780759","431523.230501","432290.184709","433056.571585","433823.358839","434589.987488","435356.204936","436123.822321","422289.877391","435365.224755","Mapping"
"Mixed","Both","tile","28","m160cave.wav","None","722.764391918","151","430773.506206","423056.827271","423823.452519","424590.117031","425357.087935","426123.649493","426873.426965","427639.780759","431523.230501","432290.184709","433056.571585","433823.358839","434589.987488","435356.204936","436123.822321","436889.829222","436133.429878","Mapping"
"Mixed","Both","tile","28","m160tile.wav","None","721.303857863","151","430773.506206","437639.842903","423823.452519","424590.117031","425357.087935","426123.649493","426873.426965","427639.780759","431523.230501","432290.184709","433056.571585","433823.358839","434589.987488","435356.204936","436123.822321","436889.829222","436899.185112","Mapping"
"Mixed","Both","tile","28","m150priest.wav","None","735.578693449","151","430773.506206","437639.842903","438406.522874","424590.117031","425357.087935","426123.649493","426873.426965","427639.780759","431523.230501","432290.184709","433056.571585","433823.358839","434589.987488","435356.204936","436123.822321","436889.829222","437649.398828","Mapping"
"Mixed","Both","tile","28","m150tile.wav","space","119.402999058","151","430773.506206","437639.842903","438406.522874","439173.181513","425357.087935","426123.649493","426873.426965","427639.780759","431523.230501","432290.184709","433056.571585","433823.358839","434589.987488","435356.204936","436123.822321","436889.829222","438416.087457","Mapping"
"Mixed","Both","tile","28","m150cave.wav","space","624.537901953","151","430773.506206","437639.842903","438406.522874","439173.181513","439939.820673","426123.649493","426873.426965","427639.780759","431523.230501","432290.184709","433056.571585","433823.358839","434589.987488","435356.204936","436123.822321","436889.829222","439182.929435","Mapping"
"Mixed","Both","tile","28","m160tile.wav","None","726.379553787","151","430773.506206","437639.842903","438406.522874","439173.181513","439939.820673","440706.946163","426873.426965","427639.780759","431523.230501","432290.184709","433056.571585","433823.358839","434589.987488","435356.204936","436123.822321","436889.829222","439949.29776","Mapping"
"Mixed","Both","tile","28","m160romp.wav","space","522.91885484","151","430773.506206","437639.842903","438406.522874","439173.181513","439939.820673","440706.946163","441474.139053","427639.780759","431523.230501","432290.184709","433056.571585","433823.358839","434589.987488","435356.204936","436123.822321","436889.829222","440716.51291","Mapping"
"Mixed","Both","tile","28","m150bluff.wav","None","719.526730012","151","430773.506206","437639.842903","438406.522874","439173.181513","439939.820673","440706.946163","441474.139053","442222.600375","431523.230501","432290.184709","433056.571585","433823.358839","434589.987488","435356.204936","436123.822321","436889.829222","441483.737026","Mapping"
"Mixed","Both","ball","3","m150greet.wav","None","735.497689806","151","445356.71569","437639.842903","438406.522874","439173.181513","439939.820673","440706.946163","441474.139053","442222.600375","431523.230501","432290.184709","433056.571585","433823.358839","434589.987488","435356.204936","436123.822321","436889.829222","442232.312124","Mapping"
"Mixed","Both","ball","3","m150cave.wav","None","719.687500037","151","445356.71569","437639.842903","438406.522874","439173.181513","439939.820673","440706.946163","441474.139053","442222.600375","446106.249535","432290.184709","433056.571585","433823.358839","434589.987488","435356.204936","436123.822321","436889.829222","445366.402705","Mapping"
"Mixed","Both","ball","3","m160ball.wav","None","734.690438956","151","445356.71569","437639.842903","438406.522874","439173.181513","439939.820673","440706.946163","441474.139053","442222.600375","446106.249535","446890.175496","433056.571585","433823.358839","434589.987488","435356.204936","436123.822321","436889.829222","446115.744553","Mapping"
"Mixed","Both","ball","3","m150romp.wav","space","531.997107435","151","445356.71569","437639.842903","438406.522874","439173.181513","439939.820673","440706.946163","441474.139053","442222.600375","446106.249535","446890.175496","447639.734074","433823.358839","434589.987488","435356.204936","436123.822321","436889.829222","446899.358249","Mapping"
"Mixed","Both","ball","3","m160dime.wav","None","733.526092488","151","445356.71569","437639.842903","438406.522874","439173.181513","439939.820673","440706.946163","441474.139053","442222.600375","446106.249535","446890.175496","447639.734074","448406.203189","434589.987488","435356.204936","436123.822321","436889.829222","447649.675229","Mapping"
"Mixed","Both","ball","3","m150cling.wav","None","732.444914058","151","445356.71569","437639.842903","438406.522874","439173.181513","439939.820673","440706.946163","441474.139053","442222.600375","446106.249535","446890.175496","447639.734074","448406.203189","449173.203773","435356.204936","436123.822321","436889.829222","448415.167975","Mapping"
"Mixed","Both","ball","3","m160priest.wav","None","729.425837751","151","445356.71569","437639.842903","438406.522874","439173.181513","439939.820673","440706.946163","441474.139053","442222.600375","446106.249535","446890.175496","447639.734074","448406.203189","449173.203773","449939.671343","436123.822321","436889.829222","449182.431666","Mapping"
"Mixed","Both","ball","3","m160cad.wav","None","726.100988686","151","445356.71569","437639.842903","438406.522874","439173.181513","439939.820673","440706.946163","441474.139053","442222.600375","446106.249535","446890.175496","447639.734074","448406.203189","449173.203773","449939.671343","450706.284842","436889.829222","449950.186942","Mapping"
"Mixed","Both","ball","3","m150ball.wav","None","724.714037962","151","445356.71569","437639.842903","438406.522874","439173.181513","439939.820673","440706.946163","441474.139053","442222.600375","446106.249535","446890.175496","447639.734074","448406.203189","449173.203773","449939.671343","450706.284842","451472.794768","450715.986697","Mapping"
"Mixed","Both","ball","3","m160greet.wav","space","613.061083481","151","445356.71569","452223.302817","438406.522874","439173.181513","439939.820673","440706.946163","441474.139053","442222.600375","446106.249535","446890.175496","447639.734074","448406.203189","449173.203773","449939.671343","450706.284842","451472.794768","451482.193324","Mapping"
"Mixed","Both","ball","3","m150cave.wav","None","735.814901534","151","445356.71569","452223.302817","452989.596013","439173.181513","439939.820673","440706.946163","441474.139053","442222.600375","446106.249535","446890.175496","447639.734074","448406.203189","449173.203773","449939.671343","450706.284842","451472.794768","452232.622534","Mapping"
"Mixed","Both","ball","3","m160dime.wav","None","733.679442666","151","445356.71569","452223.302817","452989.596013","453756.243521","439939.820673","440706.946163","441474.139053","442222.600375","446106.249535","446890.175496","447639.734074","448406.203189","449173.203773","449939.671343","450706.284842","451472.794768","452998.994569","Mapping"
"Mixed","Both","ball","3","m160ball.wav","None","731.261398643","151","445356.71569","452223.302817","452989.596013","453756.243521","454522.941115","440706.946163","441474.139053","442222.600375","446106.249535","446890.175496","447639.734074","448406.203189","449173.203773","449939.671343","450706.284842","451472.794768","453765.91013","Mapping"
"Mixed","Both","ball","3","m150gnash.wav","space","426.789486781","151","445356.71569","452223.302817","452989.596013","453756.243521","454522.941115","455289.204631","441474.139053","442222.600375","446106.249535","446890.175496","447639.734074","448406.203189","449173.203773","449939.671343","450706.284842","451472.794768","454532.371826","Mapping"
"Mixed","Both","ball","3","m150ball.wav","None","726.86124593","151","445356.71569","452223.302817","452989.596013","453756.243521","454522.941115","455289.204631","456056.508513","442222.600375","446106.249535","446890.175496","447639.734074","448406.203189","449173.203773","449939.671343","450706.284842","451472.794768","455298.14932","Mapping"
"Mixed","Both","ball","3","m160done.wav","space","508.961848915","151","445356.71569","452223.302817","452989.596013","453756.243521","454522.941115","455289.204631","456056.508513","456822.71174","446106.249535","446890.175496","447639.734074","448406.203189","449173.203773","449939.671343","450706.284842","451472.794768","456066.180379","Mapping"
"Mixed","Both","done","41","m150knife.wav","None","720.743635669","151","459939.993192","452223.302817","452989.596013","453756.243521","454522.941115","455289.204631","456056.508513","456822.71174","446106.249535","446890.175496","447639.734074","448406.203189","449173.203773","449939.671343","450706.284842","451472.794768","456831.986317","Mapping"
"Mixed","Both","done","41","m160done.wav","None","719.1795283","151","459939.993192","452223.302817","452989.596013","453756.243521","454522.941115","455289.204631","456056.508513","456822.71174","460689.395638","446890.175496","447639.734074","448406.203189","449173.203773","449939.671343","450706.284842","451472.794768","459949.819644","Mapping"
"Mixed","Both","done","41","m160priest.wav","space","548.5731191","151","459939.993192","452223.302817","452989.596013","453756.243521","454522.941115","455289.204631","456056.508513","456822.71174","460689.395638","461456.087049","447639.734074","448406.203189","449173.203773","449939.671343","450706.284842","451472.794768","460698.506972","Mapping"
"Mixed","Both","done","41","m160done.wav","None","731.100937817","151","459939.993192","452223.302817","452989.596013","453756.243521","454522.941115","455289.204631","456056.508513","456822.71174","460689.395638","461456.087049","462222.836584","448406.203189","449173.203773","449939.671343","450706.284842","451472.794768","461465.535072","Mapping"
"Mixed","Both","done","41","m160greet.wav","None","728.887257632","151","459939.993192","452223.302817","452989.596013","453756.243521","454522.941115","455289.204631","456056.508513","456822.71174","460689.395638","461456.087049","462222.836584","462989.447919","449173.203773","449939.671343","450706.284842","451472.794768","462232.173615","Mapping"
"Mixed","Both","done","41","m150tile.wav","None","726.434277371","151","459939.993192","452223.302817","452989.596013","453756.243521","454522.941115","455289.204631","456056.508513","456822.71174","460689.395638","461456.087049","462222.836584","462989.447919","463755.991545","449939.671343","450706.284842","451472.794768","462999.040017","Mapping"
"Mixed","Both","done","41","m160priest.wav","None","724.542756099","151","459939.993192","452223.302817","452989.596013","453756.243521","454522.941115","455289.204631","456056.508513","456822.71174","460689.395638","461456.087049","462222.836584","462989.447919","463755.991545","464523.16372","450706.284842","451472.794768","463765.512533","Mapping"
"Mixed","Both","done","41","m150done.wav","None","721.280669793","151","459939.993192","452223.302817","452989.596013","453756.243521","454522.941115","455289.204631","456056.508513","456822.71174","460689.395638","461456.087049","462222.836584","462989.447919","463755.991545","464523.16372","465289.733626","451472.794768","464533.309548","Mapping"
"Mixed","Both","done","41","m160depth.wav","space","346.888619941","151","459939.993192","452223.302817","452989.596013","453756.243521","454522.941115","455289.204631","456056.508513","456822.71174","460689.395638","461456.087049","462222.836584","462989.447919","463755.991545","464523.16372","465289.733626","466056.333212","465300.09031","Mapping"
"Mixed","Both","done","41","m150done.wav","None","720.814127009","151","459939.993192","466806.298353","452989.596013","453756.243521","454522.941115","455289.204631","456056.508513","456822.71174","460689.395638","461456.087049","462222.836584","462989.447919","463755.991545","464523.16372","465289.733626","466056.333212","466066.040014","Mapping"
"Mixed","Both","done","41","m150cling.wav","space","446.995501406","151","459939.993192","466806.298353","467572.713363","453756.243521","454522.941115","455289.204631","456056.508513","456822.71174","460689.395638","461456.087049","462222.836584","462989.447919","463755.991545","464523.16372","465289.733626","466056.333212","466815.972691","Mapping"
"Mixed","Both","done","41","m150cave.wav","None","732.384315692","151","459939.993192","466806.298353","467572.713363","468339.345722","454522.941115","455289.204631","456056.508513","456822.71174","460689.395638","461456.087049","462222.836584","462989.447919","463755.991545","464523.16372","465289.733626","466056.333212","467582.069871","Mapping"
"Mixed","Both","done","41","m160bluff.wav","None","730.697157793","151","459939.993192","466806.298353","467572.713363","468339.345722","469105.950873","455289.204631","456056.508513","456822.71174","460689.395638","461456.087049","462222.836584","462989.447919","463755.991545","464523.16372","465289.733626","466056.333212","468348.432631","Mapping"
"Mixed","Both","done","41","m160knife.wav","None","728.545621503","151","459939.993192","466806.298353","467572.713363","468339.345722","469105.950873","469872.749258","456056.508513","456822.71174","460689.395638","461456.087049","462222.836584","462989.447919","463755.991545","464523.16372","465289.733626","466056.333212","469115.293778","Mapping"
"Mixed","Both","done","41","m150knife.wav","None","726.152929943","151","459939.993192","466806.298353","467572.713363","468339.345722","469105.950873","469872.749258","470639.729127","456822.71174","460689.395638","461456.087049","462222.836584","462989.447919","463755.991545","464523.16372","465289.733626","466056.333212","469882.200992","Mapping"
"Mixed","Both","done","41","m150romp.wav","None","723.233717028","151","459939.993192","466806.298353","467572.713363","468339.345722","469105.950873","469872.749258","470639.729127","471406.348192","460689.395638","461456.087049","462222.836584","462989.447919","463755.991545","464523.16372","465289.733626","466056.333212","470649.605974","Mapping"
"Mixed","Both","cave","21","m160park.wav","None","721.435565501","151","474522.872788","466806.298353","467572.713363","468339.345722","469105.950873","469872.749258","470639.729127","471406.348192","460689.395638","461456.087049","462222.836584","462989.447919","463755.991545","464523.16372","465289.733626","466056.333212","471416.040771","Mapping"
"Mixed","Both","cave","21","m160cave.wav","None","719.804677181","151","474522.872788","466806.298353","467572.713363","468339.345722","469105.950873","469872.749258","470639.729127","471406.348192","475271.897733","461456.087049","462222.836584","462989.447919","463755.991545","464523.16372","465289.733626","466056.333212","474533.123425","Mapping"
"Mixed","Both","cave","21","m150romp.wav","space","494.044860359","151","474522.872788","466806.298353","467572.713363","468339.345722","469105.950873","469872.749258","470639.729127","471406.348192","475271.897733","476039.287257","462222.836584","462989.447919","463755.991545","464523.16372","465289.733626","466056.333212","475280.79883","Mapping"
"Mixed","Both","cave","21","m150lash.wav","None","737.520301249","151","474522.872788","466806.298353","467572.713363","468339.345722","469105.950873","469872.749258","470639.729127","471406.348192","475271.897733","476039.287257","476805.79069","462989.447919","463755.991545","464523.16372","465289.733626","466056.333212","476042.914477","Mapping"
"Mixed","Both","cave","21","m160depth.wav","None","730.067990255","151","474522.872788","466806.298353","467572.713363","468339.345722","469105.950873","469872.749258","470639.729127","471406.348192","475271.897733","476039.287257","476805.79069","477572.70316","463755.991545","464523.16372","465289.733626","466056.333212","476814.919956","Mapping"
"Mixed","Both","cave","21","m160cling.wav","None","727.43878141","151","474522.872788","466806.298353","467572.713363","468339.345722","469105.950873","469872.749258","470639.729127","471406.348192","475271.897733","476039.287257","476805.79069","477572.70316","478339.222361","464523.16372","465289.733626","466056.333212","477581.984849","Mapping"
"Mixed","Both","cave","21","m160lash.wav","None","725.390818436","151","474522.872788","466806.298353","467572.713363","468339.345722","469105.950873","469872.749258","470639.729127","471406.348192","475271.897733","476039.287257","476805.79069","477572.70316","478339.222361","479105.9855","465289.733626","466056.333212","478348.672858","Mapping"
"Mixed","Both","cave","21","m160jaw.wav","None","722.166450694","151","474522.872788","466806.298353","467572.713363","468339.345722","469105.950873","469872.749258","470639.729127","471406.348192","475271.897733","476039.287257","476805.79069","477572.70316","478339.222361","479105.9855","479873.061832","466056.333212","479116.371556","Mapping"
"Mixed","Both","cave","21","m150cave.wav","None","719.994199928","151","474522.872788","466806.298353","467572.713363","468339.345722","469105.950873","469872.749258","470639.729127","471406.348192","475271.897733","476039.287257","476805.79069","477572.70316","478339.222361","479105.9855","479873.061832","480622.508489","479883.318653","Mapping"
"Mixed","Both","cave","21","m150cling.wav","space","535.043390933","151","474522.872788","481389.09509","467572.713363","468339.345722","469105.950873","469872.749258","470639.729127","471406.348192","475271.897733","476039.287257","476805.79069","477572.70316","478339.222361","479105.9855","479873.061832","480622.508489","480631.72185","Mapping"
"Mixed","Both","cave","21","m150cave.wav","None","732.289708685","151","474522.872788","481389.09509","482155.335727","468339.345722","469105.950873","469872.749258","470639.729127","471406.348192","475271.897733","476039.287257","476805.79069","477572.70316","478339.222361","479105.9855","479873.061832","480622.508489","481398.536622","Mapping"
"Mixed","Both","cave","21","m150gnash.wav","space","570.34509629","151","474522.872788","481389.09509","482155.335727","482922.062074","469105.950873","469872.749258","470639.729127","471406.348192","475271.897733","476039.287257","476805.79069","477572.70316","478339.222361","479105.9855","479873.061832","480622.508489","482164.363584","Mapping"
"Mixed","Both","cave","21","m160priest.wav","None","727.560595609","151","474522.872788","481389.09509","482155.335727","482922.062074","483688.791513","469872.749258","470639.729127","471406.348192","475271.897733","476039.287257","476805.79069","477572.70316","478339.222361","479105.9855","479873.061832","480622.508489","482931.129815","Mapping"
"Mixed","Both","cave","21","m150park.wav","None","725.592708215","151","474522.872788","481389.09509","482155.335727","482922.062074","483688.791513","484456.108691","470639.729127","471406.348192","475271.897733","476039.287257","476805.79069","477572.70316","478339.222361","479105.9855","479873.061832","480622.508489","483697.74115","Mapping"
"Mixed","Both","cave","21","m160cave.wav","None","721.860060003","151","474522.872788","481389.09509","482155.335727","482922.062074","483688.791513","484456.108691","485222.659118","471406.348192","475271.897733","476039.287257","476805.79069","477572.70316","478339.222361","479105.9855","479873.061832","480622.508489","484465.868979","Mapping"
"Mixed","Both","cave","21","m150reek.wav","space","664.322618861","151","474522.872788","481389.09509","482155.335727","482922.062074","483688.791513","484456.108691","485222.659118","485972.298081","475271.897733","476039.287257","476805.79069","477572.70316","478339.222361","479105.9855","479873.061832","480622.508489","485230.322594","Mapping"
"Mixed","Both","tile","25","m150reek.wav","None","733.228668105","151","489105.776499","481389.09509","482155.335727","482922.062074","483688.791513","484456.108691","485222.659118","485972.298081","475271.897733","476039.287257","476805.79069","477572.70316","478339.222361","479105.9855","479873.061832","480622.508489","485982.307254","Mapping"
"Mixed","Both","tile","25","m150cad.wav","None","719.78334384","151","489105.776499","481389.09509","482155.335727","482922.062074","483688.791513","484456.108691","485222.659118","485972.298081","489855.37527","476039.287257","476805.79069","477572.70316","478339.222361","479105.9855","479873.061832","480622.508489","489115.678699","Mapping"
"Mixed","Both","tile","25","m150cad.wav","None","734.971168451","151","489105.776499","481389.09509","482155.335727","482922.062074","483688.791513","484456.108691","485222.659118","485972.298081","489855.37527","490622.031435","476805.79069","477572.70316","478339.222361","479105.9855","479873.061832","480622.508489","489865.1909","Mapping"
"Mixed","Both","tile","25","m160cave.wav","None","733.904520515","151","489105.776499","481389.09509","482155.335727","482922.062074","483688.791513","484456.108691","485222.659118","485972.298081","489855.37527","490622.031435","491388.976677","477572.70316","478339.222361","479105.9855","479873.061832","480622.508489","490631.110306","Mapping"
"Mixed","Both","tile","25","m160gnash.wav","None","731.195854023","151","489105.776499","481389.09509","482155.335727","482922.062074","483688.791513","484456.108691","485222.659118","485972.298081","489855.37527","490622.031435","491388.976677","492155.51381","478339.222361","479105.9855","479873.061832","480622.508489","491398.400585","Mapping"
"Mixed","Both","tile","25","m160tile.wav","None","729.40326808","151","489105.776499","481389.09509","482155.335727","482922.062074","483688.791513","484456.108691","485222.659118","485972.298081","489855.37527","490622.031435","491388.976677","492155.51381","492922.259945","479105.9855","479873.061832","480622.508489","492165.030471","Mapping"
"Mixed","Both","tile","25","m160park.wav","space","466.917694546","151","489105.776499","481389.09509","482155.335727","482922.062074","483688.791513","484456.108691","485222.659118","485972.298081","489855.37527","490622.031435","491388.976677","492155.51381","492922.259945","493688.732461","479873.061832","480622.508489","492931.588937","Mapping"
"Mixed","Both","tile","25","m160tile.wav","None","724.494525231","151","489105.776499","481389.09509","482155.335727","482922.062074","483688.791513","484456.108691","485222.659118","485972.298081","489855.37527","490622.031435","491388.976677","492155.51381","492922.259945","493688.732461","494455.861661","480622.508489","493697.937165","Mapping"
"Mixed","Both","tile","25","m160park.wav","space","684.433716815","151","489105.776499","481389.09509","482155.335727","482922.062074","483688.791513","484456.108691","485222.659118","485972.298081","489855.37527","490622.031435","491388.976677","492155.51381","492922.259945","493688.732461","494455.861661","495205.38994","494466.032223","Mapping"
"Mixed","Both","tile","25","m150tile.wav","None","735.208922531","151","489105.776499","495972.04425","482155.335727","482922.062074","483688.791513","484456.108691","485222.659118","485972.298081","489855.37527","490622.031435","491388.976677","492155.51381","492922.259945","493688.732461","494455.861661","495205.38994","495214.67874","Mapping"
"Mixed","Both","tile","25","m150romp.wav","space","449.288638774","151","489105.776499","495972.04425","496738.53779","482922.062074","483688.791513","484456.108691","485222.659118","485972.298081","489855.37527","490622.031435","491388.976677","492155.51381","492922.259945","493688.732461","494455.861661","495205.38994","495981.183101","Mapping"
"Mixed","Both","tile","25","m150jaw.wav","None","732.289708685","151","489105.776499","495972.04425","496738.53779","497505.439748","483688.791513","484456.108691","485222.659118","485972.298081","489855.37527","490622.031435","491388.976677","492155.51381","492922.259945","493688.732461","494455.861661","495205.38994","496747.661801","Mapping"
"Mixed","Both","tile","25","m160greet.wav","None","729.753870051","151","489105.776499","495972.04425","496738.53779","497505.439748","498272.142598","484456.108691","485222.659118","485972.298081","489855.37527","490622.031435","491388.976677","492155.51381","492922.259945","493688.732461","494455.861661","495205.38994","497514.840468","Mapping"
"Mixed","Both","tile","25","m150tile.wav","None","727.628304623","151","489105.776499","495972.04425","496738.53779","497505.439748","498272.142598","499038.516797","485222.659118","485972.298081","489855.37527","490622.031435","491388.976677","492155.51381","492922.259945","493688.732461","494455.861661","495205.38994","498281.870115","Mapping"
