"Condition","Talker","Target","Trial","current_stimulus","response_response","response_time_response","subject_nr","time_Audio1","time_Audio10","time_Audio11","time_Audio12","time_Audio13","time_Audio14","time_Audio15","time_Audio16","time_Audio2","time_Audio3","time_Audio4","time_Audio5","time_Audio6","time_Audio7","time_Audio8","time_Audio9","time_response","title"
"Mixed","Both","done","40","m160cave.wav","NA","NA","163","210834.232876","NA","NA","NA","NA","NA","NA","NA","NA","NA","NA","NA","NA","NA","NA","NA","NA","Mapping"
"Mixed","Both","done","40","m160ball.wav","None","717.234882293","163","210834.232876","NA","NA","NA","NA","NA","NA","NA","211601.220372","NA","NA","NA","NA","NA","NA","NA","210849.317792","Mapping"
"Mixed","Both","done","40","m160done.wav","None","721.724709496","163","210834.232876","NA","NA","NA","NA","NA","NA","NA","211601.220372","212367.304771","NA","NA","NA","NA","NA","NA","211611.520509","Mapping"
"Mixed","Both","done","40","m150knife.wav","space","432.948318776","163","210834.232876","NA","NA","NA","NA","NA","NA","NA","211601.220372","212367.304771","213133.630326","NA","NA","NA","NA","NA","212377.143929","Mapping"
"Mixed","Both","done","40","m150dime.wav","None","723.788446747","163","210834.232876","NA","NA","NA","NA","NA","NA","NA","211601.220372","212367.304771","213133.630326","213900.156844","NA","NA","NA","NA","213142.605961","Mapping"
"Mixed","Both","done","40","m150park.wav","None","723.590884823","163","210834.232876","NA","NA","NA","NA","NA","NA","NA","211601.220372","212367.304771","213133.630326","213900.156844","214667.133829","NA","NA","NA","213909.683118","Mapping"
"Mixed","Both","done","40","m150done.wav","None","722.591015277","163","210834.232876","NA","NA","NA","NA","NA","NA","NA","211601.220372","212367.304771","213133.630326","213900.156844","214667.133829","215433.85389","NA","NA","214677.326992","Mapping"
"Mixed","Both","done","40","m160cad.wav","space","254.045002861","163","210834.232876","NA","NA","NA","NA","NA","NA","NA","211601.220372","212367.304771","213133.630326","213900.156844","214667.133829","215433.85389","216199.935197","NA","215443.989237","Mapping"
"Mixed","Both","done","40","m150done.wav","None","724.473267561","163","210834.232876","NA","NA","NA","NA","NA","NA","NA","211601.220372","212367.304771","213133.630326","213900.156844","214667.133829","215433.85389","216199.935197","216967.270205","216209.014096","Mapping"
"Mixed","Both","done","40","m160greet.wav","space","289.025894366","163","210834.232876","217733.930287","NA","NA","NA","NA","NA","NA","211601.220372","212367.304771","213133.630326","213900.156844","214667.133829","215433.85389","216199.935197","216967.270205","216977.005481","Mapping"
"Mixed","Both","done","40","m160done.wav","None","719.407449244","163","210834.232876","217733.930287","218483.503549","NA","NA","NA","NA","NA","211601.220372","212367.304771","213133.630326","213900.156844","214667.133829","215433.85389","216199.935197","216967.270205","217743.886313","Mapping"
"Mixed","Both","done","40","m150knife.wav","space","237.089892151","163","210834.232876","217733.930287","218483.503549","219249.588257","NA","NA","NA","NA","211601.220372","212367.304771","213133.630326","213900.156844","214667.133829","215433.85389","216199.935197","216967.270205","218492.895951","Mapping"
"Mixed","Both","done","40","m150dime.wav","None","733.056869823","163","210834.232876","217733.930287","218483.503549","219249.588257","220016.683347","NA","NA","NA","211601.220372","212367.304771","213133.630326","213900.156844","214667.133829","215433.85389","216199.935197","216967.270205","219258.359219","Mapping"
"Mixed","Both","done","40","m150jaw.wav","space","240.10341242","163","210834.232876","217733.930287","218483.503549","219249.588257","220016.683347","220783.314675","NA","NA","211601.220372","212367.304771","213133.630326","213900.156844","214667.133829","215433.85389","216199.935197","216967.270205","220025.855307","Mapping"
"Mixed","Both","done","40","m160knife.wav","None","728.229115251","163","210834.232876","217733.930287","218483.503549","219249.588257","220016.683347","220783.314675","221549.85356","NA","211601.220372","212367.304771","213133.630326","213900.156844","214667.133829","215433.85389","216199.935197","216967.270205","220792.840949","Mapping"
"Mixed","Both","done","40","m160park.wav","None","729.042552412","163","210834.232876","217733.930287","218483.503549","219249.588257","220016.683347","220783.314675","221549.85356","222316.590007","211601.220372","212367.304771","213133.630326","213900.156844","214667.133829","215433.85389","216199.935197","216967.270205","221559.230812","Mapping"
"Mixed","Both","done","43","m150cave.wav","None","729.553308338","163","225483.546215","217733.930287","218483.503549","219249.588257","220016.683347","220783.314675","221549.85356","222316.590007","211601.220372","212367.304771","213133.630326","213900.156844","214667.133829","215433.85389","216199.935197","216967.270205","222325.631187","Mapping"
"Mixed","Both","done","43","m150done.wav","None","723.219257314","163","225483.546215","217733.930287","218483.503549","219249.588257","220016.683347","220783.314675","221549.85356","222316.590007","226249.73697","212367.304771","213133.630326","213900.156844","214667.133829","215433.85389","216199.935197","216967.270205","225493.273143","Mapping"
"Mixed","Both","done","43","m150priest.wav","space","463.227598928","163","225483.546215","217733.930287","218483.503549","219249.588257","220016.683347","220783.314675","221549.85356","222316.590007","226249.73697","227016.447138","213133.630326","213900.156844","214667.133829","215433.85389","216199.935197","216967.270205","226258.644277","Mapping"
"Mixed","Both","done","43","m150reek.wav","None","721.281044651","163","225483.546215","217733.930287","218483.503549","219249.588257","220016.683347","220783.314675","221549.85356","222316.590007","226249.73697","227016.447138","227783.541299","213900.156844","214667.133829","215433.85389","216199.935197","216967.270205","227025.495428","Mapping"
"Mixed","Both","done","43","m150ball.wav","None","720.540881623","163","225483.546215","217733.930287","218483.503549","219249.588257","220016.683347","220783.314675","221549.85356","222316.590007","226249.73697","227016.447138","227783.541299","228550.19025","214667.133829","215433.85389","216199.935197","216967.270205","227792.945759","Mapping"
"Mixed","Both","done","43","m160tile.wav","None","720.316421008","163","225483.546215","217733.930287","218483.503549","219249.588257","220016.683347","220783.314675","221549.85356","222316.590007","226249.73697","227016.447138","227783.541299","228550.19025","229317.028416","215433.85389","216199.935197","216967.270205","228560.232845","Mapping"
"Mixed","Both","done","43","m160tile.wav","space","323.076789733","163","225483.546215","217733.930287","218483.503549","219249.588257","220016.683347","220783.314675","221549.85356","222316.590007","226249.73697","227016.447138","227783.541299","228550.19025","229317.028416","230066.311673","216199.935197","216967.270205","229326.746069","Mapping"
"Mixed","Both","done","43","m160knife.wav","None","735.436273972","163","225483.546215","217733.930287","218483.503549","219249.588257","220016.683347","220783.314675","221549.85356","222316.590007","226249.73697","227016.447138","227783.541299","228550.19025","229317.028416","230066.311673","230833.151075","216967.270205","230075.336776","Mapping"
"Mixed","Both","done","43","m160done.wav","None","731.673624599","163","225483.546215","217733.930287","218483.503549","219249.588257","220016.683347","220783.314675","221549.85356","222316.590007","226249.73697","227016.447138","227783.541299","228550.19025","229317.028416","230066.311673","230833.151075","231599.750249","230842.522144","Mapping"
"Mixed","Both","done","43","m160greet.wav","space","552.259552991","163","225483.546215","232366.50772","218483.503549","219249.588257","220016.683347","220783.314675","221549.85356","222316.590007","226249.73697","227016.447138","227783.541299","228550.19025","229317.028416","230066.311673","230833.151075","231599.750249","231609.545505","Mapping"
"Mixed","Both","done","43","m150knife.wav","None","725.475301035","163","225483.546215","232366.50772","233133.551487","219249.588257","220016.683347","220783.314675","221549.85356","222316.590007","226249.73697","227016.447138","227783.541299","228550.19025","229317.028416","230066.311673","230833.151075","231599.750249","232375.581054","Mapping"
"Mixed","Both","done","43","m150done.wav","None","721.325256396","163","225483.546215","232366.50772","233133.551487","233882.844019","220016.683347","220783.314675","221549.85356","222316.590007","226249.73697","227016.447138","227783.541299","228550.19025","229317.028416","230066.311673","230833.151075","231599.750249","233143.112697","Mapping"
"Mixed","Both","done","43","m160ball.wav","space","413.581958972","163","225483.546215","232366.50772","233133.551487","233882.844019","234649.715266","220783.314675","221549.85356","222316.590007","226249.73697","227016.447138","227783.541299","228550.19025","229317.028416","230066.311673","230833.151075","231599.750249","233892.193445","Mapping"
"Mixed","Both","done","43","m160reek.wav","None","731.37929081","163","225483.546215","232366.50772","233133.551487","233882.844019","234649.715266","235416.494688","221549.85356","222316.590007","226249.73697","227016.447138","227783.541299","228550.19025","229317.028416","230066.311673","230833.151075","231599.750249","234659.489807","Mapping"
"Mixed","Both","done","43","m160done.wav","None","732.347624376","163","225483.546215","232366.50772","233133.551487","233882.844019","234649.715266","235416.494688","236183.101592","222316.590007","226249.73697","227016.447138","227783.541299","228550.19025","229317.028416","230066.311673","230833.151075","231599.750249","235425.552564","Mapping"
"Mixed","Both","done","43","m150cave.wav","space","385.232853005","163","225483.546215","232366.50772","233133.551487","233882.844019","234649.715266","235416.494688","236183.101592","236949.642332","226249.73697","227016.447138","227783.541299","228550.19025","229317.028416","230066.311673","230833.151075","231599.750249","236192.505124","Mapping"
"Mixed","Both","done","38","m160knife.wav","None","725.295052631","163","240066.775743","232366.50772","233133.551487","233882.844019","234649.715266","235416.494688","236183.101592","236949.642332","226249.73697","227016.447138","227783.541299","228550.19025","229317.028416","230066.311673","230833.151075","231599.750249","236958.968879","Mapping"
"Mixed","Both","done","38","m150jaw.wav","None","718.730048509","163","240066.775743","232366.50772","233133.551487","233882.844019","234649.715266","235416.494688","236183.101592","236949.642332","240816.320562","227016.447138","227783.541299","228550.19025","229317.028416","230066.311673","230833.151075","231599.750249","240076.918511","Mapping"
"Mixed","Both","done","38","m160priest.wav","None","733.381502563","163","240066.775743","232366.50772","233133.551487","233882.844019","234649.715266","235416.494688","236183.101592","236949.642332","240816.320562","241583.026401","227783.541299","228550.19025","229317.028416","230066.311673","230833.151075","231599.750249","240825.55343","Mapping"
"Mixed","Both","done","38","m160done.wav","None","733.245465904","163","240066.775743","232366.50772","233133.551487","233882.844019","234649.715266","235416.494688","236183.101592","236949.642332","240816.320562","241583.026401","242349.586","228550.19025","229317.028416","230066.311673","230833.151075","231599.750249","241592.626258","Mapping"
"Mixed","Both","done","38","m150ball.wav","space","346.804669593","163","240066.775743","232366.50772","233133.551487","233882.844019","234649.715266","235416.494688","236183.101592","236949.642332","240816.320562","241583.026401","242349.586","243116.306061","229317.028416","230066.311673","230833.151075","231599.750249","242358.842984","Mapping"
"Mixed","Both","done","38","m150ball.wav","None","726.96088301","163","240066.775743","232366.50772","233133.551487","233882.844019","234649.715266","235416.494688","236183.101592","236949.642332","240816.320562","241583.026401","242349.586","243116.306061","243883.045291","230066.311673","230833.151075","231599.750249","243125.550987","Mapping"
"Mixed","Both","done","38","m160depth.wav","None","723.85739279","163","240066.775743","232366.50772","233133.551487","233882.844019","234649.715266","235416.494688","236183.101592","236949.642332","240816.320562","241583.026401","242349.586","243116.306061","243883.045291","244649.874181","230833.151075","231599.750249","243892.084925","Mapping"
"Mixed","Both","done","38","m150done.wav","None","722.663980676","163","240066.775743","232366.50772","233133.551487","233882.844019","234649.715266","235416.494688","236183.101592","236949.642332","240816.320562","241583.026401","242349.586","243116.306061","243883.045291","244649.874181","245416.775419","231599.750249","244660.107228","Mapping"
"Mixed","Both","done","38","m150depth.wav","space","359.090323094","163","240066.775743","232366.50772","233133.551487","233882.844019","234649.715266","235416.494688","236183.101592","236949.642332","240816.320562","241583.026401","242349.586","243116.306061","243883.045291","244649.874181","245416.775419","246182.803239","245426.491217","Mapping"
"Mixed","Both","done","38","m150done.wav","None","721.579088597","163","240066.775743","246932.823567","233133.551487","233882.844019","234649.715266","235416.494688","236183.101592","236949.642332","240816.320562","241583.026401","242349.586","243116.306061","243883.045291","244649.874181","245416.775419","246182.803239","246191.580693","Mapping"
"Mixed","Both","done","38","m160park.wav","space","611.437341198","163","240066.775743","246932.823567","247699.506527","233882.844019","234649.715266","235416.494688","236183.101592","236949.642332","240816.320562","241583.026401","242349.586","243116.306061","243883.045291","244649.874181","245416.775419","246182.803239","246942.119816","Mapping"
"Mixed","Both","done","38","m150gnash.wav","None","730.929442449","163","240066.775743","246932.823567","247699.506527","248466.245448","234649.715266","235416.494688","236183.101592","236949.642332","240816.320562","241583.026401","242349.586","243116.306061","243883.045291","244649.874181","245416.775419","246182.803239","247708.791027","Mapping"
"Mixed","Both","done","38","m160romp.wav","None","730.691687437","163","240066.775743","246932.823567","247699.506527","248466.245448","249232.623562","235416.494688","236183.101592","236949.642332","240816.320562","241583.026401","242349.586","243116.306061","243883.045291","244649.874181","245416.775419","246182.803239","248476.018134","Mapping"
"Mixed","Both","done","38","m160reek.wav","None","731.9759971","163","240066.775743","246932.823567","247699.506527","248466.245448","249232.623562","249999.077734","236183.101592","236949.642332","240816.320562","241583.026401","242349.586","243116.306061","243883.045291","244649.874181","245416.775419","246182.803239","249241.597342","Mapping"
"Mixed","Both","done","38","m160done.wav","None","728.968041716","163","240066.775743","246932.823567","247699.506527","248466.245448","249232.623562","249999.077734","250765.830876","236949.642332","240816.320562","241583.026401","242349.586","243116.306061","243883.045291","244649.874181","245416.775419","246182.803239","250007.926298","Mapping"
"Mixed","Both","done","38","m150bluff.wav","space","378.994336817","163","240066.775743","246932.823567","247699.506527","248466.245448","249232.623562","249999.077734","250765.830876","251532.858256","240816.320562","241583.026401","242349.586","243116.306061","243883.045291","244649.874181","245416.775419","246182.803239","250774.540621","Mapping"
"Mixed","Both","ball","4","m160romp.wav","None","727.885622997","163","254666.344507","246932.823567","247699.506527","248466.245448","249232.623562","249999.077734","250765.830876","251532.858256","240816.320562","241583.026401","242349.586","243116.306061","243883.045291","244649.874181","245416.775419","246182.803239","251542.341246","Mapping"
"Mixed","Both","ball","4","m160ball.wav","None","719.945412362","163","254666.344507","246932.823567","247699.506527","248466.245448","249232.623562","249999.077734","250765.830876","251532.858256","255415.944668","241583.026401","242349.586","243116.306061","243883.045291","244649.874181","245416.775419","246182.803239","254676.381228","Mapping"
"Mixed","Both","ball","4","m150cling.wav","space","336.085292511","163","254666.344507","246932.823567","247699.506527","248466.245448","249232.623562","249999.077734","250765.830876","251532.858256","255415.944668","256182.56301","242349.586","243116.306061","243883.045291","244649.874181","245416.775419","246182.803239","255425.35933","Mapping"
"Mixed","Both","ball","4","m160romp.wav","None","734.665812226","163","254666.344507","246932.823567","247699.506527","248466.245448","249232.623562","249999.077734","250765.830876","251532.858256","255415.944668","256182.56301","256949.367167","243116.306061","243883.045291","244649.874181","245416.775419","246182.803239","256191.612229","Mapping"
"Mixed","Both","ball","4","m160priest.wav","None","731.032088166","163","254666.344507","246932.823567","247699.506527","248466.245448","249232.623562","249999.077734","250765.830876","251532.858256","255415.944668","256182.56301","256949.367167","257716.202859","243883.045291","244649.874181","245416.775419","246182.803239","256958.745347","Mapping"
"Mixed","Both","ball","4","m150ball.wav","None","727.920868667","163","254666.344507","246932.823567","247699.506527","248466.245448","249232.623562","249999.077734","250765.830876","251532.858256","255415.944668","256182.56301","256949.367167","257716.202859","258482.833569","244649.874181","245416.775419","246182.803239","257725.477156","Mapping"
"Mixed","Both","ball","4","m150dime.wav","space","357.026585378","163","254666.344507","246932.823567","247699.506527","248466.245448","249232.623562","249999.077734","250765.830876","251532.858256","255415.944668","256182.56301","256949.367167","257716.202859","258482.833569","259249.258678","245416.775419","246182.803239","258492.372828","Mapping"
"Mixed","Both","ball","4","m150romp.wav","None","722.562571289","163","254666.344507","246932.823567","247699.506527","248466.245448","249232.623562","249999.077734","250765.830876","251532.858256","255415.944668","256182.56301","256949.367167","257716.202859","258482.833569","259249.258678","260016.63697","246182.803239","259258.054683","Mapping"
"Mixed","Both","ball","4","m150reek.wav","None","721.424501389","163","254666.344507","246932.823567","247699.506527","248466.245448","249232.623562","249999.077734","250765.830876","251532.858256","255415.944668","256182.56301","256949.367167","257716.202859","258482.833569","259249.258678","260016.63697","260765.880035","260026.254451","Mapping"
"Mixed","Both","ball","4","m160cling.wav","None","735.824287869","163","254666.344507","261532.981308","247699.506527","248466.245448","249232.623562","249999.077734","250765.830876","251532.858256","255415.944668","256182.56301","256949.367167","257716.202859","258482.833569","259249.258678","260016.63697","260765.880035","260775.269963","Mapping"
"Mixed","Both","ball","4","m150tile.wav","None","735.576020787","163","254666.344507","261532.981308","262316.565582","248466.245448","249232.623562","249999.077734","250765.830876","251532.858256","255415.944668","256182.56301","256949.367167","257716.202859","258482.833569","259249.258678","260016.63697","260765.880035","261542.524586","Mapping"
"Mixed","Both","ball","4","m150ball.wav","None","712.174628861","163","254666.344507","261532.981308","262316.565582","263065.970963","249232.623562","249999.077734","250765.830876","251532.858256","255415.944668","256182.56301","256949.367167","257716.202859","258482.833569","259249.258678","260016.63697","260765.880035","262332.829998","Mapping"
"Mixed","Both","ball","4","m160depth.wav","space","470.094047487","163","254666.344507","261532.981308","262316.565582","263065.970963","263832.645266","249999.077734","250765.830876","251532.858256","255415.944668","256182.56301","256949.367167","257716.202859","258482.833569","259249.258678","260016.63697","260765.880035","263075.230729","Mapping"
"Mixed","Both","ball","4","m160ball.wav","None","729.613288073","163","254666.344507","261532.981308","262316.565582","263065.970963","263832.645266","264598.902803","250765.830876","251532.858256","255415.944668","256182.56301","256949.367167","257716.202859","258482.833569","259249.258678","260016.63697","260765.880035","263841.918327","Mapping"
"Mixed","Both","ball","4","m160tile.wav","space","561.290530022","163","254666.344507","261532.981308","262316.565582","263065.970963","263832.645266","264598.902803","265365.821354","251532.858256","255415.944668","256182.56301","256949.367167","257716.202859","258482.833569","259249.258678","260016.63697","260765.880035","264608.002417","Mapping"
"Mixed","Both","ball","4","m150bluff.wav","None","723.483910551","163","254666.344507","261532.981308","262316.565582","263065.970963","263832.645266","264598.902803","265365.821354","266132.971785","255415.944668","256182.56301","256949.367167","257716.202859","258482.833569","259249.258678","260016.63697","260765.880035","265374.861297","Mapping"
"Mixed","Both","tile","33","m150greet.wav","None","719.870592002","163","269249.10069","261532.981308","262316.565582","263065.970963","263832.645266","264598.902803","265365.821354","266132.971785","255415.944668","256182.56301","256949.367167","257716.202859","258482.833569","259249.258678","260016.63697","260765.880035","266142.55031","Mapping"
"Mixed","Both","tile","33","m160reek.wav","None","726.464040112","163","269249.10069","261532.981308","262316.565582","263065.970963","263832.645266","264598.902803","265365.821354","266132.971785","270015.749022","256182.56301","256949.367167","257716.202859","258482.833569","259249.258678","260016.63697","260765.880035","269258.669012","Mapping"
"Mixed","Both","tile","33","m160tile.wav","None","722.061091103","163","269249.10069","261532.981308","262316.565582","263065.970963","263832.645266","264598.902803","265365.821354","266132.971785","270015.749022","270783.029307","256949.367167","257716.202859","258482.833569","259249.258678","260016.63697","260765.880035","270026.765207","Mapping"
"Mixed","Both","tile","33","m160cad.wav","space","312.159850495","163","269249.10069","261532.981308","262316.565582","263065.970963","263832.645266","264598.902803","265365.821354","266132.971785","270015.749022","270783.029307","271532.5463","257716.202859","258482.833569","259249.258678","260016.63697","260765.880035","270793.065718","Mapping"
"Mixed","Both","tile","33","m160park.wav","None","733.378101606","163","269249.10069","261532.981308","262316.565582","263065.970963","263832.645266","264598.902803","265365.821354","266132.971785","270015.749022","270783.029307","271532.5463","272299.088585","258482.833569","259249.258678","260016.63697","260765.880035","271542.221287","Mapping"
"Mixed","Both","tile","33","m150tile.wav","None","731.02837801","163","269249.10069","261532.981308","262316.565582","263065.970963","263832.645266","264598.902803","265365.821354","266132.971785","270015.749022","270783.029307","271532.5463","272299.088585","273065.893051","259249.258678","260016.63697","260765.880035","272308.163156","Mapping"
"Mixed","Both","tile","33","m160bluff.wav","space","438.115237281","163","269249.10069","261532.981308","262316.565582","263065.970963","263832.645266","264598.902803","265365.821354","266132.971785","270015.749022","270783.029307","271532.5463","272299.088585","273065.893051","273832.541384","260016.63697","260765.880035","273075.079543","Mapping"
"Mixed","Both","tile","33","m150jolt.wav","None","727.220589062","163","269249.10069","261532.981308","262316.565582","263065.970963","263832.645266","264598.902803","265365.821354","266132.971785","270015.749022","270783.029307","271532.5463","272299.088585","273065.893051","273832.541384","274598.901566","260765.880035","273842.174014","Mapping"
"Mixed","Both","tile","33","m150dime.wav","None","728.461923543","163","269249.10069","261532.981308","262316.565582","263065.970963","263832.645266","264598.902803","265365.821354","266132.971785","270015.749022","270783.029307","271532.5463","272299.088585","273065.893051","273832.541384","274598.901566","275365.523","274608.067343","Mapping"
"Mixed","Both","tile","33","m160greet.wav","None","725.517967017","163","269249.10069","276132.889854","262316.565582","263065.970963","263832.645266","264598.902803","265365.821354","266132.971785","270015.749022","270783.029307","271532.5463","272299.088585","273065.893051","273832.541384","274598.901566","275365.523","275374.692488","Mapping"
"Mixed","Both","tile","33","m150greet.wav","None","721.555591095","163","269249.10069","276132.889854","276882.533608","263065.970963","263832.645266","264598.902803","265365.821354","266132.971785","270015.749022","270783.029307","271532.5463","272299.088585","273065.893051","273832.541384","274598.901566","275365.523","276142.539179","Mapping"
"Mixed","Both","tile","33","m160tile.wav","None","735.673101386","163","269249.10069","276132.889854","276882.533608","277649.048686","263832.645266","264598.902803","265365.821354","266132.971785","270015.749022","270783.029307","271532.5463","272299.088585","273065.893051","273832.541384","274598.901566","275365.523","276892.066066","Mapping"
"Mixed","Both","tile","33","m160romp.wav","space","382.621877361","163","269249.10069","276132.889854","276882.533608","277649.048686","278415.419381","264598.902803","265365.821354","266132.971785","270015.749022","270783.029307","271532.5463","272299.088585","273065.893051","273832.541384","274598.901566","275365.523","277658.499522","Mapping"
"Mixed","Both","tile","33","m150tile.wav","None","730.275539216","163","269249.10069","276132.889854","276882.533608","277649.048686","278415.419381","279182.514161","265365.821354","266132.971785","270015.749022","270783.029307","271532.5463","272299.088585","273065.893051","273832.541384","274598.901566","275365.523","278424.516212","Mapping"
"Mixed","Both","tile","33","m150jaw.wav","space","545.198633568","163","269249.10069","276132.889854","276882.533608","277649.048686","278415.419381","279182.514161","279949.031404","266132.971785","270015.749022","270783.029307","271532.5463","272299.088585","273065.893051","273832.541384","274598.901566","275365.523","279191.896051","Mapping"
"Mixed","Both","tile","33","m150romp.wav","None","723.77020563","163","269249.10069","276132.889854","276882.533608","277649.048686","278415.419381","279182.514161","279949.031404","280716.181835","270015.749022","270783.029307","271532.5463","272299.088585","273065.893051","273832.541384","274598.901566","275365.523","279957.930363","Mapping"
"Mixed","Both","ball","7","m160depth.wav","None","719.756506849","163","283832.762443","276132.889854","276882.533608","277649.048686","278415.419381","279182.514161","279949.031404","280716.181835","270015.749022","270783.029307","271532.5463","272299.088585","273065.893051","273832.541384","274598.901566","275365.523","280725.898561","Mapping"
"Mixed","Both","ball","7","m150ball.wav","None","719.237094279","163","283832.762443","276132.889854","276882.533608","277649.048686","278415.419381","279182.514161","279949.031404","280716.181835","284582.059304","270783.029307","271532.5463","272299.088585","273065.893051","273832.541384","274598.901566","275365.523","283842.694045","Mapping"
"Mixed","Both","ball","7","m160priest.wav","space","337.835836457","163","283832.762443","276132.889854","276882.533608","277649.048686","278415.419381","279182.514161","279949.031404","280716.181835","284582.059304","285349.075554","271532.5463","272299.088585","273065.893051","273832.541384","274598.901566","275365.523","284591.189835","Mapping"
"Mixed","Both","ball","7","m160jaw.wav","None","730.12033361","163","283832.762443","276132.889854","276882.533608","277649.048686","278415.419381","279182.514161","279949.031404","280716.181835","284582.059304","285349.075554","286115.684312","272299.088585","273065.893051","273832.541384","274598.901566","275365.523","285358.455898","Mapping"
"Mixed","Both","ball","7","m160ball.wav","None","730.487941764","163","283832.762443","276132.889854","276882.533608","277649.048686","278415.419381","279182.514161","279949.031404","280716.181835","284582.059304","285349.075554","286115.684312","286882.361398","273065.893051","273832.541384","274598.901566","275365.523","286125.239958","Mapping"
"Mixed","Both","ball","7","m150greet.wav","space","605.079793371","163","283832.762443","276132.889854","276882.533608","277649.048686","278415.419381","279182.514161","279949.031404","280716.181835","284582.059304","285349.075554","286115.684312","286882.361398","287648.784033","273832.541384","274598.901566","275365.523","286891.88458","Mapping"
"Mixed","Both","ball","7","m150romp.wav","None","729.767256882","163","283832.762443","276132.889854","276882.533608","277649.048686","278415.419381","279182.514161","279949.031404","280716.181835","284582.059304","285349.075554","286115.684312","286882.361398","287648.784033","288416.333609","274598.901566","275365.523","287652.980145","Mapping"
"Mixed","Both","ball","7","m160lash.wav","None","719.660662813","163","283832.762443","276132.889854","276882.533608","277649.048686","278415.419381","279182.514161","279949.031404","280716.181835","284582.059304","285349.075554","286115.684312","286882.361398","287648.784033","288416.333609","289182.800765","275365.523","288426.742884","Mapping"
"Mixed","Both","ball","7","m150depth.wav","None","720.595914638","163","283832.762443","276132.889854","276882.533608","277649.048686","278415.419381","279182.514161","279949.031404","280716.181835","284582.059304","285349.075554","286115.684312","286882.361398","287648.784033","288416.333609","289182.800765","289932.277875","289192.804404","Mapping"
"Mixed","Both","ball","7","m150ball.wav","None","735.439056531","163","283832.762443","290698.489653","276882.533608","277649.048686","278415.419381","279182.514161","279949.031404","280716.181835","284582.059304","285349.075554","286115.684312","286882.361398","287648.784033","288416.333609","289182.800765","289932.277875","289941.865365","Mapping"
"Mixed","Both","ball","7","m160jolt.wav","space","341.539433692","163","283832.762443","290698.489653","291465.62308","277649.048686","278415.419381","279182.514161","279949.031404","280716.181835","284582.059304","285349.075554","286115.684312","286882.361398","287648.784033","288416.333609","289182.800765","289932.277875","290707.382739","Mapping"
"Mixed","Both","ball","7","m160ball.wav","None","732.569611399","163","283832.762443","290698.489653","291465.62308","292232.268939","278415.419381","279182.514161","279949.031404","280716.181835","284582.059304","285349.075554","286115.684312","286882.361398","287648.784033","288416.333609","289182.800765","289932.277875","291475.266222","Mapping"
"Mixed","Both","ball","7","m150tile.wav","space","503.121885937","163","283832.762443","290698.489653","291465.62308","292232.268939","292998.73455","279182.514161","279949.031404","280716.181835","284582.059304","285349.075554","286115.684312","286882.361398","287648.784033","288416.333609","289182.800765","289932.277875","292241.769552","Mapping"
"Mixed","Both","ball","7","m150romp.wav","None","726.753117982","163","283832.762443","290698.489653","291465.62308","292232.268939","292998.73455","293765.479964","279949.031404","280716.181835","284582.059304","285349.075554","286115.684312","286882.361398","287648.784033","288416.333609","289182.800765","289932.277875","293007.843439","Mapping"
"Mixed","Both","ball","7","m160priest.wav","None","724.027438555","163","283832.762443","290698.489653","291465.62308","292232.268939","292998.73455","293765.479964","294532.291231","280716.181835","284582.059304","285349.075554","286115.684312","286882.361398","287648.784033","288416.333609","289182.800765","289932.277875","293774.33533","Mapping"
"Mixed","Both","ball","7","m150cling.wav","None","720.22459656","163","283832.762443","290698.489653","291465.62308","292232.268939","292998.73455","293765.479964","294532.291231","295282.13162","284582.059304","285349.075554","286115.684312","286882.361398","287648.784033","288416.333609","289182.800765","289932.277875","294541.943339","Mapping"
"Mixed","Both","done","44","m160bluff.wav","None","734.568422195","163","298415.934465","290698.489653","291465.62308","292232.268939","292998.73455","293765.479964","294532.291231","295282.13162","284582.059304","285349.075554","286115.684312","286882.361398","287648.784033","288416.333609","289182.800765","289932.277875","295291.451984","Mapping"
"Mixed","Both","done","44","m160gnash.wav","None","718.616890954","163","298415.934465","290698.489653","291465.62308","292232.268939","292998.73455","293765.479964","294532.291231","295282.13162","299182.560228","285349.075554","286115.684312","286882.361398","287648.784033","288416.333609","289182.800765","289932.277875","298426.086508","Mapping"
"Mixed","Both","done","44","m150done.wav","None","719.423217","163","298415.934465","290698.489653","291465.62308","292232.268939","292998.73455","293765.479964","294532.291231","295282.13162","299182.560228","299932.004874","286115.684312","286882.361398","287648.784033","288416.333609","289182.800765","289932.277875","299192.385474","Mapping"
"Mixed","Both","done","44","m160ball.wav","space","451.465995517","163","298415.934465","290698.489653","291465.62308","292232.268939","292998.73455","293765.479964","294532.291231","295282.13162","299182.560228","299932.004874","300698.706075","286882.361398","287648.784033","288416.333609","289182.800765","289932.277875","299941.334822","Mapping"
"Mixed","Both","done","44","m160done.wav","None","730.350359343","163","298415.934465","290698.489653","291465.62308","292232.268939","292998.73455","293765.479964","294532.291231","295282.13162","299182.560228","299932.004874","300698.706075","301465.536821","287648.784033","288416.333609","289182.800765","289932.277875","300708.065086","Mapping"
"Mixed","Both","done","44","m150park.wav","space","453.875389881","163","298415.934465","290698.489653","291465.62308","292232.268939","292998.73455","293765.479964","294532.291231","295282.13162","299182.560228","299932.004874","300698.706075","301465.536821","302231.984499","288416.333609","289182.800765","289932.277875","301474.867697","Mapping"
"Mixed","Both","done","44","m150romp.wav","None","724.318989785","163","298415.934465","290698.489653","291465.62308","292232.268939","292998.73455","293765.479964","294532.291231","295282.13162","299182.560228","299932.004874","300698.706075","301465.536821","302231.984499","302999.029193","289182.800765","289932.277875","302241.211493","Mapping"
"Mixed","Both","done","44","m150cave.wav","None","725.245584734","163","298415.934465","290698.489653","291465.62308","292232.268939","292998.73455","293765.479964","294532.291231","295282.13162","299182.560228","299932.004874","300698.706075","301465.536821","302231.984499","302999.029193","303748.386343","289932.277875","303003.951555","Mapping"
"Mixed","Both","done","44","m150jaw.wav","None","734.616344096","163","298415.934465","290698.489653","291465.62308","292232.268939","292998.73455","293765.479964","294532.291231","295282.13162","299182.560228","299932.004874","300698.706075","301465.536821","302231.984499","302999.029193","303748.386343","304515.57975","303758.363393","Mapping"
"Mixed","Both","done","44","m150cling.wav","None","731.66589532","163","298415.934465","305282.055563","291465.62308","292232.268939","292998.73455","293765.479964","294532.291231","295282.13162","299182.560228","299932.004874","300698.706075","301465.536821","302231.984499","302999.029193","303748.386343","304515.57975","304525.086236","Mapping"
"Mixed","Both","done","44","m160done.wav","None","728.799232515","163","298415.934465","305282.055563","306048.616708","292232.268939","292998.73455","293765.479964","294532.291231","295282.13162","299182.560228","299932.004874","300698.706075","301465.536821","302231.984499","302999.029193","303748.386343","304515.57975","305291.553084","Mapping"
"Mixed","Both","done","44","m160tile.wav","space","390.622685896","163","298415.934465","305282.055563","306048.616708","306815.814753","292998.73455","293765.479964","294532.291231","295282.13162","299182.560228","299932.004874","300698.706075","301465.536821","302231.984499","302999.029193","303748.386343","304515.57975","306058.064452","Mapping"
"Mixed","Both","done","44","m160romp.wav","None","722.237938549","163","298415.934465","305282.055563","306048.616708","306815.814753","307582.288093","293765.479964","294532.291231","295282.13162","299182.560228","299932.004874","300698.706075","301465.536821","302231.984499","302999.029193","303748.386343","304515.57975","306825.425122","Mapping"
"Mixed","Both","done","44","m150done.wav","None","719.075086992","163","298415.934465","305282.055563","306048.616708","306815.814753","307582.288093","308331.714497","294532.291231","295282.13162","299182.560228","299932.004874","300698.706075","301465.536821","302231.984499","302999.029193","303748.386343","304515.57975","307592.458995","Mapping"
"Mixed","Both","done","44","m160romp.wav","space","420.117591508","163","298415.934465","305282.055563","306048.616708","306815.814753","307582.288093","308331.714497","309098.487736","295282.13162","299182.560228","299932.004874","300698.706075","301465.536821","302231.984499","302999.029193","303748.386343","304515.57975","308340.52627","Mapping"
"Mixed","Both","done","44","m150romp.wav","None","730.883684708","163","298415.934465","305282.055563","306048.616708","306815.814753","307582.288093","308331.714497","309098.487736","309865.333322","299182.560228","299932.004874","300698.706075","301465.536821","302231.984499","302999.029193","303748.386343","304515.57975","309107.857259","Mapping"
"Mixed","Both","cave","15","m150depth.wav","None","728.019495262","163","312998.842143","305282.055563","306048.616708","306815.814753","307582.288093","308331.714497","309098.487736","309865.333322","299182.560228","299932.004874","300698.706075","301465.536821","302231.984499","302999.029193","303748.386343","304515.57975","309874.590615","Mapping"
"Mixed","Both","cave","15","m150ball.wav","None","720.146066276","163","312998.842143","305282.055563","306048.616708","306815.814753","307582.288093","308331.714497","309098.487736","309865.333322","313748.045942","299932.004874","300698.706075","301465.536821","302231.984499","302999.029193","303748.386343","304515.57975","313008.488376","Mapping"
"Mixed","Both","cave","15","m150ball.wav","None","735.258189728","163","312998.842143","305282.055563","306048.616708","306815.814753","307582.288093","308331.714497","309098.487736","309865.333322","313748.045942","314515.25759","300698.706075","301465.536821","302231.984499","302999.029193","303748.386343","304515.57975","313757.21883","Mapping"
"Mixed","Both","cave","15","m160cling.wav","None","733.801051974","163","312998.842143","305282.055563","306048.616708","306815.814753","307582.288093","308331.714497","309098.487736","309865.333322","313748.045942","314515.25759","315281.549136","301465.536821","302231.984499","302999.029193","303748.386343","304515.57975","314524.319485","Mapping"
"Mixed","Both","cave","15","m150ball.wav","None","731.848617084","163","312998.842143","305282.055563","306048.616708","306815.814753","307582.288093","308331.714497","309098.487736","309865.333322","313748.045942","314515.25759","315281.549136","316048.430586","302231.984499","302999.029193","303748.386343","304515.57975","315290.240949","Mapping"
"Mixed","Both","cave","15","m160cave.wav","None","727.879439481","163","312998.842143","305282.055563","306048.616708","306815.814753","307582.288093","308331.714497","309098.487736","309865.333322","313748.045942","314515.25759","315281.549136","316048.430586","316815.275244","302999.029193","303748.386343","304515.57975","316058.072182","Mapping"
"Mixed","Both","cave","15","m160bluff.wav","space","392.000366235","163","312998.842143","305282.055563","306048.616708","306815.814753","307582.288093","308331.714497","309098.487736","309865.333322","313748.045942","314515.25759","315281.549136","316048.430586","316815.275244","317582.315609","303748.386343","304515.57975","316824.54985","Mapping"
"Mixed","Both","cave","15","m160greet.wav","None","720.602716319","163","312998.842143","305282.055563","306048.616708","306815.814753","307582.288093","308331.714497","309098.487736","309865.333322","313748.045942","314515.25759","315281.549136","316048.430586","316815.275244","317582.315609","318331.602576","304515.57975","317592.254631","Mapping"
"Mixed","Both","cave","15","m150cave.wav","None","735.445858445","163","312998.842143","305282.055563","306048.616708","306815.814753","307582.288093","308331.714497","309098.487736","309865.333322","313748.045942","314515.25759","315281.549136","316048.430586","316815.275244","317582.315609","318331.602576","319098.331913","318341.388866","Mapping"
"Mixed","Both","cave","15","m150reek.wav","space","573.123552371","163","312998.842143","319864.893058","306048.616708","306815.814753","307582.288093","308331.714497","309098.487736","309865.333322","313748.045942","314515.25759","315281.549136","316048.430586","316815.275244","317582.315609","318331.602576","319098.331913","319107.376803","Mapping"
"Mixed","Both","cave","15","m160cave.wav","None","729.644205421","163","312998.842143","319864.893058","320631.540773","306815.814753","307582.288093","308331.714497","309098.487736","309865.333322","313748.045942","314515.25759","315281.549136","316048.430586","316815.275244","317582.315609","318331.602576","319098.331913","319874.126544","Mapping"
"Mixed","Both","cave","15","m160bluff.wav","space","719.722806709","163","312998.842143","319864.893058","320631.540773","321398.321741","307582.288093","308331.714497","309098.487736","309865.333322","313748.045942","314515.25759","315281.549136","316048.430586","316815.275244","317582.315609","318331.602576","319098.331913","320640.744269","Mapping"
"Mixed","Both","cave","15","m160cling.wav","None","723.408780992","163","312998.842143","319864.893058","320631.540773","321398.321741","322164.935137","308331.714497","309098.487736","309865.333322","313748.045942","314515.25759","315281.549136","316048.430586","316815.275244","317582.315609","318331.602576","319098.331913","321407.247599","Mapping"
"Mixed","Both","cave","15","m160cling.wav","None","720.501616597","163","312998.842143","319864.893058","320631.540773","321398.321741","322164.935137","322914.668861","309098.487736","309865.333322","313748.045942","314515.25759","315281.549136","316048.430586","316815.275244","317582.315609","318331.602576","319098.331913","322174.071542","Mapping"
"Mixed","Both","cave","15","m150cave.wav","None","734.931701794","163","312998.842143","319864.893058","320631.540773","321398.321741","322164.935137","322914.668861","323681.544127","309865.333322","313748.045942","314515.25759","315281.549136","316048.430586","316815.275244","317582.315609","318331.602576","319098.331913","322923.366548","Mapping"
"Mixed","Both","cave","15","m150depth.wav","space","405.61515931","163","312998.842143","319864.893058","320631.540773","321398.321741","322164.935137","322914.668861","323681.544127","324448.320149","313748.045942","314515.25759","315281.549136","316048.430586","316815.275244","317582.315609","318331.602576","319098.331913","323690.807603","Mapping"
"Mixed","Both","done","46","m160knife.wav","None","728.184903506","163","327582.10568","319864.893058","320631.540773","321398.321741","322164.935137","322914.668861","323681.544127","324448.320149","313748.045942","314515.25759","315281.549136","316048.430586","316815.275244","317582.315609","318331.602576","319098.331913","324457.688435","Mapping"
"Mixed","Both","done","46","m160done.wav","None","719.399101567","163","327582.10568","319864.893058","320631.540773","321398.321741","322164.935137","322914.668861","323681.544127","324448.320149","328331.682343","314515.25759","315281.549136","316048.430586","316815.275244","317582.315609","318331.602576","319098.331913","327591.909902","Mapping"
"Mixed","Both","done","46","m160dime.wav","space","707.24824816","163","327582.10568","319864.893058","320631.540773","321398.321741","322164.935137","322914.668861","323681.544127","324448.320149","328331.682343","329098.247508","315281.549136","316048.430586","316815.275244","317582.315609","318331.602576","319098.331913","328341.152657","Mapping"
"Mixed","Both","done","46","m160priest.wav","None","733.935851837","163","327582.10568","319864.893058","320631.540773","321398.321741","322164.935137","322914.668861","323681.544127","324448.320149","328331.682343","329098.247508","329864.673235","316048.430586","316815.275244","317582.315609","318331.602576","319098.331913","329107.753686","Mapping"
"Mixed","Both","done","46","m160done.wav","None","732.139550149","163","327582.10568","319864.893058","320631.540773","321398.321741","322164.935137","322914.668861","323681.544127","324448.320149","328331.682343","329098.247508","329864.673235","330631.725349","316815.275244","317582.315609","318331.602576","319098.331913","329873.4881","Mapping"
"Mixed","Both","done","46","m160bluff.wav","space","326.722262427","163","327582.10568","319864.893058","320631.540773","321398.321741","322164.935137","322914.668861","323681.544127","324448.320149","328331.682343","329098.247508","329864.673235","330631.725349","331398.208274","317582.315609","318331.602576","319098.331913","330641.611811","Mapping"
"Mixed","Both","done","46","m150reek.wav","None","725.123461103","163","327582.10568","319864.893058","320631.540773","321398.321741","322164.935137","322914.668861","323681.544127","324448.320149","328331.682343","329098.247508","329864.673235","330631.725349","331398.208274","332164.804665","318331.602576","319098.331913","331407.630975","Mapping"
"Mixed","Both","done","46","m150done.wav","None","722.756114556","163","327582.10568","319864.893058","320631.540773","321398.321741","322164.935137","322914.668861","323681.544127","324448.320149","328331.682343","329098.247508","329864.673235","330631.725349","331398.208274","332164.804665","332932.00271","319098.331913","332173.947873","Mapping"
"Mixed","Both","done","46","m150tile.wav","space","378.517281031","163","327582.10568","319864.893058","320631.540773","321398.321741","322164.935137","322914.668861","323681.544127","324448.320149","328331.682343","329098.247508","329864.673235","330631.725349","331398.208274","332164.804665","332932.00271","333681.729941","332941.801366","Mapping"
"Mixed","Both","done","46","m160cling.wav","None","737.772393972","163","327582.10568","334448.197097","320631.540773","321398.321741","322164.935137","322914.668861","323681.544127","324448.320149","328331.682343","329098.247508","329864.673235","330631.725349","331398.208274","332164.804665","332932.00271","333681.729941","333686.094243","Mapping"
"Mixed","Both","done","46","m150done.wav","None","730.070865713","163","327582.10568","334448.197097","335214.533473","321398.321741","322164.935137","322914.668861","323681.544127","324448.320149","328331.682343","329098.247508","329864.673235","330631.725349","331398.208274","332164.804665","332932.00271","333681.729941","334457.749033","Mapping"
"Mixed","Both","done","46","m150park.wav","space","296.570052858","163","327582.10568","334448.197097","335214.533473","335981.997407","322164.935137","322914.668861","323681.544127","324448.320149","328331.682343","329098.247508","329864.673235","330631.725349","331398.208274","332164.804665","332932.00271","333681.729941","335223.678845","Mapping"
"Mixed","Both","done","46","m150dime.wav","None","723.18184725","163","327582.10568","334448.197097","335214.533473","335981.997407","336748.505066","322914.668861","323681.544127","324448.320149","328331.682343","329098.247508","329864.673235","330631.725349","331398.208274","332164.804665","332932.00271","333681.729941","335992.011558","Mapping"
"Mixed","Both","done","46","m150gnash.wav","space","402.191982837","163","327582.10568","334448.197097","335214.533473","335981.997407","336748.505066","337497.976919","323681.544127","324448.320149","328331.682343","329098.247508","329864.673235","330631.725349","331398.208274","332164.804665","332932.00271","333681.729941","336758.042779","Mapping"
"Mixed","Both","done","46","m160dime.wav","None","734.923972515","163","327582.10568","334448.197097","335214.533473","335981.997407","336748.505066","337497.976919","338264.769945","324448.320149","328331.682343","329098.247508","329864.673235","330631.725349","331398.208274","332164.804665","332932.00271","333681.729941","337507.572139","Mapping"
"Mixed","Both","done","46","m150tile.wav","None","732.598364586","163","327582.10568","334448.197097","335214.533473","335981.997407","336748.505066","337497.976919","338264.769945","339031.493407","328331.682343","329098.247508","329864.673235","330631.725349","331398.208274","332164.804665","332932.00271","333681.729941","338274.113188","Mapping"
"Mixed","Both","tile","26","m150reek.wav","None","730.437237071","163","342165.131772","334448.197097","335214.533473","335981.997407","336748.505066","337497.976919","338264.769945","339031.493407","328331.682343","329098.247508","329864.673235","330631.725349","331398.208274","332164.804665","332932.00271","333681.729941","339040.754101","Mapping"
"Mixed","Both","tile","26","m150cave.wav","None","720.068463357","163","342165.131772","334448.197097","335214.533473","335981.997407","336748.505066","337497.976919","338264.769945","339031.493407","342914.355976","329098.247508","329864.673235","330631.725349","331398.208274","332164.804665","332932.00271","333681.729941","342175.032147","Mapping"
"Mixed","Both","tile","26","m150jaw.wav","None","736.080283765","163","342165.131772","334448.197097","335214.533473","335981.997407","336748.505066","337497.976919","338264.769945","339031.493407","342914.355976","343681.152713","329864.673235","330631.725349","331398.208274","332164.804665","332932.00271","333681.729941","342923.080253","Mapping"
"Mixed","Both","tile","26","m160park.wav","None","733.614001423","163","342165.131772","334448.197097","335214.533473","335981.997407","336748.505066","337497.976919","338264.769945","339031.493407","342914.355976","343681.152713","344447.985622","330631.725349","331398.208274","332164.804665","332932.00271","333681.729941","343690.00406","Mapping"
"Mixed","Both","tile","26","m160tile.wav","None","730.221124366","163","342165.131772","334448.197097","335214.533473","335981.997407","336748.505066","337497.976919","338264.769945","339031.493407","342914.355976","343681.152713","344447.985622","345214.827189","331398.208274","332164.804665","332932.00271","333681.729941","344457.413579","Mapping"
"Mixed","Both","tile","26","m160cave.wav","space","567.751032999","163","342165.131772","334448.197097","335214.533473","335981.997407","336748.505066","337497.976919","338264.769945","339031.493407","342914.355976","343681.152713","344447.985622","345214.827189","345981.136048","332164.804665","332932.00271","333681.729941","345224.349753","Mapping"
"Mixed","Both","tile","26","m150tile.wav","None","725.713674445","163","342165.131772","334448.197097","335214.533473","335981.997407","336748.505066","337497.976919","338264.769945","339031.493407","342914.355976","343681.152713","344447.985622","345214.827189","345981.136048","346748.076241","332932.00271","333681.729941","345989.854141","Mapping"
"Mixed","Both","tile","26","m150park.wav","space","594.99607794","163","342165.131772","334448.197097","335214.533473","335981.997407","336748.505066","337497.976919","338264.769945","339031.493407","342914.355976","343681.152713","344447.985622","345214.827189","345981.136048","346748.076241","347497.89406","333681.729941","346757.093615","Mapping"
"Mixed","Both","tile","26","m150cad.wav","None","735.807901481","163","342165.131772","334448.197097","335214.533473","335981.997407","336748.505066","337497.976919","338264.769945","339031.493407","342914.355976","343681.152713","344447.985622","345214.827189","345981.136048","346748.076241","347497.89406","348281.972086","347507.281515","Mapping"
"Mixed","Both","tile","26","m160cad.wav","None","719.751869095","163","342165.131772","349031.004603","335214.533473","335981.997407","336748.505066","337497.976919","338264.769945","339031.493407","342914.355976","343681.152713","344447.985622","345214.827189","345981.136048","346748.076241","347497.89406","348281.972086","348291.6143","Mapping"
"Mixed","Both","tile","26","m160tile.wav","None","735.425143735","163","342165.131772","349031.004603","349797.622018","335981.997407","336748.505066","337497.976919","338264.769945","339031.493407","342914.355976","343681.152713","344447.985622","345214.827189","345981.136048","346748.076241","347497.89406","348281.972086","349040.030324","Mapping"
"Mixed","Both","tile","26","m160jaw.wav","space","537.519056816","163","342165.131772","349031.004603","349797.622018","350564.71989","336748.505066","337497.976919","338264.769945","339031.493407","342914.355976","343681.152713","344447.985622","345214.827189","345981.136048","346748.076241","347497.89406","348281.972086","349806.510156","Mapping"
"Mixed","Both","tile","26","m160dime.wav","None","729.245370952","163","342165.131772","349031.004603","349797.622018","350564.71989","351331.327411","337497.976919","338264.769945","339031.493407","342914.355976","343681.152713","344447.985622","345214.827189","345981.136048","346748.076241","347497.89406","348281.972086","350574.0418","Mapping"
"Mixed","Both","tile","26","m150cave.wav","None","726.628520759","163","342165.131772","349031.004603","349797.622018","350564.71989","351331.327411","352097.712019","338264.769945","339031.493407","342914.355976","343681.152713","344447.985622","345214.827189","345981.136048","346748.076241","347497.89406","348281.972086","351340.857705","Mapping"
"Mixed","Both","tile","26","m150tile.wav","None","724.920024397","163","342165.131772","349031.004603","349797.622018","350564.71989","351331.327411","352097.712019","352865.065577","339031.493407","342914.355976","343681.152713","344447.985622","345214.827189","345981.136048","346748.076241","347497.89406","348281.972086","352106.777005","Mapping"
"Mixed","Both","tile","26","m160romp.wav","space","628.900425276","163","342165.131772","349031.004603","349797.622018","350564.71989","351331.327411","352097.712019","352865.065577","353614.198267","342914.355976","343681.152713","344447.985622","345214.827189","345981.136048","346748.076241","347497.89406","348281.972086","352875.089313","Mapping"
"Mixed","Both","ball","2","m150done.wav","None","735.850876663","163","356748.10654","349031.004603","349797.622018","350564.71989","351331.327411","352097.712019","352865.065577","353614.198267","342914.355976","343681.152713","344447.985622","345214.827189","345981.136048","346748.076241","347497.89406","348281.972086","353623.516157","Mapping"
"Mixed","Both","ball","2","m160jaw.wav","None","720.195224974","163","356748.10654","349031.004603","349797.622018","350564.71989","351331.327411","352097.712019","352865.065577","353614.198267","357497.736072","343681.152713","344447.985622","345214.827189","345981.136048","346748.076241","347497.89406","348281.972086","356757.723711","Mapping"
"Mixed","Both","ball","2","m160ball.wav","None","734.765366185","163","356748.10654","349031.004603","349797.622018","350564.71989","351331.327411","352097.712019","352865.065577","353614.198267","357497.736072","358264.676884","344447.985622","345214.827189","345981.136048","346748.076241","347497.89406","348281.972086","357507.238231","Mapping"
"Mixed","Both","ball","2","m160park.wav","space","526.224924717","163","356748.10654","349031.004603","349797.622018","350564.71989","351331.327411","352097.712019","352865.065577","353614.198267","357497.736072","358264.676884","359031.375921","345214.827189","345981.136048","346748.076241","347497.89406","348281.972086","358273.677562","Mapping"
"Mixed","Both","ball","2","m150knife.wav","None","728.405962931","163","356748.10654","349031.004603","349797.622018","350564.71989","351331.327411","352097.712019","352865.065577","353614.198267","357497.736072","358264.676884","359031.375921","359797.722809","345981.136048","346748.076241","347497.89406","348281.972086","359040.78038","Mapping"
"Mixed","Both","ball","2","m150jolt.wav","None","726.358611602","163","356748.10654","349031.004603","349797.622018","350564.71989","351331.327411","352097.712019","352865.065577","353614.198267","357497.736072","358264.676884","359031.375921","359797.722809","360564.381035","346748.076241","347497.89406","348281.972086","359807.112428","Mapping"
"Mixed","Both","ball","2","m150ball.wav","None","723.91644516","163","356748.10654","349031.004603","349797.622018","350564.71989","351331.327411","352097.712019","352865.065577","353614.198267","357497.736072","358264.676884","359031.375921","359797.722809","360564.381035","361331.625146","347497.89406","348281.972086","360573.762615","Mapping"
"Mixed","Both","ball","2","m150jolt.wav","space","522.60944224","163","356748.10654","349031.004603","349797.622018","350564.71989","351331.327411","352097.712019","352865.065577","353614.198267","357497.736072","358264.676884","359031.375921","359797.722809","360564.381035","361331.625146","362081.098855","348281.972086","361341.251593","Mapping"
"Mixed","Both","ball","2","m160greet.wav","None","734.689618461","163","356748.10654","349031.004603","349797.622018","350564.71989","351331.327411","352097.712019","352865.065577","353614.198267","357497.736072","358264.676884","359031.375921","359797.722809","360564.381035","361331.625146","362081.098855","362847.67113","362090.329558","Mapping"
"Mixed","Both","ball","2","m150cave.wav","None","732.16242902","163","356748.10654","363614.49631","349797.622018","350564.71989","351331.327411","352097.712019","352865.065577","353614.198267","357497.736072","358264.676884","359031.375921","359797.722809","360564.381035","361331.625146","362081.098855","362847.67113","362856.909563","Mapping"
"Mixed","Both","ball","2","m150ball.wav","None","729.075324954","163","356748.10654","363614.49631","364380.919873","350564.71989","351331.327411","352097.712019","352865.065577","353614.198267","357497.736072","358264.676884","359031.375921","359797.722809","360564.381035","361331.625146","362081.098855","362847.67113","363624.070816","Mapping"
"Mixed","Both","ball","2","m150depth.wav","space","450.196526479","163","356748.10654","363614.49631","364380.919873","365147.58181","351331.327411","352097.712019","352865.065577","353614.198267","357497.736072","358264.676884","359031.375921","359797.722809","360564.381035","361331.625146","362081.098855","362847.67113","364389.643841","Mapping"
"Mixed","Both","ball","2","m160reek.wav","None","724.015071755","163","356748.10654","363614.49631","364380.919873","365147.58181","365914.338044","352097.712019","352865.065577","353614.198267","357497.736072","358264.676884","359031.375921","359797.722809","360564.381035","361331.625146","362081.098855","362847.67113","365156.423881","Mapping"
"Mixed","Both","ball","2","m160greet.wav","None","721.352154622","163","356748.10654","363614.49631","364380.919873","365147.58181","365914.338044","366664.021373","352865.065577","353614.198267","357497.736072","358264.676884","359031.375921","359797.722809","360564.381035","361331.625146","362081.098855","362847.67113","365923.296056","Mapping"
"Mixed","Both","ball","2","m160ball.wav","None","735.749467509","163","356748.10654","363614.49631","364380.919873","365147.58181","365914.338044","366664.021373","367431.056482","353614.198267","357497.736072","358264.676884","359031.375921","359797.722809","360564.381035","361331.625146","362081.098855","362847.67113","366673.339882","Mapping"
"Mixed","Both","ball","2","m160cad.wav","space","423.224791419","163","356748.10654","363614.49631","364380.919873","365147.58181","365914.338044","366664.021373","367431.056482","368197.653492","357497.736072","358264.676884","359031.375921","359797.722809","360564.381035","361331.625146","362081.098855","362847.67113","367440.543182","Mapping"
"Mixed","Both","tile","30","m150jaw.wav","None","729.745923774","163","371331.469941","363614.49631","364380.919873","365147.58181","365914.338044","366664.021373","367431.056482","368197.653492","357497.736072","358264.676884","359031.375921","359797.722809","360564.381035","361331.625146","362081.098855","362847.67113","368206.682614","Mapping"
"Mixed","Both","tile","30","m150depth.wav","None","719.496800564","163","371331.469941","363614.49631","364380.919873","365147.58181","365914.338044","366664.021373","367431.056482","368197.653492","372080.947668","358264.676884","359031.375921","359797.722809","360564.381035","361331.625146","362081.098855","362847.67113","371341.239535","Mapping"
"Mixed","Both","tile","30","m150tile.wav","None","734.704459086","163","371331.469941","363614.49631","364380.919873","365147.58181","365914.338044","366664.021373","367431.056482","368197.653492","372080.947668","372847.606204","359031.375921","359797.722809","360564.381035","361331.625146","362081.098855","362847.67113","372090.243298","Mapping"
"Mixed","Both","tile","30","m150bluff.wav","space","535.339997383","163","371331.469941","363614.49631","364380.919873","365147.58181","365914.338044","366664.021373","367431.056482","368197.653492","372080.947668","372847.606204","373614.406341","359797.722809","360564.381035","361331.625146","362081.098855","362847.67113","372856.370982","Mapping"
"Mixed","Both","tile","30","m160lash.wav","None","728.473981377","163","371331.469941","363614.49631","364380.919873","365147.58181","365914.338044","366664.021373","367431.056482","368197.653492","372080.947668","372847.606204","373614.406341","374380.770852","360564.381035","361331.625146","362081.098855","362847.67113","373624.122757","Mapping"
"Mixed","Both","tile","30","m150cling.wav","None","727.461745031","163","371331.469941","363614.49631","364380.919873","365147.58181","365914.338044","366664.021373","367431.056482","368197.653492","372080.947668","372847.606204","373614.406341","374380.770852","375147.997649","361331.625146","362081.098855","362847.67113","374389.522644","Mapping"
"Mixed","Both","tile","30","m160cad.wav","None","723.761858186","163","371331.469941","363614.49631","364380.919873","365147.58181","365914.338044","366664.021373","367431.056482","368197.653492","372080.947668","372847.606204","373614.406341","374380.770852","375147.997649","375915.193529","362081.098855","362847.67113","375157.627187","Mapping"
"Mixed","Both","tile","30","m160bluff.wav","None","720.786365913","163","371331.469941","363614.49631","364380.919873","365147.58181","365914.338044","366664.021373","367431.056482","368197.653492","372080.947668","372847.606204","373614.406341","374380.770852","375147.997649","375915.193529","376680.885895","362847.67113","375924.947046","Mapping"
"Mixed","Both","tile","30","m150park.wav","None","720.368362265","163","371331.469941","363614.49631","364380.919873","365147.58181","365914.338044","366664.021373","367431.056482","368197.653492","372080.947668","372847.606204","373614.406341","374380.770852","375147.997649","375915.193529","376680.885895","377430.923846","376690.064658","Mapping"
"Mixed","Both","tile","30","m150tile.wav","None","734.312426066","163","371331.469941","378197.131606","364380.919873","365147.58181","365914.338044","366664.021373","367431.056482","368197.653492","372080.947668","372847.606204","373614.406341","374380.770852","375147.997649","375915.193529","376680.885895","377430.923846","377440.423531","Mapping"
"Mixed","Both","tile","30","m160bluff.wav","space","521.70634456","163","371331.469941","378197.131606","378964.231951","365147.58181","365914.338044","366664.021373","367431.056482","368197.653492","372080.947668","372847.606204","373614.406341","374380.770852","375147.997649","375915.193529","376680.885895","377430.923846","378205.938122","Mapping"
"Mixed","Both","tile","30","m160tile.wav","None","731.417319272","163","371331.469941","378197.131606","378964.231951","379730.698489","365914.338044","366664.021373","367431.056482","368197.653492","372080.947668","372847.606204","373614.406341","374380.770852","375147.997649","375915.193529","376680.885895","377430.923846","378973.424008","Mapping"
"Mixed","Both","tile","30","m160gnash.wav","None","730.301819043","163","371331.469941","378197.131606","378964.231951","379730.698489","380497.434627","366664.021373","367431.056482","368197.653492","372080.947668","372847.606204","373614.406341","374380.770852","375147.997649","375915.193529","376680.885895","377430.923846","379739.398032","Mapping"
"Mixed","Both","tile","30","m160jaw.wav","space","0.0337001401931","163","371331.469941","378197.131606","378964.231951","379730.698489","380497.434627","381264.982657","367431.056482","368197.653492","372080.947668","372847.606204","373614.406341","374380.770852","375147.997649","375915.193529","376680.885895","377430.923846","380507.016244","Mapping"
"Mixed","Both","tile","30","m160tile.wav","None","722.145186272","163","371331.469941","378197.131606","378964.231951","379730.698489","380497.434627","381264.982657","382031.333255","368197.653492","372080.947668","372847.606204","373614.406341","374380.770852","375147.997649","375915.193529","376680.885895","377430.923846","381275.054314","Mapping"
"Mixed","Both","tile","30","m150knife.wav","space","534.449266503","163","371331.469941","378197.131606","378964.231951","379730.698489","380497.434627","381264.982657","382031.333255","382780.818403","372080.947668","372847.606204","373614.406341","374380.770852","375147.997649","375915.193529","376680.885895","377430.923846","382041.103158","Mapping"
"Mixed","Both","done","47","m160depth.wav","None","734.438878251","163","385914.814173","378197.131606","378964.231951","379730.698489","380497.434627","381264.982657","382031.333255","382780.818403","372080.947668","372847.606204","373614.406341","374380.770852","375147.997649","375915.193529","376680.885895","377430.923846","382790.353952","Mapping"
"Mixed","Both","done","47","m150park.wav","None","719.931190135","163","385914.814173","378197.131606","378964.231951","379730.698489","380497.434627","381264.982657","382031.333255","382780.818403","386663.73415","372847.606204","373614.406341","374380.770852","375147.997649","375915.193529","376680.885895","377430.923846","385924.47401","Mapping"
"Mixed","Both","done","47","m160tile.wav","None","735.931571107","163","385914.814173","378197.131606","378964.231951","379730.698489","380497.434627","381264.982657","382031.333255","382780.818403","386663.73415","387430.701241","373614.406341","374380.770852","375147.997649","375915.193529","376680.885895","377430.923846","386673.109547","Mapping"
"Mixed","Both","done","47","m150done.wav","None","733.261233894","163","385914.814173","378197.131606","378964.231951","379730.698489","380497.434627","381264.982657","382031.333255","382780.818403","386663.73415","387430.701241","388197.410172","374380.770852","375147.997649","375915.193529","376680.885895","377430.923846","387440.285021","Mapping"
"Mixed","Both","done","47","m160priest.wav","space","576.815091772","163","385914.814173","378197.131606","378964.231951","379730.698489","380497.434627","381264.982657","382031.333255","382780.818403","386663.73415","387430.701241","388197.410172","388964.171971","375147.997649","375915.193529","376680.885895","377430.923846","388206.646441","Mapping"
"Mixed","Both","done","47","m160jolt.wav","None","727.712485474","163","385914.814173","378197.131606","378964.231951","379730.698489","380497.434627","381264.982657","382031.333255","382780.818403","386663.73415","387430.701241","388197.410172","388964.171971","389730.808246","375915.193529","376680.885895","377430.923846","388973.207586","Mapping"
"Mixed","Both","done","47","m160done.wav","None","724.879831541","163","385914.814173","378197.131606","378964.231951","379730.698489","380497.434627","381264.982657","382031.333255","382780.818403","386663.73415","387430.701241","388197.410172","388964.171971","389730.808246","390497.705155","376680.885895","377430.923846","389740.302985","Mapping"
"Mixed","Both","done","47","m160romp.wav","space","451.494439738","163","385914.814173","378197.131606","378964.231951","379730.698489","380497.434627","381264.982657","382031.333255","382780.818403","386663.73415","387430.701241","388197.410172","388964.171971","389730.808246","390497.705155","391264.590006","377430.923846","390507.928307","Mapping"
"Mixed","Both","done","47","m150done.wav","None","718.94276049","163","385914.814173","378197.131606","378964.231951","379730.698489","380497.434627","381264.982657","382031.333255","382780.818403","386663.73415","387430.701241","388197.410172","388964.171971","389730.808246","390497.705155","391264.590006","392013.781438","391274.277359","Mapping"
"Mixed","Both","done","47","m150romp.wav","space","584.570416482","163","385914.814173","392780.378139","378964.231951","379730.698489","380497.434627","381264.982657","382031.333255","382780.818403","386663.73415","387430.701241","388197.410172","388964.171971","389730.808246","390497.705155","391264.590006","392013.781438","392022.851062","Mapping"
"Mixed","Both","done","47","m150tile.wav","None","731.381146004","163","385914.814173","392780.378139","393547.325133","379730.698489","380497.434627","381264.982657","382031.333255","382780.818403","386663.73415","387430.701241","388197.410172","388964.171971","389730.808246","390497.705155","391264.590006","392013.781438","392789.248963","Mapping"
"Mixed","Both","done","47","m150depth.wav","None","728.363915347","163","385914.814173","392780.378139","393547.325133","394313.671094","380497.434627","381264.982657","382031.333255","382780.818403","386663.73415","387430.701241","388197.410172","388964.171971","389730.808246","390497.705155","391264.590006","392013.781438","393556.62571","Mapping"
"Mixed","Both","done","47","m150jaw.wav","None","727.179469075","163","385914.814173","392780.378139","393547.325133","394313.671094","395081.250968","381264.982657","382031.333255","382780.818403","386663.73415","387430.701241","388197.410172","388964.171971","389730.808246","390497.705155","391264.590006","392013.781438","394322.752775","Mapping"
"Mixed","Both","done","47","m160depth.wav","None","723.672506632","163","385914.814173","392780.378139","393547.325133","394313.671094","395081.250968","395847.471404","382031.333255","382780.818403","386663.73415","387430.701241","388197.410172","388964.171971","389730.808246","390497.705155","391264.590006","392013.781438","395090.684799","Mapping"
"Mixed","Both","done","47","m160done.wav","None","721.466239775","163","385914.814173","392780.378139","393547.325133","394313.671094","395081.250968","395847.471404","396614.520117","382780.818403","386663.73415","387430.701241","388197.410172","388964.171971","389730.808246","390497.705155","391264.590006","392013.781438","395857.35261","Mapping"
"Mixed","Both","done","47","m150priest.wav","space","438.908578129","163","385914.814173","392780.378139","393547.325133","394313.671094","395081.250968","395847.471404","396614.520117","397363.942502","386663.73415","387430.701241","388197.410172","388964.171971","389730.808246","390497.705155","391264.590006","392013.781438","396624.455119","Mapping"
"Mixed","Both","tile","28","m150cave.wav","None","732.973083621","163","400497.500172","392780.378139","393547.325133","394313.671094","395081.250968","395847.471404","396614.520117","397363.942502","386663.73415","387430.701241","388197.410172","388964.171971","389730.808246","390497.705155","391264.590006","392013.781438","397373.346034","Mapping"
"Mixed","Both","tile","28","m150gnash.wav","None","719.42569036","163","400497.500172","392780.378139","393547.325133","394313.671094","395081.250968","395847.471404","396614.520117","397363.942502","401246.917611","387430.701241","388197.410172","388964.171971","389730.808246","390497.705155","391264.590006","392013.781438","400507.773411","Mapping"
"Mixed","Both","tile","28","m160jolt.wav","None","735.389898065","163","400497.500172","392780.378139","393547.325133","394313.671094","395081.250968","395847.471404","396614.520117","397363.942502","401246.917611","402014.089994","388197.410172","388964.171971","389730.808246","390497.705155","391264.590006","392013.781438","401256.274458","Mapping"
"Mixed","Both","tile","28","m150jolt.wav","None","732.927016448","163","400497.500172","392780.378139","393547.325133","394313.671094","395081.250968","395847.471404","396614.520117","397363.942502","401246.917611","402014.089994","402780.676492","388964.171971","389730.808246","390497.705155","391264.590006","392013.781438","402023.260409","Mapping"
"Mixed","Both","tile","28","m160tile.wav","None","730.71951326","163","400497.500172","392780.378139","393547.325133","394313.671094","395081.250968","395847.471404","396614.520117","397363.942502","401246.917611","402014.089994","402780.676492","403547.134991","389730.808246","390497.705155","391264.590006","392013.781438","402790.014788","Mapping"
"Mixed","Both","tile","28","m160done.wav","space","450.559806079","163","400497.500172","392780.378139","393547.325133","394313.671094","395081.250968","395847.471404","396614.520117","397363.942502","401246.917611","402014.089994","402780.676492","403547.134991","404313.583288","390497.705155","391264.590006","392013.781438","403556.658792","Mapping"
"Mixed","Both","tile","28","m150reek.wav","None","725.896396441","163","400497.500172","392780.378139","393547.325133","394313.671094","395081.250968","395847.471404","396614.520117","397363.942502","401246.917611","402014.089994","402780.676492","403547.134991","404313.583288","405081.071647","391264.590006","392013.781438","404322.537899","Mapping"
"Mixed","Both","tile","28","m150tile.wav","None","722.30904852","163","400497.500172","392780.378139","393547.325133","394313.671094","395081.250968","395847.471404","396614.520117","397363.942502","401246.917611","402014.089994","402780.676492","403547.134991","404313.583288","405081.071647","405847.436158","392013.781438","405090.7219","Mapping"
"Mixed","Both","tile","28","m160knife.wav","None","720.561287133","163","400497.500172","392780.378139","393547.325133","394313.671094","395081.250968","395847.471404","396614.520117","397363.942502","401246.917611","402014.089994","402780.676492","403547.134991","404313.583288","405081.071647","405847.436158","406596.81495","405856.968925","Mapping"
"Mixed","Both","tile","28","m150tile.wav","space","104.809420416","163","400497.500172","407363.810794","393547.325133","394313.671094","395081.250968","395847.471404","396614.520117","397363.942502","401246.917611","402014.089994","402780.676492","403547.134991","404313.583288","405081.071647","405847.436158","406596.81495","406606.408315","Mapping"
"Mixed","Both","tile","28","m160depth.wav","space","713.778624544","163","400497.500172","407363.810794","408130.515396","394313.671094","395081.250968","395847.471404","396614.520117","397363.942502","401246.917611","402014.089994","402780.676492","403547.134991","404313.583288","405081.071647","405847.436158","406596.81495","407373.431985","Mapping"
"Mixed","Both","tile","28","m150cling.wav","None","728.602597723","163","400497.500172","407363.810794","408130.515396","408896.988427","395081.250968","395847.471404","396614.520117","397363.942502","401246.917611","402014.089994","402780.676492","403547.134991","404313.583288","405081.071647","405847.436158","406596.81495","408139.743008","Mapping"
"Mixed","Both","tile","28","m150bluff.wav","None","726.557101589","163","400497.500172","407363.810794","408130.515396","408896.988427","409663.58791","395847.471404","396614.520117","397363.942502","401246.917611","402014.089994","402780.676492","403547.134991","404313.583288","405081.071647","405847.436158","406596.81495","408906.20831","Mapping"
"Mixed","Both","tile","28","m160depth.wav","None","724.492745707","163","400497.500172","407363.810794","408130.515396","408896.988427","409663.58791","410430.561804","396614.520117","397363.942502","401246.917611","402014.089994","402780.676492","403547.134991","404313.583288","405081.071647","405847.436158","406596.81495","409672.825416","Mapping"
"Mixed","Both","tile","28","m160tile.wav","None","722.992014373","163","400497.500172","407363.810794","408130.515396","408896.988427","409663.58791","410430.561804","411197.422848","397363.942502","401246.917611","402014.089994","402780.676492","403547.134991","404313.583288","405081.071647","405847.436158","406596.81495","410439.674403","Mapping"
"Mixed","Both","tile","28","m160cad.wav","space","431.573730428","163","400497.500172","407363.810794","408130.515396","408896.988427","409663.58791","410430.561804","411197.422848","411946.97385","401246.917611","402014.089994","402780.676492","403547.134991","404313.583288","405081.071647","405847.436158","406596.81495","411207.576746","Mapping"
"Mixed","Both","cave","18","m150cad.wav","None","734.572132351","163","415080.746705","407363.810794","408130.515396","408896.988427","409663.58791","410430.561804","411197.422848","411946.97385","401246.917611","402014.089994","402780.676492","403547.134991","404313.583288","405081.071647","405847.436158","406596.81495","411956.07099","Mapping"
"Mixed","Both","cave","18","m160cling.wav","None","719.453206751","163","415080.746705","407363.810794","408130.515396","408896.988427","409663.58791","410430.561804","411197.422848","411946.97385","415830.290287","402014.089994","402780.676492","403547.134991","404313.583288","405081.071647","405847.436158","406596.81495","415090.468377","Mapping"
"Mixed","Both","cave","18","m150cave.wav","None","734.536886448","163","415080.746705","407363.810794","408130.515396","408896.988427","409663.58791","410430.561804","411197.422848","411946.97385","415830.290287","416596.986232","402780.676492","403547.134991","404313.583288","405081.071647","405847.436158","406596.81495","415839.863555","Mapping"
"Mixed","Both","cave","18","m160depth.wav","space","592.559167417","163","415080.746705","407363.810794","408130.515396","408896.988427","409663.58791","410430.561804","411197.422848","411946.97385","415830.290287","416596.986232","417363.778331","403547.134991","404313.583288","405081.071647","405847.436158","406596.81495","416606.506014","Mapping"
"Mixed","Both","cave","18","m150ball.wav","None","729.155091802","163","415080.746705","407363.810794","408130.515396","408896.988427","409663.58791","410430.561804","411197.422848","411946.97385","415830.290287","416596.986232","417363.778331","418130.328964","404313.583288","405081.071647","405847.436158","406596.81495","417373.026657","Mapping"
"Mixed","Both","cave","18","m150cave.wav","None","726.780015975","163","415080.746705","407363.810794","408130.515396","408896.988427","409663.58791","410430.561804","411197.422848","411946.97385","415830.290287","416596.986232","417363.778331","418130.328964","418896.877125","405081.071647","405847.436158","406596.81495","418140.076607","Mapping"
"Mixed","Both","cave","18","m150cling.wav","space","493.104643188","163","415080.746705","407363.810794","408130.515396","408896.988427","409663.58791","410430.561804","411197.422848","411946.97385","415830.290287","416596.986232","417363.778331","418130.328964","418896.877125","419663.770014","405847.436158","406596.81495","418905.915213","Mapping"
"Mixed","Both","cave","18","m150gnash.wav","None","721.099559218","163","415080.746705","407363.810794","408130.515396","408896.988427","409663.58791","410430.561804","411197.422848","411946.97385","415830.290287","416596.986232","417363.778331","418130.328964","418896.877125","419663.770014","420413.220844","406596.81495","419673.282066","Mapping"
"Mixed","Both","cave","18","m160knife.wav","None","736.553629395","163","415080.746705","407363.810794","408130.515396","408896.988427","409663.58791","410430.561804","411197.422848","411946.97385","415830.290287","416596.986232","417363.778331","418130.328964","418896.877125","419663.770014","420413.220844","421180.267702","420422.309945","Mapping"
"Mixed","Both","cave","18","m160cave.wav","None","733.496824745","163","415080.746705","421946.545643","408130.515396","408896.988427","409663.58791","410430.561804","411197.422848","411946.97385","415830.290287","416596.986232","417363.778331","418130.328964","418896.877125","419663.770014","420413.220844","421180.267702","421189.817164","Mapping"
"Mixed","Both","cave","18","m160reek.wav","None","733.098917408","163","415080.746705","421946.545643","422713.414727","408896.988427","409663.58791","410430.561804","411197.422848","411946.97385","415830.290287","416596.986232","417363.778331","418130.328964","418896.877125","419663.770014","420413.220844","421180.267702","421955.557452","Mapping"
"Mixed","Both","cave","18","m150tile.wav","space","0.0231880694628","163","415080.746705","421946.545643","422713.414727","423479.968143","409663.58791","410430.561804","411197.422848","411946.97385","415830.290287","416596.986232","417363.778331","418130.328964","418896.877125","419663.770014","420413.220844","421180.267702","422722.751786","Mapping"
"Mixed","Both","cave","18","m150knife.wav","None","727.47194767","163","415080.746705","421946.545643","422713.414727","423479.968143","424246.519704","410430.561804","411197.422848","411946.97385","415830.290287","416596.986232","417363.778331","418130.328964","418896.877125","419663.770014","420413.220844","421180.267702","423488.902967","Mapping"
"Mixed","Both","cave","18","m160cave.wav","None","725.265681278","163","415080.746705","421946.545643","422713.414727","423479.968143","424246.519704","425014.015483","411197.422848","411946.97385","415830.290287","416596.986232","417363.778331","418130.328964","418896.877125","419663.770014","420413.220844","421180.267702","424255.529348","Mapping"
"Mixed","Both","cave","18","m160done.wav","space","366.635099985","163","415080.746705","421946.545643","422713.414727","423479.968143","424246.519704","425014.015483","425763.351609","411946.97385","415830.290287","416596.986232","417363.778331","418130.328964","418896.877125","419663.770014","420413.220844","421180.267702","425024.29305","Mapping"
"Mixed","Both","cave","18","m160jolt.wav","None","735.820886912","163","415080.746705","421946.545643","422713.414727","423479.968143","424246.519704","425014.015483","425763.351609","426530.268923","415830.290287","416596.986232","417363.778331","418130.328964","418896.877125","419663.770014","420413.220844","421180.267702","425772.470082","Mapping"
"Mixed","Both","done","48","m160dime.wav","None","732.877239585","163","429663.599659","421946.545643","422713.414727","423479.968143","424246.519704","425014.015483","425763.351609","426530.268923","415830.290287","416596.986232","417363.778331","418130.328964","418896.877125","419663.770014","420413.220844","421180.267702","426539.861051","Mapping"
"Mixed","Both","done","48","m160knife.wav","None","719.382715179","163","429663.599659","421946.545643","422713.414727","423479.968143","424246.519704","425014.015483","425763.351609","426530.268923","430413.423352","416596.986232","417363.778331","418130.328964","418896.877125","419663.770014","420413.220844","421180.267702","429673.258878","Mapping"
"Mixed","Both","done","48","m150cad.wav","None","734.246571781","163","429663.599659","421946.545643","422713.414727","423479.968143","424246.519704","425014.015483","425763.351609","426530.268923","430413.423352","431180.213287","417363.778331","418130.328964","418896.877125","419663.770014","420413.220844","421180.267702","430422.846672","Mapping"
"Mixed","Both","done","48","m160cad.wav","None","731.91910889","163","429663.599659","421946.545643","422713.414727","423479.968143","424246.519704","425014.015483","425763.351609","426530.268923","430413.423352","431180.213287","431946.735167","418130.328964","418896.877125","419663.770014","420413.220844","421180.267702","431189.742344","Mapping"
"Mixed","Both","done","48","m150done.wav","None","730.692615034","163","429663.599659","421946.545643","422713.414727","423479.968143","424246.519704","425014.015483","425763.351609","426530.268923","430413.423352","431180.213287","431946.735167","432713.555092","418896.877125","419663.770014","420413.220844","421180.267702","431956.257422","Mapping"
"Mixed","Both","done","48","m150depth.wav","space","363.502238179","163","429663.599659","421946.545643","422713.414727","423479.968143","424246.519704","425014.015483","425763.351609","426530.268923","430413.423352","431180.213287","431946.735167","432713.555092","433479.79686","419663.770014","420413.220844","421180.267702","432723.316338","Mapping"
"Mixed","Both","done","48","m150reek.wav","None","725.894232048","163","429663.599659","421946.545643","422713.414727","423479.968143","424246.519704","425014.015483","425763.351609","426530.268923","430413.423352","431180.213287","431946.735167","432713.555092","433479.79686","434246.95533","420413.220844","421180.267702","433488.723336","Mapping"
"Mixed","Both","done","48","m150park.wav","None","722.460234771","163","429663.599659","421946.545643","422713.414727","423479.968143","424246.519704","425014.015483","425763.351609","426530.268923","430413.423352","431180.213287","431946.735167","432713.555092","433479.79686","434246.95533","435013.88934","421180.267702","434256.698026","Mapping"
"Mixed","Both","done","48","m160dime.wav","None","719.741048058","163","429663.599659","421946.545643","422713.414727","423479.968143","424246.519704","425014.015483","425763.351609","426530.268923","430413.423352","431180.213287","431946.735167","432713.555092","433479.79686","434246.95533","435013.88934","435762.939479","435024.024378","Mapping"
"Mixed","Both","done","48","m150done.wav","space","50.8137000725","163","429663.599659","436529.863595","422713.414727","423479.968143","424246.519704","425014.015483","425763.351609","426530.268923","430413.423352","431180.213287","431946.735167","432713.555092","433479.79686","434246.95533","435013.88934","435762.939479","435771.9618","Mapping"
"Mixed","Both","done","48","m150romp.wav","space","587.918772595","163","429663.599659","436529.863595","437296.538208","423479.968143","424246.519704","425014.015483","425763.351609","426530.268923","430413.423352","431180.213287","431946.735167","432713.555092","433479.79686","434246.95533","435013.88934","435762.939479","436538.841704","Mapping"
"Mixed","Both","done","48","m150jolt.wav","None","728.736161022","163","429663.599659","436529.863595","437296.538208","438063.366171","424246.519704","425014.015483","425763.351609","426530.268923","430413.423352","431180.213287","431946.735167","432713.555092","433479.79686","434246.95533","435013.88934","435762.939479","437305.893509","Mapping"
"Mixed","Both","done","48","m160done.wav","None","725.891758688","163","429663.599659","436529.863595","437296.538208","438063.366171","438830.306673","425014.015483","425763.351609","426530.268923","430413.423352","431180.213287","431946.735167","432713.555092","433479.79686","434246.95533","435013.88934","435762.939479","438073.241193","Mapping"
"Mixed","Both","done","48","m160jaw.wav","space","421.913892962","163","429663.599659","436529.863595","437296.538208","438063.366171","438830.306673","439596.822061","425763.351609","426530.268923","430413.423352","431180.213287","431946.735167","432713.555092","433479.79686","434246.95533","435013.88934","435762.939479","438840.808701","Mapping"
"Mixed","Both","done","48","m160done.wav","None","720.052695833","163","429663.599659","436529.863595","437296.538208","438063.366171","438830.306673","439596.822061","440346.157877","426530.268923","430413.423352","431180.213287","431946.735167","432713.555092","433479.79686","434246.95533","435013.88934","435762.939479","439606.727691","Mapping"
"Mixed","Both","done","48","m160depth.wav","space","435.203744099","163","429663.599659","436529.863595","437296.538208","438063.366171","438830.306673","439596.822061","440346.157877","441113.260696","430413.423352","431180.213287","431946.735167","432713.555092","433479.79686","434246.95533","435013.88934","435762.939479","440355.489372","Mapping"
"Mixed","Both","done","37","m160greet.wav","None","731.828211574","163","444246.92936","436529.863595","437296.538208","438063.366171","438830.306673","439596.822061","440346.157877","441113.260696","430413.423352","431180.213287","431946.735167","432713.555092","433479.79686","434246.95533","435013.88934","435762.939479","441122.677522","Mapping"
"Mixed","Both","done","37","m150gnash.wav","None","719.967054436","163","444246.92936","436529.863595","437296.538208","438063.366171","438830.306673","439596.822061","440346.157877","441113.260696","444996.238587","431180.213287","431946.735167","432713.555092","433479.79686","434246.95533","435013.88934","435762.939479","444256.66309","Mapping"
"Mixed","Both","done","37","m160reek.wav","space","152.792321751","163","444246.92936","436529.863595","437296.538208","438063.366171","438830.306673","439596.822061","440346.157877","441113.260696","444996.238587","445762.981218","431946.735167","432713.555092","433479.79686","434246.95533","435013.88934","435762.939479","445005.849266","Mapping"
"Mixed","Both","done","37","m160done.wav","None","732.21096932","163","444246.92936","436529.863595","437296.538208","438063.366171","438830.306673","439596.822061","440346.157877","441113.260696","444996.238587","445762.981218","446529.918319","432713.555092","433479.79686","434246.95533","435013.88934","435762.939479","445772.033219","Mapping"
"Mixed","Both","done","37","m160romp.wav","space","379.276303574","163","444246.92936","436529.863595","437296.538208","438063.366171","438830.306673","439596.822061","440346.157877","441113.260696","444996.238587","445762.981218","446529.918319","447296.523986","433479.79686","434246.95533","435013.88934","435762.939479","446539.339783","Mapping"
"Mixed","Both","done","37","m150cave.wav","None","726.029959507","163","444246.92936","436529.863595","437296.538208","438063.366171","438830.306673","439596.822061","440346.157877","441113.260696","444996.238587","445762.981218","446529.918319","447296.523986","448063.798087","434246.95533","435013.88934","435762.939479","447305.921953","Mapping"
"Mixed","Both","done","37","m160park.wav","None","722.77528327","163","444246.92936","436529.863595","437296.538208","438063.366171","438830.306673","439596.822061","440346.157877","441113.260696","444996.238587","445762.981218","446529.918319","447296.523986","448063.798087","448830.214539","435013.88934","435762.939479","448073.817803","Mapping"
"Mixed","Both","done","37","m150done.wav","None","720.680319238","163","444246.92936","436529.863595","437296.538208","438063.366171","438830.306673","439596.822061","440346.157877","441113.260696","444996.238587","445762.981218","446529.918319","447296.523986","448063.798087","448830.214539","449596.389835","435762.939479","448840.512512","Mapping"
"Mixed","Both","done","37","m150ball.wav","space","329.185143579","163","444246.92936","436529.863595","437296.538208","438063.366171","438830.306673","439596.822061","440346.157877","441113.260696","444996.238587","445762.981218","446529.918319","447296.523986","448063.798087","448830.214539","449596.389835","450346.477254","449605.373818","Mapping"
"Mixed","Both","done","37","m150ball.wav","None","732.837356161","163","444246.92936","451113.170108","437296.538208","438063.366171","438830.306673","439596.822061","440346.157877","441113.260696","444996.238587","445762.981218","446529.918319","447296.523986","448063.798087","448830.214539","449596.389835","450346.477254","450355.959316","Mapping"
"Mixed","Both","done","37","m150done.wav","None","731.004880974","163","444246.92936","451113.170108","451879.854923","438063.366171","438830.306673","439596.822061","440346.157877","441113.260696","444996.238587","445762.981218","446529.918319","447296.523986","448063.798087","448830.214539","449596.389835","450346.477254","451122.550452","Mapping"
"Mixed","Both","done","37","m160cling.wav","None","729.011944495","163","444246.92936","451113.170108","451879.854923","452646.403393","438830.306673","439596.822061","440346.157877","441113.260696","444996.238587","445762.981218","446529.918319","447296.523986","448063.798087","448830.214539","449596.389835","450346.477254","451889.309778","Mapping"
"Mixed","Both","done","37","m160tile.wav","space","0.0336999073625","163","444246.92936","451113.170108","451879.854923","452646.403393","453413.535274","439596.822061","440346.157877","441113.260696","444996.238587","445762.981218","446529.918319","447296.523986","448063.798087","448830.214539","449596.389835","450346.477254","452655.972023","Mapping"
"Mixed","Both","done","37","m150tile.wav","None","722.085515503","163","444246.92936","451113.170108","451879.854923","452646.403393","453413.535274","454180.277286","440346.157877","441113.260696","444996.238587","445762.981218","446529.918319","447296.523986","448063.798087","448830.214539","449596.389835","450346.477254","453424.036374","Mapping"
"Mixed","Both","done","37","m160done.wav","None","720.530988183","163","444246.92936","451113.170108","451879.854923","452646.403393","453413.535274","454180.277286","454946.660656","441113.260696","444996.238587","445762.981218","446529.918319","447296.523986","448063.798087","448830.214539","449596.389835","450346.477254","454190.399957","Mapping"
"Mixed","Both","done","37","m150gnash.wav","space","377.565952251","163","444246.92936","451113.170108","451879.854923","452646.403393","453413.535274","454180.277286","454946.660656","455696.115505","444996.238587","445762.981218","446529.918319","447296.523986","448063.798087","448830.214539","449596.389835","450346.477254","454956.917818","Mapping"
"Mixed","Both","tile","32","m150priest.wav","None","733.264016686","163","458830.058715","451113.170108","451879.854923","452646.403393","453413.535274","454180.277286","454946.660656","455696.115505","444996.238587","445762.981218","446529.918319","447296.523986","448063.798087","448830.214539","449596.389835","450346.477254","455705.331368","Mapping"
"Mixed","Both","tile","32","m150lash.wav","None","719.337575603","163","458830.058715","451113.170108","451879.854923","452646.403393","453413.535274","454180.277286","454946.660656","455696.115505","459596.649232","445762.981218","446529.918319","447296.523986","448063.798087","448830.214539","449596.389835","450346.477254","458840.217251","Mapping"
"Mixed","Both","tile","32","m150depth.wav","None","721.284754574","163","458830.058715","451113.170108","451879.854923","452646.403393","453413.535274","454180.277286","454946.660656","455696.115505","459596.649232","460363.464519","446529.918319","447296.523986","448063.798087","448830.214539","449596.389835","450346.477254","459606.572795","Mapping"
"Mixed","Both","tile","32","m150tile.wav","None","719.350251835","163","458830.058715","451113.170108","451879.854923","452646.403393","453413.535274","454180.277286","454946.660656","455696.115505","459596.649232","460363.464519","461112.859079","447296.523986","448063.798087","448830.214539","449596.389835","450346.477254","460373.340778","Mapping"
"Mixed","Both","tile","32","m160gnash.wav","space","275.916910265","163","458830.058715","451113.170108","451879.854923","452646.403393","453413.535274","454180.277286","454946.660656","455696.115505","459596.649232","460363.464519","461112.859079","461879.484532","448063.798087","448830.214539","449596.389835","450346.477254","461122.484907","Mapping"
"Mixed","Both","tile","32","m160reek.wav","None","737.555972068","163","458830.058715","451113.170108","451879.854923","452646.403393","453413.535274","454180.277286","454946.660656","455696.115505","459596.649232","460363.464519","461112.859079","461879.484532","462645.948906","448830.214539","449596.389835","450346.477254","461883.158449","Mapping"
"Mixed","Both","tile","32","m160tile.wav","None","730.56090693","163","458830.058715","451113.170108","451879.854923","452646.403393","453413.535274","454180.277286","454946.660656","455696.115505","459596.649232","460363.464519","461112.859079","461879.484532","462645.948906","463412.575906","449596.389835","450346.477254","462655.163842","Mapping"
"Mixed","Both","tile","32","m150bluff.wav","space","632.679770002","163","458830.058715","451113.170108","451879.854923","452646.403393","453413.535274","454180.277286","454946.660656","455696.115505","459596.649232","460363.464519","461112.859079","461879.484532","462645.948906","463412.575906","464180.127336","450346.477254","463421.659752","Mapping"
"Mixed","Both","tile","32","m160dime.wav","None","724.487489788","163","458830.058715","451113.170108","451879.854923","452646.403393","453413.535274","454180.277286","454946.660656","455696.115505","459596.649232","460363.464519","461112.859079","461879.484532","462645.948906","463412.575906","464180.127336","464946.349009","464189.209018","Mapping"
"Mixed","Both","tile","32","m150tile.wav","None","721.694410313","163","458830.058715","465712.754331","451879.854923","452646.403393","453413.535274","454180.277286","454946.660656","455696.115505","459596.649232","460363.464519","461112.859079","461879.484532","462645.948906","463412.575906","464180.127336","464946.349009","464956.880717","Mapping"
"Mixed","Both","tile","32","m160park.wav","space","524.357203627","163","458830.058715","465712.754331","466462.698293","452646.403393","453413.535274","454180.277286","454946.660656","455696.115505","459596.649232","460363.464519","461112.859079","461879.484532","462645.948906","463412.575906","464180.127336","464946.349009","465721.955972","Mapping"
"Mixed","Both","tile","32","m160reek.wav","None","734.624073608","163","458830.058715","465712.754331","466462.698293","467229.602622","453413.535274","454180.277286","454946.660656","455696.115505","459596.649232","460363.464519","461112.859079","461879.484532","462645.948906","463412.575906","464180.127336","464946.349009","466471.988358","Mapping"
"Mixed","Both","tile","32","m150romp.wav","None","732.688334305","163","458830.058715","465712.754331","466462.698293","467229.602622","467996.116773","454180.277286","454946.660656","455696.115505","459596.649232","460363.464519","461112.859079","461879.484532","462645.948906","463412.575906","464180.127336","464946.349009","467238.720167","Mapping"
"Mixed","Both","tile","32","m150priest.wav","None","730.781966355","163","458830.058715","465712.754331","466462.698293","467229.602622","467996.116773","468762.985237","454946.660656","455696.115505","459596.649232","460363.464519","461112.859079","461879.484532","462645.948906","463412.575906","464180.127336","464946.349009","468005.481039","Mapping"
