"Condition","Talker","Target","Trial","current_stimulus","response_response","response_time_response","subject_nr","time_Audio1","time_Audio10","time_Audio11","time_Audio12","time_Audio13","time_Audio14","time_Audio15","time_Audio16","time_Audio2","time_Audio3","time_Audio4","time_Audio5","time_Audio6","time_Audio7","time_Audio8","time_Audio9","time_response","title"
"Mixed","Both","tile","33","m150jolt.wav","NA","NA","188","120675.968555","NA","NA","NA","NA","NA","NA","NA","NA","NA","NA","NA","NA","NA","NA","NA","NA","Mapping"
"Mixed","Both","tile","33","m150jolt.wav","None","715.382263064","188","120675.968555","NA","NA","NA","NA","NA","NA","NA","121424.728538","NA","NA","NA","NA","NA","NA","NA","120689.515288","Mapping"
"Mixed","Both","tile","33","m160knife.wav","None","733.814242296","188","120675.968555","NA","NA","NA","NA","NA","NA","NA","121424.728538","122191.231972","NA","NA","NA","NA","NA","NA","121434.584362","Mapping"
"Mixed","Both","tile","33","m150lash.wav","None","731.477201916","188","120675.968555","NA","NA","NA","NA","NA","NA","NA","121424.728538","122191.231972","122957.892156","NA","NA","NA","NA","NA","122200.23726","Mapping"
"Mixed","Both","tile","33","m160lash.wav","None","728.307249025","188","120675.968555","NA","NA","NA","NA","NA","NA","NA","121424.728538","122191.231972","122957.892156","123725.235614","NA","NA","NA","NA","122966.886314","Mapping"
"Mixed","Both","tile","33","m160tile.wav","None","723.2804019","188","120675.968555","NA","NA","NA","NA","NA","NA","NA","121424.728538","122191.231972","122957.892156","123725.235614","124491.60703","NA","NA","NA","123735.262719","Mapping"
"Mixed","Both","tile","33","m150depth.wav","space","444.850457832","188","120675.968555","NA","NA","NA","NA","NA","NA","NA","121424.728538","122191.231972","122957.892156","123725.235614","124491.60703","125240.883023","NA","NA","124501.474602","Mapping"
"Mixed","Both","tile","33","m160cad.wav","None","735.367528163","188","120675.968555","NA","NA","NA","NA","NA","NA","NA","121424.728538","122191.231972","122957.892156","123725.235614","124491.60703","125240.883023","126008.076532","NA","125249.902224","Mapping"
"Mixed","Both","tile","33","m150tile.wav","None","731.55975109","188","120675.968555","NA","NA","NA","NA","NA","NA","NA","121424.728538","122191.231972","122957.892156","123725.235614","124491.60703","125240.883023","126008.076532","126774.334482","126017.220947","Mapping"
"Mixed","Both","tile","33","m150dime.wav","space","483.048497234","188","120675.968555","127541.140596","NA","NA","NA","NA","NA","NA","121424.728538","122191.231972","122957.892156","123725.235614","124491.60703","125240.883023","126008.076532","126774.334482","126783.207444","Mapping"
"Mixed","Both","tile","33","m160tile.wav","None","725.327746943","188","120675.968555","127541.140596","128307.999888","NA","NA","NA","NA","NA","121424.728538","122191.231972","122957.892156","123725.235614","124491.60703","125240.883023","126008.076532","126774.334482","127550.18453","Mapping"
"Mixed","Both","tile","33","m150greet.wav","space","525.264242664","188","120675.968555","127541.140596","128307.999888","129057.655855","NA","NA","NA","NA","121424.728538","122191.231972","122957.892156","123725.235614","124491.60703","125240.883023","126008.076532","126774.334482","128316.981678","Mapping"
"Mixed","Both","tile","33","m160priest.wav","None","735.285288189","188","120675.968555","127541.140596","128307.999888","129057.655855","129824.656748","NA","NA","NA","121424.728538","122191.231972","122957.892156","123725.235614","124491.60703","125240.883023","126008.076532","126774.334482","129067.224456","Mapping"
"Mixed","Both","tile","33","m150tile.wav","None","731.927048881","188","120675.968555","127541.140596","128307.999888","129057.655855","129824.656748","130591.603845","NA","NA","121424.728538","122191.231972","122957.892156","123725.235614","124491.60703","125240.883023","126008.076532","126774.334482","129834.137235","Mapping"
"Mixed","Both","tile","33","m160jolt.wav","space","553.535348736","188","120675.968555","127541.140596","128307.999888","129057.655855","129824.656748","130591.603845","131357.934451","NA","121424.728538","122191.231972","122957.892156","123725.235614","124491.60703","125240.883023","126008.076532","126774.334482","130600.68148","Mapping"
"Mixed","Both","tile","33","m160reek.wav","None","725.789960474","188","120675.968555","127541.140596","128307.999888","129057.655855","129824.656748","130591.603845","131357.934451","132124.402948","121424.728538","122191.231972","122957.892156","123725.235614","124491.60703","125240.883023","126008.076532","126774.334482","131367.097417","Mapping"
"Mixed","Both","tile","35","m160jolt.wav","None","723.062743898","188","135308.104698","127541.140596","128307.999888","129057.655855","129824.656748","130591.603845","131357.934451","132124.402948","121424.728538","122191.231972","122957.892156","123725.235614","124491.60703","125240.883023","126008.076532","126774.334482","132133.433588","Mapping"
"Mixed","Both","tile","35","m150romp.wav","None","720.70066072","188","135308.104698","127541.140596","128307.999888","129057.655855","129824.656748","130591.603845","131357.934451","132124.402948","136057.712434","122191.231972","122957.892156","123725.235614","124491.60703","125240.883023","126008.076532","126774.334482","135317.599716","Mapping"
"Mixed","Both","tile","35","m150tile.wav","None","734.730631113","188","135308.104698","127541.140596","128307.999888","129057.655855","129824.656748","130591.603845","131357.934451","132124.402948","136057.712434","136823.962345","122957.892156","123725.235614","124491.60703","125240.883023","126008.076532","126774.334482","136067.076981","Mapping"
"Mixed","Both","tile","35","m160ball.wav","space","489.52351138","188","135308.104698","127541.140596","128307.999888","129057.655855","129824.656748","130591.603845","131357.934451","132124.402948","136057.712434","136823.962345","137591.529026","123725.235614","124491.60703","125240.883023","126008.076532","126774.334482","136832.577766","Mapping"
"Mixed","Both","tile","35","m160dime.wav","None","728.853248991","188","135308.104698","127541.140596","128307.999888","129057.655855","129824.656748","130591.603845","131357.934451","132124.402948","136057.712434","136823.962345","137591.529026","138357.377321","124491.60703","125240.883023","126008.076532","126774.334482","137600.467532","Mapping"
"Mixed","Both","tile","35","m150cave.wav","None","726.648843847","188","135308.104698","127541.140596","128307.999888","129057.655855","129824.656748","130591.603845","131357.934451","132124.402948","136057.712434","136823.962345","137591.529026","138357.377321","139124.255163","125240.883023","126008.076532","126774.334482","138366.114247","Mapping"
"Mixed","Both","tile","35","m150jaw.wav","None","723.500533029","188","135308.104698","127541.140596","128307.999888","129057.655855","129824.656748","130591.603845","131357.934451","132124.402948","136057.712434","136823.962345","137591.529026","138357.377321","139124.255163","139891.347572","126008.076532","126774.334482","139133.466979","Mapping"
"Mixed","Both","tile","35","m160ball.wav","None","719.55053648","188","135308.104698","127541.140596","128307.999888","129057.655855","129824.656748","130591.603845","131357.934451","132124.402948","136057.712434","136823.962345","137591.529026","138357.377321","139124.255163","139891.347572","140640.98097","126774.334482","139900.982955","Mapping"
"Mixed","Both","tile","35","m150tile.wav","None","734.11135748","188","135308.104698","127541.140596","128307.999888","129057.655855","129824.656748","130591.603845","131357.934451","132124.402948","136057.712434","136823.962345","137591.529026","138357.377321","139124.255163","139891.347572","140640.98097","141407.315595","140650.005426","Mapping"
"Mixed","Both","tile","35","m150jolt.wav","space","433.869552799","188","135308.104698","142174.530436","128307.999888","129057.655855","129824.656748","130591.603845","131357.934451","132124.402948","136057.712434","136823.962345","137591.529026","138357.377321","139124.255163","139891.347572","140640.98097","141407.315595","141416.152074","Mapping"
"Mixed","Both","tile","35","m160cling.wav","None","727.070247289","188","135308.104698","142174.530436","142941.144553","129057.655855","129824.656748","130591.603845","131357.934451","132124.402948","136057.712434","136823.962345","137591.529026","138357.377321","139124.255163","139891.347572","140640.98097","141407.315595","142183.766676","Mapping"
"Mixed","Both","tile","35","m160tile.wav","None","723.518155981","188","135308.104698","142174.530436","142941.144553","143707.797008","129824.656748","130591.603845","131357.934451","132124.402948","136057.712434","136823.962345","137591.529026","138357.377321","139124.255163","139891.347572","140640.98097","141407.315595","142950.906079","Mapping"
"Mixed","Both","tile","35","m150ball.wav","space","500.378582627","188","135308.104698","142174.530436","142941.144553","143707.797008","144457.194507","130591.603845","131357.934451","132124.402948","136057.712434","136823.962345","137591.529026","138357.377321","139124.255163","139891.347572","140640.98097","141407.315595","143717.608002","Mapping"
"Mixed","Both","tile","35","m150park.wav","None","735.223144293","188","135308.104698","142174.530436","142941.144553","143707.797008","144457.194507","145224.464381","131357.934451","132124.402948","136057.712434","136823.962345","137591.529026","138357.377321","139124.255163","139891.347572","140640.98097","141407.315595","144466.061594","Mapping"
"Mixed","Both","tile","35","m160tile.wav","None","731.132782996","188","135308.104698","142174.530436","142941.144553","143707.797008","144457.194507","145224.464381","145990.849401","132124.402948","136057.712434","136823.962345","137591.529026","138357.377321","139124.255163","139891.347572","140640.98097","141407.315595","145233.92168","Mapping"
"Mixed","Both","tile","35","m160jaw.wav","space","602.053590119","188","135308.104698","142174.530436","142941.144553","143707.797008","144457.194507","145224.464381","145990.849401","146757.183099","136057.712434","136823.962345","137591.529026","138357.377321","139124.255163","139891.347572","140640.98097","141407.315595","145999.890244","Mapping"
"Mixed","Both","cave","16","m160jaw.wav","None","726.021222305","188","149874.477845","142174.530436","142941.144553","143707.797008","144457.194507","145224.464381","145990.849401","146757.183099","136057.712434","136823.962345","137591.529026","138357.377321","139124.255163","139891.347572","140640.98097","141407.315595","146765.83562","Mapping"
"Mixed","Both","cave","16","m150priest.wav","None","719.663384371","188","149874.477845","142174.530436","142941.144553","143707.797008","144457.194507","145224.464381","145990.849401","146757.183099","150624.242951","136823.962345","137591.529026","138357.377321","139124.255163","139891.347572","140640.98097","141407.315595","149884.417146","Mapping"
"Mixed","Both","cave","16","m160cave.wav","None","734.32004964","188","149874.477845","142174.530436","142941.144553","143707.797008","144457.194507","145224.464381","145990.849401","146757.183099","150624.242951","151390.870672","137591.529026","138357.377321","139124.255163","139891.347572","140640.98097","141407.315595","150633.401898","Mapping"
"Mixed","Both","cave","16","m160dime.wav","space","585.934845265","188","149874.477845","142174.530436","142941.144553","143707.797008","144457.194507","145224.464381","145990.849401","146757.183099","150624.242951","151390.870672","152157.488809","138357.377321","139124.255163","139891.347572","140640.98097","141407.315595","151399.907187","Mapping"
"Mixed","Both","cave","16","m160gnash.wav","None","728.092373814","188","149874.477845","142174.530436","142941.144553","143707.797008","144457.194507","145224.464381","145990.849401","146757.183099","150624.242951","151390.870672","152157.488809","152924.155486","139124.255163","139891.347572","140640.98097","141407.315595","152166.676818","Mapping"
"Mixed","Both","cave","16","m160romp.wav","None","725.672475062","188","149874.477845","142174.530436","142941.144553","143707.797008","144457.194507","145224.464381","145990.849401","146757.183099","150624.242951","151390.870672","152157.488809","152924.155486","153691.073211","139891.347572","140640.98097","141407.315595","152933.229719","Mapping"
"Mixed","Both","cave","16","m160park.wav","None","722.118837759","188","149874.477845","142174.530436","142941.144553","143707.797008","144457.194507","145224.464381","145990.849401","146757.183099","150624.242951","151390.870672","152157.488809","152924.155486","153691.073211","154457.972078","140640.98097","141407.315595","153700.767337","Mapping"
"Mixed","Both","cave","16","m150cave.wav","None","718.793371227","188","149874.477845","142174.530436","142941.144553","143707.797008","144457.194507","145224.464381","145990.849401","146757.183099","150624.242951","151390.870672","152157.488809","152924.155486","153691.073211","154457.972078","155207.394001","141407.315595","154467.566031","Mapping"
"Mixed","Both","cave","16","m150reek.wav","space","393.247286323","188","149874.477845","142174.530436","142941.144553","143707.797008","144457.194507","145224.464381","145990.849401","146757.183099","150624.242951","151390.870672","152157.488809","152924.155486","153691.073211","154457.972078","155207.394001","155974.192695","155216.509973","Mapping"
"Mixed","Both","cave","16","m150reek.wav","None","729.233840946","188","149874.477845","156740.397467","142941.144553","143707.797008","144457.194507","145224.464381","145990.849401","146757.183099","150624.242951","151390.870672","152157.488809","152924.155486","153691.073211","154457.972078","155207.394001","155974.192695","155984.052228","Mapping"
"Mixed","Both","cave","16","m150lash.wav","None","727.654584218","188","149874.477845","156740.397467","157508.068957","143707.797008","144457.194507","145224.464381","145990.849401","146757.183099","150624.242951","151390.870672","152157.488809","152924.155486","153691.073211","154457.972078","155207.394001","155974.192695","156749.225599","Mapping"
"Mixed","Both","cave","16","m150cave.wav","None","723.230934236","188","149874.477845","156740.397467","157508.068957","158274.327835","144457.194507","145224.464381","145990.849401","146757.183099","150624.242951","151390.870672","152157.488809","152924.155486","153691.073211","154457.972078","155207.394001","155974.192695","157517.586854","Mapping"
"Mixed","Both","cave","16","m160tile.wav","space","501.365463715","188","149874.477845","156740.397467","157508.068957","158274.327835","159023.601973","145224.464381","145990.849401","146757.183099","150624.242951","151390.870672","152157.488809","152924.155486","153691.073211","154457.972078","155207.394001","155974.192695","158284.349065","Mapping"
"Mixed","Both","cave","16","m160cave.wav","None","735.425343737","188","149874.477845","156740.397467","157508.068957","158274.327835","159023.601973","159790.709531","145990.849401","146757.183099","150624.242951","151390.870672","152157.488809","152924.155486","153691.073211","154457.972078","155207.394001","155974.192695","159032.264388","Mapping"
"Mixed","Both","cave","16","m150romp.wav","space","666.048423387","188","149874.477845","156740.397467","157508.068957","158274.327835","159023.601973","159790.709531","160557.296132","146757.183099","150624.242951","151390.870672","152157.488809","152924.155486","153691.073211","154457.972078","155207.394001","155974.192695","159799.649274","Mapping"
"Mixed","Both","cave","16","m150depth.wav","None","727.760012262","188","149874.477845","156740.397467","157508.068957","158274.327835","159023.601973","159790.709531","160557.296132","161324.118632","150624.242951","151390.870672","152157.488809","152924.155486","153691.073211","154457.972078","155207.394001","155974.192695","160566.502692","Mapping"
"Mixed","Both","tile","27","m150romp.wav","None","724.303456023","188","164441.018565","156740.397467","157508.068957","158274.327835","159023.601973","159790.709531","160557.296132","161324.118632","150624.242951","151390.870672","152157.488809","152924.155486","153691.073211","154457.972078","155207.394001","155974.192695","161333.726808","Mapping"
"Mixed","Both","tile","27","m150dime.wav","None","719.250947237","188","164441.018565","156740.397467","157508.068957","158274.327835","159023.601973","159790.709531","160557.296132","161324.118632","165190.224995","151390.870672","152157.488809","152924.155486","153691.073211","154457.972078","155207.394001","155974.192695","164450.60077","Mapping"
"Mixed","Both","tile","27","m160lash.wav","None","734.398270026","188","164441.018565","156740.397467","157508.068957","158274.327835","159023.601973","159790.709531","160557.296132","161324.118632","165190.224995","165956.998337","152157.488809","152924.155486","153691.073211","154457.972078","155207.394001","155974.192695","165199.094247","Mapping"
"Mixed","Both","tile","27","m150tile.wav","None","731.354768854","188","164441.018565","156740.397467","157508.068957","158274.327835","159023.601973","159790.709531","160557.296132","161324.118632","165190.224995","165956.998337","166723.979752","152924.155486","153691.073211","154457.972078","155207.394001","155974.192695","165965.761542","Mapping"
"Mixed","Both","tile","27","m160cave.wav","space","380.095367786","188","164441.018565","156740.397467","157508.068957","158274.327835","159023.601973","159790.709531","160557.296132","161324.118632","165190.224995","165956.998337","166723.979752","167490.891603","153691.073211","154457.972078","155207.394001","155974.192695","166733.495175","Mapping"
"Mixed","Both","tile","27","m160reek.wav","None","723.898439202","188","164441.018565","156740.397467","157508.068957","158274.327835","159023.601973","159790.709531","160557.296132","161324.118632","165190.224995","165956.998337","166723.979752","167490.891603","168257.647631","154457.972078","155207.394001","155974.192695","167500.372708","Mapping"
"Mixed","Both","tile","27","m150park.wav","None","720.980153419","188","164441.018565","156740.397467","157508.068957","158274.327835","159023.601973","159790.709531","160557.296132","161324.118632","165190.224995","165956.998337","166723.979752","167490.891603","168257.647631","169007.002464","155207.394001","155974.192695","168267.149451","Mapping"
"Mixed","Both","tile","27","m160jaw.wav","None","735.557360109","188","164441.018565","156740.397467","157508.068957","158274.327835","159023.601973","159790.709531","160557.296132","161324.118632","165190.224995","165956.998337","166723.979752","167490.891603","168257.647631","169007.002464","169773.866703","155974.192695","169016.434411","Mapping"
"Mixed","Both","tile","27","m150cave.wav","None","732.662571594","188","164441.018565","156740.397467","157508.068957","158274.327835","159023.601973","159790.709531","160557.296132","161324.118632","165190.224995","165956.998337","166723.979752","167490.891603","168257.647631","169007.002464","169773.866703","170540.420531","169783.072335","Mapping"
"Mixed","Both","tile","27","m150romp.wav","None","730.078192893","188","164441.018565","171306.953955","157508.068957","158274.327835","159023.601973","159790.709531","160557.296132","161324.118632","165190.224995","165956.998337","166723.979752","167490.891603","168257.647631","169007.002464","169773.866703","170540.420531","170549.472813","Mapping"
"Mixed","Both","tile","27","m160tile.wav","None","727.406008635","188","164441.018565","171306.953955","172074.30916","158274.327835","159023.601973","159790.709531","160557.296132","161324.118632","165190.224995","165956.998337","166723.979752","167490.891603","168257.647631","169007.002464","169773.866703","170540.420531","171315.782396","Mapping"
"Mixed","Both","tile","27","m160romp.wav","space","381.410281174","188","164441.018565","171306.953955","172074.30916","172840.374805","159023.601973","159790.709531","160557.296132","161324.118632","165190.224995","165956.998337","166723.979752","167490.891603","168257.647631","169007.002464","169773.866703","170540.420531","172084.045334","Mapping"
"Mixed","Both","tile","27","m160tile.wav","None","721.192555036","188","164441.018565","171306.953955","172074.30916","172840.374805","173590.074365","159790.709531","160557.296132","161324.118632","165190.224995","165956.998337","166723.979752","167490.891603","168257.647631","169007.002464","169773.866703","170540.420531","172849.128735","Mapping"
"Mixed","Both","tile","27","m150lash.wav","space","586.61100734","188","164441.018565","171306.953955","172074.30916","172840.374805","173590.074365","174356.798858","160557.296132","161324.118632","165190.224995","165956.998337","166723.979752","167490.891603","168257.647631","169007.002464","169773.866703","170540.420531","173598.825822","Mapping"
"Mixed","Both","tile","27","m150tile.wav","None","731.794413179","188","164441.018565","171306.953955","172074.30916","172840.374805","173590.074365","174356.798858","175123.773162","161324.118632","165190.224995","165956.998337","166723.979752","167490.891603","168257.647631","169007.002464","169773.866703","170540.420531","174365.55217","Mapping"
"Mixed","Both","tile","27","m160knife.wav","space","428.510962985","188","164441.018565","171306.953955","172074.30916","172840.374805","173590.074365","174356.798858","175123.773162","175890.314624","165190.224995","165956.998337","166723.979752","167490.891603","168257.647631","169007.002464","169773.866703","170540.420531","175132.894081","Mapping"
"Mixed","Both","done","41","m150knife.wav","None","725.116890389","188","179007.382747","171306.953955","172074.30916","172840.374805","173590.074365","174356.798858","175123.773162","175890.314624","165190.224995","165956.998337","166723.979752","167490.891603","168257.647631","169007.002464","169773.866703","170540.420531","175899.484701","Mapping"
"Mixed","Both","done","41","m160park.wav","None","721.498018596","188","179007.382747","171306.953955","172074.30916","172840.374805","173590.074365","174356.798858","175123.773162","175890.314624","179756.740053","165956.998337","166723.979752","167490.891603","168257.647631","169007.002464","169773.866703","170540.420531","179016.736473","Mapping"
"Mixed","Both","done","41","m150greet.wav","None","736.068733037","188","179007.382747","171306.953955","172074.30916","172840.374805","173590.074365","174356.798858","175123.773162","175890.314624","179756.740053","180523.717759","166723.979752","167490.891603","168257.647631","169007.002464","169773.866703","170540.420531","179765.862208","Mapping"
"Mixed","Both","done","41","m160done.wav","None","732.244879007","188","179007.382747","171306.953955","172074.30916","172840.374805","173590.074365","174356.798858","175123.773162","175890.314624","179756.740053","180523.717759","181289.977873","167490.891603","168257.647631","169007.002464","169773.866703","170540.420531","180533.392406","Mapping"
"Mixed","Both","done","41","m160park.wav","space","454.545510467","188","179007.382747","171306.953955","172074.30916","172840.374805","173590.074365","174356.798858","175123.773162","175890.314624","179756.740053","180523.717759","181289.977873","182056.946303","168257.647631","169007.002464","169773.866703","170540.420531","181298.753445","Mapping"
"Mixed","Both","done","41","m160done.wav","None","726.814251393","188","179007.382747","171306.953955","172074.30916","172840.374805","173590.074365","174356.798858","175123.773162","175890.314624","179756.740053","180523.717759","181289.977873","182056.946303","182823.920916","169007.002464","169773.866703","170540.420531","182066.026411","Mapping"
"Mixed","Both","done","41","m150greet.wav","space","639.658944681","188","179007.382747","171306.953955","172074.30916","172840.374805","173590.074365","174356.798858","175123.773162","175890.314624","179756.740053","180523.717759","181289.977873","182056.946303","182823.920916","183590.110848","169773.866703","170540.420531","182833.65678","Mapping"
"Mixed","Both","done","41","m160depth.wav","None","721.13566706","188","179007.382747","171306.953955","172074.30916","172840.374805","173590.074365","174356.798858","175123.773162","175890.314624","179756.740053","180523.717759","181289.977873","182056.946303","182823.920916","183590.110848","184340.155137","170540.420531","183599.029568","Mapping"
"Mixed","Both","done","41","m150done.wav","None","734.95478183","188","179007.382747","171306.953955","172074.30916","172840.374805","173590.074365","174356.798858","175123.773162","175890.314624","179756.740053","180523.717759","181289.977873","182056.946303","182823.920916","183590.110848","184340.155137","185106.968672","184349.092097","Mapping"
"Mixed","Both","done","41","m150jaw.wav","space","437.28591688","188","179007.382747","185873.633184","172074.30916","172840.374805","173590.074365","174356.798858","175123.773162","175890.314624","179756.740053","180523.717759","181289.977873","182056.946303","182823.920916","183590.110848","184340.155137","185106.968672","185115.987563","Mapping"
"Mixed","Both","done","41","m160park.wav","None","727.648091968","188","179007.382747","185873.633184","186640.078802","172840.374805","173590.074365","174356.798858","175123.773162","175890.314624","179756.740053","180523.717759","181289.977873","182056.946303","182823.920916","183590.110848","184340.155137","185106.968672","185883.122946","Mapping"
"Mixed","Both","done","41","m150park.wav","None","725.684842095","188","179007.382747","185873.633184","186640.078802","187407.522741","173590.074365","174356.798858","175123.773162","175890.314624","179756.740053","180523.717759","181289.977873","182056.946303","182823.920916","183590.110848","184340.155137","185106.968672","186648.785738","Mapping"
"Mixed","Both","done","41","m160cling.wav","None","721.175860148","188","179007.382747","185873.633184","186640.078802","187407.522741","188157.325875","174356.798858","175123.773162","175890.314624","179756.740053","180523.717759","181289.977873","182056.946303","182823.920916","183590.110848","184340.155137","185106.968672","187417.044657","Mapping"
"Mixed","Both","done","41","m150done.wav","None","735.742555","188","179007.382747","185873.633184","186640.078802","187407.522741","188157.325875","188923.2527","175123.773162","175890.314624","179756.740053","180523.717759","181289.977873","182056.946303","182823.920916","183590.110848","184340.155137","185106.968672","188166.153079","Mapping"
"Mixed","Both","done","41","m150tile.wav","space","405.017510056","188","179007.382747","185873.633184","186640.078802","187407.522741","188157.325875","188923.2527","189690.128378","175890.314624","179756.740053","180523.717759","181289.977873","182056.946303","182823.920916","183590.110848","184340.155137","185106.968672","188932.149777","Mapping"
"Mixed","Both","done","41","m160park.wav","None","729.281144217","188","179007.382747","185873.633184","186640.078802","187407.522741","188157.325875","188923.2527","189690.128378","190456.829373","179756.740053","180523.717759","181289.977873","182056.946303","182823.920916","183590.110848","184340.155137","185106.968672","189699.771181","Mapping"
"Mixed","Both","tile","34","m160romp.wav","None","727.013359312","188","193573.845555","185873.633184","186640.078802","187407.522741","188157.325875","188923.2527","189690.128378","190456.829373","179756.740053","180523.717759","181289.977873","182056.946303","182823.920916","183590.110848","184340.155137","185106.968672","190465.892786","Mapping"
"Mixed","Both","tile","34","m150cling.wav","None","720.254832879","188","193573.845555","185873.633184","186640.078802","187407.522741","188157.325875","188923.2527","189690.128378","190456.829373","194323.31942","180523.717759","181289.977873","182056.946303","182823.920916","183590.110848","184340.155137","185106.968672","193583.175475","Mapping"
"Mixed","Both","tile","34","m150reek.wav","None","734.986626543","188","193573.845555","185873.633184","186640.078802","187407.522741","188157.325875","188923.2527","189690.128378","190456.829373","194323.31942","195089.923644","181289.977873","182056.946303","182823.920916","183590.110848","184340.155137","185106.968672","194332.392107","Mapping"
"Mixed","Both","tile","34","m160tile.wav","None","732.137286104","188","193573.845555","185873.633184","186640.078802","187407.522741","188157.325875","188923.2527","189690.128378","190456.829373","194323.31942","195089.923644","195856.703787","182056.946303","182823.920916","183590.110848","184340.155137","185106.968672","195098.962941","Mapping"
"Mixed","Both","tile","34","m150bluff.wav","space","359.248436987","188","193573.845555","185873.633184","186640.078802","187407.522741","188157.325875","188923.2527","189690.128378","190456.829373","194323.31942","195089.923644","195856.703787","196623.403546","182823.920916","183590.110848","184340.155137","185106.968672","195865.784204","Mapping"
"Mixed","Both","tile","34","m160reek.wav","None","725.561172701","188","193573.845555","185873.633184","186640.078802","187407.522741","188157.325875","188923.2527","189690.128378","190456.829373","194323.31942","195089.923644","195856.703787","196623.403546","197390.361773","183590.110848","184340.155137","185106.968672","196632.57486","Mapping"
"Mixed","Both","tile","34","m160reek.wav","None","722.103688866","188","193573.845555","185873.633184","186640.078802","187407.522741","188157.325875","188923.2527","189690.128378","190456.829373","194323.31942","195089.923644","195856.703787","196623.403546","197390.361773","198156.999388","184340.155137","185106.968672","197399.970876","Mapping"
"Mixed","Both","tile","34","m160lash.wav","None","719.297941774","188","193573.845555","185873.633184","186640.078802","187407.522741","188157.325875","188923.2527","189690.128378","190456.829373","194323.31942","195089.923644","195856.703787","196623.403546","197390.361773","198156.999388","198906.524266","185106.968672","198166.705262","Mapping"
"Mixed","Both","tile","34","m150tile.wav","None","734.626749065","188","193573.845555","185873.633184","186640.078802","187407.522741","188157.325875","188923.2527","189690.128378","190456.829373","194323.31942","195089.923644","195856.703787","196623.403546","197390.361773","198156.999388","198906.524266","199673.377683","198915.743811","Mapping"
"Mixed","Both","tile","34","m150depth.wav","space","454.599925317","188","193573.845555","200439.900286","186640.078802","187407.522741","188157.325875","188923.2527","189690.128378","190456.829373","194323.31942","195089.923644","195856.703787","196623.403546","197390.361773","198156.999388","198906.524266","199673.377683","199682.390082","Mapping"
"Mixed","Both","tile","34","m150tile.wav","None","728.750912473","188","193573.845555","200439.900286","201206.193482","187407.522741","188157.325875","188923.2527","189690.128378","190456.829373","194323.31942","195089.923644","195856.703787","196623.403546","197390.361773","198156.999388","198906.524266","199673.377683","200448.912994","Mapping"
"Mixed","Both","tile","34","m160park.wav","space","577.957867645","188","193573.845555","200439.900286","201206.193482","201973.678231","188157.325875","188923.2527","189690.128378","190456.829373","194323.31942","195089.923644","195856.703787","196623.403546","197390.361773","198156.999388","198906.524266","199673.377683","201215.014811","Mapping"
"Mixed","Both","tile","34","m160tile.wav","None","719.705741387","188","193573.845555","200439.900286","201206.193482","201973.678231","202740.352019","188923.2527","189690.128378","190456.829373","194323.31942","195089.923644","195856.703787","196623.403546","197390.361773","198156.999388","198906.524266","199673.377683","201985.317983","Mapping"
"Mixed","Both","tile","34","m150bluff.wav","space","466.762489639","188","193573.845555","200439.900286","201206.193482","201973.678231","202740.352019","203489.90565","189690.128378","190456.829373","194323.31942","195089.923644","195856.703787","196623.403546","197390.361773","198156.999388","198906.524266","199673.377683","202750.143225","Mapping"
"Mixed","Both","tile","34","m160knife.wav","None","733.011010103","188","193573.845555","200439.900286","201206.193482","201973.678231","202740.352019","203489.90565","204256.569854","190456.829373","194323.31942","195089.923644","195856.703787","196623.403546","197390.361773","198156.999388","198906.524266","199673.377683","203499.255047","Mapping"
"Mixed","Both","tile","34","m150dime.wav","None","730.633777566","188","193573.845555","200439.900286","201206.193482","201973.678231","202740.352019","203489.90565","204256.569854","205022.849136","194323.31942","195089.923644","195856.703787","196623.403546","197390.361773","198156.999388","198906.524266","199673.377683","204265.629246","Mapping"
"Mixed","Both","done","42","m150cad.wav","None","728.485642001","188","208156.798425","200439.900286","201206.193482","201973.678231","202740.352019","203489.90565","204256.569854","205022.849136","194323.31942","195089.923644","195856.703787","196623.403546","197390.361773","198156.999388","198906.524266","199673.377683","205031.804647","Mapping"
"Mixed","Both","done","42","m150done.wav","None","719.865583815","188","208156.798425","200439.900286","201206.193482","201973.678231","202740.352019","203489.90565","204256.569854","205022.849136","208906.314337","195089.923644","195856.703787","196623.403546","197390.361773","198156.999388","198906.524266","199673.377683","208166.165136","Mapping"
"Mixed","Both","done","42","m150lash.wav","space","461.121624336","188","208156.798425","200439.900286","201206.193482","201973.678231","202740.352019","203489.90565","204256.569854","205022.849136","208906.314337","209673.17332","195856.703787","196623.403546","197390.361773","198156.999388","198906.524266","199673.377683","208915.674247","Mapping"
"Mixed","Both","done","42","m150gnash.wav","None","730.88513501","188","208156.798425","200439.900286","201206.193482","201973.678231","202740.352019","203489.90565","204256.569854","205022.849136","208906.314337","209673.17332","210439.426014","196623.403546","197390.361773","198156.999388","198906.524266","199673.377683","209682.876412","Mapping"
"Mixed","Both","done","42","m160ball.wav","None","729.379770812","188","208156.798425","200439.900286","201206.193482","201973.678231","202740.352019","203489.90565","204256.569854","205022.849136","208906.314337","209673.17332","210439.426014","211206.000248","197390.361773","198156.999388","198906.524266","199673.377683","210448.242397","Mapping"
"Mixed","Both","done","42","m150done.wav","None","726.668012328","188","208156.798425","200439.900286","201206.193482","201973.678231","202740.352019","203489.90565","204256.569854","205022.849136","208906.314337","209673.17332","210439.426014","211206.000248","211973.497673","198156.999388","198906.524266","199673.377683","211214.722952","Mapping"
"Mixed","Both","done","42","m150ball.wav","space","545.980083756","188","208156.798425","200439.900286","201206.193482","201973.678231","202740.352019","203489.90565","204256.569854","205022.849136","208906.314337","209673.17332","210439.426014","211206.000248","211973.497673","212739.143461","198906.524266","199673.377683","211982.77627","Mapping"
"Mixed","Both","done","42","m160dime.wav","None","725.465947296","188","208156.798425","200439.900286","201206.193482","201973.678231","202740.352019","203489.90565","204256.569854","205022.849136","208906.314337","209673.17332","210439.426014","211206.000248","211973.497673","212739.143461","213506.161049","199673.377683","212747.898936","Mapping"
"Mixed","Both","done","42","m160done.wav","None","722.095031757","188","208156.798425","200439.900286","201206.193482","201973.678231","202740.352019","203489.90565","204256.569854","205022.849136","208906.314337","209673.17332","210439.426014","211206.000248","211973.497673","212739.143461","213506.161049","214256.160508","213515.109758","Mapping"
"Mixed","Both","done","42","m160cad.wav","space","655.427705497","188","208156.798425","215023.07576","201206.193482","201973.678231","202740.352019","203489.90565","204256.569854","205022.849136","208906.314337","209673.17332","210439.426014","211206.000248","211973.497673","212739.143461","213506.161049","214256.160508","214265.32131","Mapping"
"Mixed","Both","done","42","m150cling.wav","None","732.320626266","188","208156.798425","215023.07576","215789.605474","201973.678231","202740.352019","203489.90565","204256.569854","205022.849136","208906.314337","209673.17332","210439.426014","211206.000248","211973.497673","212739.143461","213506.161049","214256.160508","215031.964799","Mapping"
"Mixed","Both","done","42","m160done.wav","None","729.68399711","188","208156.798425","215023.07576","215789.605474","216555.975344","202740.352019","203489.90565","204256.569854","205022.849136","208906.314337","209673.17332","210439.426014","211206.000248","211973.497673","212739.143461","213506.161049","214256.160508","215798.551091","Mapping"
"Mixed","Both","done","42","m160cling.wav","space","459.998089354","188","208156.798425","215023.07576","215789.605474","216555.975344","217322.832163","203489.90565","204256.569854","205022.849136","208906.314337","209673.17332","210439.426014","211206.000248","211973.497673","212739.143461","213506.161049","214256.160508","216564.707941","Mapping"
"Mixed","Both","done","42","m160jolt.wav","None","723.685109522","188","208156.798425","215023.07576","215789.605474","216555.975344","217322.832163","218090.086887","204256.569854","205022.849136","208906.314337","209673.17332","210439.426014","211206.000248","211973.497673","212739.143461","213506.161049","214256.160508","217331.673898","Mapping"
"Mixed","Both","done","42","m150bluff.wav","None","719.594129827","188","208156.798425","215023.07576","215789.605474","216555.975344","217322.832163","218090.086887","218839.540037","205022.849136","208906.314337","209673.17332","210439.426014","211206.000248","211973.497673","212739.143461","213506.161049","214256.160508","218099.55377","Mapping"
"Mixed","Both","done","42","m160park.wav","None","734.586247243","188","208156.798425","215023.07576","215789.605474","216555.975344","217322.832163","218090.086887","218839.540037","219606.228356","208906.314337","209673.17332","210439.426014","211206.000248","211973.497673","212739.143461","213506.161049","214256.160508","218848.538214","Mapping"
"Mixed","Both","cave","23","m150jaw.wav","None","731.595614925","188","222739.876201","215023.07576","215789.605474","216555.975344","217322.832163","218090.086887","218839.540037","219606.228356","208906.314337","209673.17332","210439.426014","211206.000248","211973.497673","212739.143461","213506.161049","214256.160508","219615.431206","Mapping"
"Mixed","Both","cave","23","m150park.wav","None","720.340783242","188","222739.876201","215023.07576","215789.605474","216555.975344","217322.832163","218090.086887","218839.540037","219606.228356","223489.091597","209673.17332","210439.426014","211206.000248","211973.497673","212739.143461","213506.161049","214256.160508","222749.444802","Mapping"
"Mixed","Both","cave","23","m160cave.wav","None","735.905798618","188","222739.876201","215023.07576","215789.605474","216555.975344","217322.832163","218090.086887","218839.540037","219606.228356","223489.091597","224255.872049","210439.426014","211206.000248","211973.497673","212739.143461","213506.161049","214256.160508","223497.932404","Mapping"
"Mixed","Both","cave","23","m160done.wav","space","495.931435376","188","222739.876201","215023.07576","215789.605474","216555.975344","217322.832163","218090.086887","218839.540037","219606.228356","223489.091597","224255.872049","225022.588194","211206.000248","211973.497673","212739.143461","213506.161049","214256.160508","224264.608975","Mapping"
"Mixed","Both","cave","23","m160cave.wav","None","729.46077399","188","222739.876201","215023.07576","215789.605474","216555.975344","217322.832163","218090.086887","218839.540037","219606.228356","223489.091597","224255.872049","225022.588194","225789.219625","211973.497673","212739.143461","213506.161049","214256.160508","225031.564729","Mapping"
"Mixed","Both","cave","23","m150lash.wav","space","658.51325402","188","222739.876201","215023.07576","215789.605474","216555.975344","217322.832163","218090.086887","218839.540037","219606.228356","223489.091597","224255.872049","225022.588194","225789.219625","226555.967924","212739.143461","213506.161049","214256.160508","225798.021168","Mapping"
"Mixed","Both","cave","23","m160jolt.wav","None","723.379337229","188","222739.876201","215023.07576","215789.605474","216555.975344","217322.832163","218090.086887","218839.540037","219606.228356","223489.091597","224255.872049","225022.588194","225789.219625","226555.967924","227322.617906","213506.161049","214256.160508","226565.029481","Mapping"
"Mixed","Both","cave","23","m150cave.wav","None","720.600488596","188","222739.876201","215023.07576","215789.605474","216555.975344","217322.832163","218090.086887","218839.540037","219606.228356","223489.091597","224255.872049","225022.588194","225789.219625","226555.967924","227322.617906","228072.867486","214256.160508","227331.561977","Mapping"
"Mixed","Both","cave","23","m150bluff.wav","space","622.473552357","188","222739.876201","215023.07576","215789.605474","216555.975344","217322.832163","218090.086887","218839.540037","219606.228356","223489.091597","224255.872049","225022.588194","225789.219625","226555.967924","227322.617906","228072.867486","228839.420387","228081.989023","Mapping"
"Mixed","Both","cave","23","m160park.wav","None","730.736113619","188","222739.876201","229606.110561","215789.605474","216555.975344","217322.832163","218090.086887","218839.540037","219606.228356","223489.091597","224255.872049","225022.588194","225789.219625","226555.967924","227322.617906","228072.867486","228839.420387","228848.449172","Mapping"
"Mixed","Both","cave","23","m160priest.wav","None","727.883681655","188","222739.876201","229606.110561","230372.403139","216555.975344","217322.832163","218090.086887","218839.540037","219606.228356","223489.091597","224255.872049","225022.588194","225789.219625","226555.967924","227322.617906","228072.867486","228839.420387","229615.424404","Mapping"
"Mixed","Both","cave","23","m150knife.wav","None","726.396558341","188","222739.876201","229606.110561","230372.403139","231139.234296","217322.832163","218090.086887","218839.540037","219606.228356","223489.091597","224255.872049","225022.588194","225789.219625","226555.967924","227322.617906","228072.867486","228839.420387","230381.168817","Mapping"
"Mixed","Both","cave","23","m150jolt.wav","None","723.372535314","188","222739.876201","229606.110561","230372.403139","231139.234296","231906.567859","218090.086887","218839.540037","219606.228356","223489.091597","224255.872049","225022.588194","225789.219625","226555.967924","227322.617906","228072.867486","228839.420387","231148.088707","Mapping"
"Mixed","Both","cave","23","m150cave.wav","None","719.952770974","188","222739.876201","229606.110561","230372.403139","231139.234296","231906.567859","232655.906306","218839.540037","219606.228356","223489.091597","224255.872049","225022.588194","225789.219625","226555.967924","227322.617906","228072.867486","228839.420387","231915.849239","Mapping"
"Mixed","Both","cave","23","m160priest.wav","space","431.06318824","188","222739.876201","229606.110561","230372.403139","231139.234296","231906.567859","232655.906306","233422.720458","219606.228356","223489.091597","224255.872049","225022.588194","225789.219625","226555.967924","227322.617906","228072.867486","228839.420387","232665.353093","Mapping"
"Mixed","Both","cave","23","m160jolt.wav","None","730.570396874","188","222739.876201","229606.110561","230372.403139","231139.234296","231906.567859","232655.906306","233422.720458","234189.318808","223489.091597","224255.872049","225022.588194","225789.219625","226555.967924","227322.617906","228072.867486","228839.420387","233432.363571","Mapping"
"Mixed","Both","ball","10","m160gnash.wav","None","728.65816066","188","237322.974073","229606.110561","230372.403139","231139.234296","231906.567859","232655.906306","233422.720458","234189.318808","223489.091597","224255.872049","225022.588194","225789.219625","226555.967924","227322.617906","228072.867486","228839.420387","234198.357177","Mapping"
"Mixed","Both","ball","10","m150greet.wav","None","720.245248638","188","237322.974073","229606.110561","230372.403139","231139.234296","231906.567859","232655.906306","233422.720458","234189.318808","238072.151131","224255.872049","225022.588194","225789.219625","226555.967924","227322.617906","228072.867486","228839.420387","237332.249579","Mapping"
"Mixed","Both","ball","10","m150ball.wav","None","735.634344164","188","237322.974073","229606.110561","230372.403139","231139.234296","231906.567859","232655.906306","233422.720458","234189.318808","238072.151131","238839.239212","225022.588194","225789.219625","226555.967924","227322.617906","228072.867486","228839.420387","238080.993794","Mapping"
"Mixed","Both","ball","10","m150reek.wav","space","376.106414944","188","237322.974073","229606.110561","230372.403139","231139.234296","231906.567859","232655.906306","233422.720458","234189.318808","238072.151131","238839.239212","239605.569199","225789.219625","226555.967924","227322.617906","228072.867486","228839.420387","238848.213582","Mapping"
"Mixed","Both","ball","10","m160knife.wav","None","731.025499757","188","237322.974073","229606.110561","230372.403139","231139.234296","231906.567859","232655.906306","233422.720458","234189.318808","238072.151131","238839.239212","239605.569199","240372.299256","226555.967924","227322.617906","228072.867486","228839.420387","239614.212445","Mapping"
"Mixed","Both","ball","10","m160tile.wav","None","728.211096022","188","237322.974073","229606.110561","230372.403139","231139.234296","231906.567859","232655.906306","233422.720458","234189.318808","238072.151131","238839.239212","239605.569199","240372.299256","241138.939344","227322.617906","228072.867486","228839.420387","240381.097089","Mapping"
"Mixed","Both","ball","10","m150greet.wav","None","725.834481418","188","237322.974073","229606.110561","230372.403139","231139.234296","231906.567859","232655.906306","233422.720458","234189.318808","238072.151131","238839.239212","239605.569199","240372.299256","241138.939344","241906.208909","228072.867486","228839.420387","241147.599595","Mapping"
"Mixed","Both","ball","10","m160tile.wav","None","721.668682061","188","237322.974073","229606.110561","230372.403139","231139.234296","231906.567859","232655.906306","233422.720458","234189.318808","238072.151131","238839.239212","239605.569199","240372.299256","241138.939344","241906.208909","242672.968338","228839.420387","241915.87861","Mapping"
"Mixed","Both","ball","10","m160ball.wav","None","720.06747406","188","237322.974073","229606.110561","230372.403139","231139.234296","231906.567859","232655.906306","233422.720458","234189.318808","238072.151131","238839.239212","239605.569199","240372.299256","241138.939344","241906.208909","242672.968338","243422.384697","242682.166241","Mapping"
"Mixed","Both","ball","10","m160priest.wav","space","488.723371644","188","237322.974073","244189.136396","230372.403139","231139.234296","231906.567859","232655.906306","233422.720458","234189.318808","238072.151131","238839.239212","239605.569199","240372.299256","241138.939344","241906.208909","242672.968338","243422.384697","243431.465113","Mapping"
"Mixed","Both","ball","10","m160jaw.wav","None","731.446902733","188","237322.974073","244189.136396","244955.507813","231139.234296","231906.567859","232655.906306","233422.720458","234189.318808","238072.151131","238839.239212","239605.569199","240372.299256","241138.939344","241906.208909","242672.968338","243422.384697","244198.182186","Mapping"
"Mixed","Both","ball","10","m150greet.wav","None","732.092147227","188","237322.974073","244189.136396","244955.507813","245722.192422","231906.567859","232655.906306","233422.720458","234189.318808","238072.151131","238839.239212","239605.569199","240372.299256","241138.939344","241906.208909","242672.968338","243422.384697","244964.592867","Mapping"
"Mixed","Both","ball","10","m150ball.wav","None","730.001827236","188","237322.974073","244189.136396","244955.507813","245722.192422","246488.824471","232655.906306","233422.720458","234189.318808","238072.151131","238839.239212","239605.569199","240372.299256","241138.939344","241906.208909","242672.968338","243422.384697","245730.864421","Mapping"
"Mixed","Both","ball","10","m150knife.wav","space","446.587392595","188","237322.974073","244189.136396","244955.507813","245722.192422","246488.824471","247255.592248","233422.720458","234189.318808","238072.151131","238839.239212","239605.569199","240372.299256","241138.939344","241906.208909","242672.968338","243422.384697","246497.552431","Mapping"
"Mixed","Both","ball","10","m160ball.wav","None","724.144540727","188","237322.974073","244189.136396","244955.507813","245722.192422","246488.824471","247255.592248","248022.837697","234189.318808","238072.151131","238839.239212","239605.569199","240372.299256","241138.939344","241906.208909","242672.968338","243422.384697","247264.576821","Mapping"
"Mixed","Both","ball","10","m150depth.wav","space","623.693550006","188","237322.974073","244189.136396","244955.507813","245722.192422","246488.824471","247255.592248","248022.837697","248772.276934","238072.151131","238839.239212","239605.569199","240372.299256","241138.939344","241906.208909","242672.968338","243422.384697","248032.393931","Mapping"
"Mixed","Both","tile","32","m150park.wav","None","734.827093314","188","251906.072564","244189.136396","244955.507813","245722.192422","246488.824471","247255.592248","248022.837697","248772.276934","238072.151131","238839.239212","239605.569199","240372.299256","241138.939344","241906.208909","242672.968338","243422.384697","248781.402799","Mapping"
"Mixed","Both","tile","32","m150priest.wav","None","720.659231301","188","251906.072564","244189.136396","244955.507813","245722.192422","246488.824471","247255.592248","248022.837697","248772.276934","252655.391223","238839.239212","239605.569199","240372.299256","241138.939344","241906.208909","242672.968338","243422.384697","251915.585514","Mapping"
"Mixed","Both","tile","32","m150tile.wav","None","736.00689834","188","251906.072564","244189.136396","244955.507813","245722.192422","246488.824471","247255.592248","248022.837697","248772.276934","252655.391223","253422.423034","239605.569199","240372.299256","241138.939344","241906.208909","242672.968338","243422.384697","252664.543987","Mapping"
"Mixed","Both","tile","32","m150gnash.wav","space","535.961325746","188","251906.072564","244189.136396","244955.507813","245722.192422","246488.824471","247255.592248","248022.837697","248772.276934","252655.391223","253422.423034","254188.904825","240372.299256","241138.939344","241906.208909","242672.968338","243422.384697","253432.092735","Mapping"
"Mixed","Both","tile","32","m150jaw.wav","None","730.327386409","188","251906.072564","244189.136396","244955.507813","245722.192422","246488.824471","247255.592248","248022.837697","248772.276934","252655.391223","253422.423034","254188.904825","254955.281189","241138.939344","241906.208909","242672.968338","243422.384697","254197.952161","Mapping"
"Mixed","Both","tile","32","m160tile.wav","None","728.298901115","188","251906.072564","244189.136396","244955.507813","245722.192422","246488.824471","247255.592248","248022.837697","248772.276934","252655.391223","253422.423034","254188.904825","254955.281189","255722.308052","241906.208909","242672.968338","243422.384697","254964.032027","Mapping"
"Mixed","Both","tile","32","m150knife.wav","space","452.13426929","188","251906.072564","244189.136396","244955.507813","245722.192422","246488.824471","247255.592248","248022.837697","248772.276934","252655.391223","253422.423034","254188.904825","254955.281189","255722.308052","256489.104891","242672.968338","243422.384697","255731.815747","Mapping"
"Mixed","Both","tile","32","m160cave.wav","None","721.093928907","188","251906.072564","244189.136396","244955.507813","245722.192422","246488.824471","247255.592248","248022.837697","248772.276934","252655.391223","253422.423034","254188.904825","254955.281189","255722.308052","256489.104891","257239.08951","243422.384697","256498.929179","Mapping"
"Mixed","Both","tile","32","m150tile.wav","None","736.762826797","188","251906.072564","244189.136396","244955.507813","245722.192422","246488.824471","247255.592248","248022.837697","248772.276934","252655.391223","253422.423034","254188.904825","254955.281189","255722.308052","256489.104891","257239.08951","258005.511322","257247.872502","Mapping"
"Mixed","Both","tile","32","m160priest.wav","space","345.240726601","188","251906.072564","258771.846256","244955.507813","245722.192422","246488.824471","247255.592248","248022.837697","248772.276934","252655.391223","253422.423034","254188.904825","254955.281189","255722.308052","256489.104891","257239.08951","258005.511322","258014.688201","Mapping"
"Mixed","Both","tile","32","m160gnash.wav","None","731.495134067","188","251906.072564","258771.846256","259538.827053","245722.192422","246488.824471","247255.592248","248022.837697","248772.276934","252655.391223","253422.423034","254188.904825","254955.281189","255722.308052","256489.104891","257239.08951","258005.511322","258780.684281","Mapping"
"Mixed","Both","tile","32","m160knife.wav","None","728.626624681","188","251906.072564","258771.846256","259538.827053","260305.479199","246488.824471","247255.592248","248022.837697","248772.276934","252655.391223","253422.423034","254188.904825","254955.281189","255722.308052","256489.104891","257239.08951","258005.511322","259547.847181","Mapping"
"Mixed","Both","tile","32","m160ball.wav","None","726.220638957","188","251906.072564","258771.846256","259538.827053","260305.479199","261072.680127","247255.592248","248022.837697","248772.276934","252655.391223","253422.423034","254188.904825","254955.281189","255722.308052","256489.104891","257239.08951","258005.511322","260314.606919","Mapping"
"Mixed","Both","tile","32","m160gnash.wav","None","723.100153729","188","251906.072564","258771.846256","259538.827053","260305.479199","261072.680127","261838.708361","248022.837697","248772.276934","252655.391223","253422.423034","254188.904825","254955.281189","255722.308052","256489.104891","257239.08951","258005.511322","261082.131242","Mapping"
"Mixed","Both","tile","32","m160tile.wav","None","721.679812297","188","251906.072564","258771.846256","259538.827053","260305.479199","261072.680127","261838.708361","262588.862716","248772.276934","252655.391223","253422.423034","254188.904825","254955.281189","255722.308052","256489.104891","257239.08951","258005.511322","261847.871018","Mapping"
"Mixed","Both","tile","32","m150cling.wav","space","345.988307614","188","251906.072564","258771.846256","259538.827053","260305.479199","261072.680127","261838.708361","262588.862716","263355.101497","252655.391223","253422.423034","254188.904825","254955.281189","255722.308052","256489.104891","257239.08951","258005.511322","262597.866149","Mapping"
"Mixed","Both","cave","19","m160ball.wav","None","733.560719993","188","266489.072119","258771.846256","259538.827053","260305.479199","261072.680127","261838.708361","262588.862716","263355.101497","252655.391223","253422.423034","254188.904825","254955.281189","255722.308052","256489.104891","257239.08951","258005.511322","263363.725883","Mapping"
"Mixed","Both","cave","19","m160cave.wav","None","720.483621117","188","266489.072119","258771.846256","259538.827053","260305.479199","261072.680127","261838.708361","262588.862716","263355.101497","267238.451377","253422.423034","254188.904825","254955.281189","255722.308052","256489.104891","257239.08951","258005.511322","266498.434502","Mapping"
"Mixed","Both","cave","19","m150bluff.wav","space","495.980903041","188","266489.072119","258771.846256","259538.827053","260305.479199","261072.680127","261838.708361","262588.862716","263355.101497","267238.451377","268005.431864","254188.904825","254955.281189","255722.308052","256489.104891","257239.08951","258005.511322","267247.772639","Mapping"
"Mixed","Both","cave","19","m150cad.wav","None","732.805100735","188","266489.072119","258771.846256","259538.827053","260305.479199","261072.680127","261838.708361","262588.862716","263355.101497","267238.451377","268005.431864","268772.057421","254955.281189","255722.308052","256489.104891","257239.08951","258005.511322","268014.656974","Mapping"
"Mixed","Both","cave","19","m160done.wav","None","730.061806738","188","266489.072119","258771.846256","259538.827053","260305.479199","261072.680127","261838.708361","262588.862716","263355.101497","267238.451377","268005.431864","268772.057421","269538.310115","255722.308052","256489.104891","257239.08951","258005.511322","268781.616129","Mapping"
"Mixed","Both","cave","19","m160done.wav","None","728.731125128","188","266489.072119","258771.846256","259538.827053","260305.479199","261072.680127","261838.708361","262588.862716","263355.101497","267238.451377","268005.431864","268772.057421","269538.310115","270305.025332","256489.104891","257239.08951","258005.511322","269547.124025","Mapping"
"Mixed","Both","cave","19","m150greet.wav","None","726.089240517","188","266489.072119","258771.846256","259538.827053","260305.479199","261072.680127","261838.708361","262588.862716","263355.101497","267238.451377","268005.431864","268772.057421","269538.310115","270305.025332","271071.947386","257239.08951","258005.511322","270313.805851","Mapping"
"Mixed","Both","cave","19","m150cave.wav","None","723.367279395","188","266489.072119","258771.846256","259538.827053","260305.479199","261072.680127","261838.708361","262588.862716","263355.101497","267238.451377","268005.431864","268772.057421","269538.310115","270305.025332","271071.947386","271839.00053","258005.511322","271080.914955","Mapping"
"Mixed","Both","cave","19","m160greet.wav","space","415.146951564","188","266489.072119","258771.846256","259538.827053","260305.479199","261072.680127","261838.708361","262588.862716","263355.101497","267238.451377","268005.431864","268772.057421","269538.310115","270305.025332","271071.947386","271839.00053","272588.593117","271848.533267","Mapping"
"Mixed","Both","cave","19","m150cad.wav","None","734.249248635","188","266489.072119","273354.921249","259538.827053","260305.479199","261072.680127","261838.708361","262588.862716","263355.101497","267238.451377","268005.431864","268772.057421","269538.310115","270305.025332","271071.947386","271839.00053","272588.593117","272597.595931","Mapping"
"Mixed","Both","cave","19","m160bluff.wav","None","732.749449089","188","266489.072119","273354.921249","274122.020459","260305.479199","261072.680127","261838.708361","262588.862716","263355.101497","267238.451377","268005.431864","268772.057421","269538.310115","270305.025332","271071.947386","271839.00053","272588.593117","273363.624166","Mapping"
"Mixed","Both","cave","19","m150cave.wav","None","729.560018983","188","266489.072119","273354.921249","274122.020459","274888.735677","261072.680127","261838.708361","262588.862716","263355.101497","267238.451377","268005.431864","268772.057421","269538.310115","270305.025332","271071.947386","271839.00053","272588.593117","274131.11046","Mapping"
"Mixed","Both","cave","19","m150park.wav","space","428.971012589","188","266489.072119","273354.921249","274122.020459","274888.735677","275655.633615","261838.708361","262588.862716","263355.101497","267238.451377","268005.431864","268772.057421","269538.310115","270305.025332","271071.947386","271839.00053","272588.593117","274898.621181","Mapping"
"Mixed","Both","cave","19","m150ball.wav","None","723.086241167","188","266489.072119","273354.921249","274122.020459","274888.735677","275655.633615","276421.782736","262588.862716","263355.101497","267238.451377","268005.431864","268772.057421","269538.310115","270305.025332","271071.947386","271839.00053","272588.593117","275665.113793","Mapping"
"Mixed","Both","cave","19","m160cave.wav","None","723.356767558","188","266489.072119","273354.921249","274122.020459","274888.735677","275655.633615","276421.782736","277188.424989","263355.101497","267238.451377","268005.431864","268772.057421","269538.310115","270305.025332","271071.947386","271839.00053","272588.593117","276430.480088","Mapping"
"Mixed","Both","cave","19","m160reek.wav","space","522.260006517","188","266489.072119","273354.921249","274122.020459","274888.735677","275655.633615","276421.782736","277188.424989","277938.476388","267238.451377","268005.431864","268772.057421","269538.310115","270305.025332","271071.947386","271839.00053","272588.593117","277197.313718","Mapping"
"Mixed","Both","tile","29","m160knife.wav","None","733.740349766","188","281072.220696","273354.921249","274122.020459","274888.735677","275655.633615","276421.782736","277188.424989","277938.476388","267238.451377","268005.431864","268772.057421","269538.310115","270305.025332","271071.947386","271839.00053","272588.593117","277947.488478","Mapping"
"Mixed","Both","tile","29","m160jaw.wav","None","720.19361658","188","281072.220696","273354.921249","274122.020459","274888.735677","275655.633615","276421.782736","277188.424989","277938.476388","281821.295727","268005.431864","268772.057421","269538.310115","270305.025332","271071.947386","271839.00053","272588.593117","281081.597919","Mapping"
"Mixed","Both","tile","29","m150cling.wav","None","736.183436122","188","281072.220696","273354.921249","274122.020459","274888.735677","275655.633615","276421.782736","277188.424989","277938.476388","281821.295727","282588.643203","268772.057421","269538.310115","270305.025332","271071.947386","271839.00053","272588.593117","281830.032343","Mapping"
"Mixed","Both","tile","29","m160park.wav","None","733.162504621","188","281072.220696","273354.921249","274122.020459","274888.735677","275655.633615","276421.782736","277188.424989","277938.476388","281821.295727","282588.643203","283354.743475","269538.310115","270305.025332","271071.947386","271839.00053","272588.593117","282597.472262","Mapping"
"Mixed","Both","tile","29","m150park.wav","None","731.556040701","188","281072.220696","273354.921249","274122.020459","274888.735677","275655.633615","276421.782736","277188.424989","277938.476388","281821.295727","282588.643203","283354.743475","284121.933891","270305.025332","271071.947386","271839.00053","272588.593117","283363.535124","Mapping"
"Mixed","Both","tile","29","m150tile.wav","None","728.533254471","188","281072.220696","273354.921249","274122.020459","274888.735677","275655.633615","276421.782736","277188.424989","277938.476388","281821.295727","282588.643203","283354.743475","284121.933891","284888.36436","271071.947386","271839.00053","272588.593117","284131.36522","Mapping"
"Mixed","Both","tile","29","m160greet.wav","space","518.247866072","188","281072.220696","273354.921249","274122.020459","274888.735677","275655.633615","276421.782736","277188.424989","277938.476388","281821.295727","282588.643203","283354.743475","284121.933891","284888.36436","285655.517984","271839.00053","272588.593117","284897.207331","Mapping"
"Mixed","Both","tile","29","m160ball.wav","None","721.574074589","188","281072.220696","273354.921249","274122.020459","274888.735677","275655.633615","276421.782736","277188.424989","277938.476388","281821.295727","282588.643203","283354.743475","284121.933891","284888.36436","285655.517984","286422.330282","272588.593117","285666.080269","Mapping"
"Mixed","Both","tile","29","m160tile.wav","None","720.15095083","188","281072.220696","273354.921249","274122.020459","274888.735677","275655.633615","276421.782736","277188.424989","277938.476388","281821.295727","282588.643203","283354.743475","284121.933891","284888.36436","285655.517984","286422.330282","287171.683878","286431.772431","Mapping"
"Mixed","Both","tile","29","m150depth.wav","space","402.570404112","188","281072.220696","287938.044474","274122.020459","274888.735677","275655.633615","276421.782736","277188.424989","277938.476388","281821.295727","282588.643203","283354.743475","284121.933891","284888.36436","285655.517984","286422.330282","287171.683878","287180.850245","Mapping"
"Mixed","Both","tile","29","m150cad.wav","None","732.773255557","188","281072.220696","287938.044474","288704.993735","274888.735677","275655.633615","276421.782736","277188.424989","277938.476388","281821.295727","282588.643203","283354.743475","284121.933891","284888.36436","285655.517984","286422.330282","287171.683878","287946.862712","Mapping"
"Mixed","Both","tile","29","m160tile.wav","None","729.519207962","188","281072.220696","287938.044474","288704.993735","289471.923209","275655.633615","276421.782736","277188.424989","277938.476388","281821.295727","282588.643203","283354.743475","284121.933891","284888.36436","285655.517984","286422.330282","287171.683878","288714.526163","Mapping"
"Mixed","Both","tile","29","m150ball.wav","space","374.085349496","188","281072.220696","287938.044474","288704.993735","289471.923209","290238.626987","276421.782736","277188.424989","277938.476388","281821.295727","282588.643203","283354.743475","284121.933891","284888.36436","285655.517984","286422.330282","287171.683878","289481.307234","Mapping"
"Mixed","Both","tile","29","m160depth.wav","None","723.726538941","188","281072.220696","287938.044474","288704.993735","289471.923209","290238.626987","291005.526471","277188.424989","277938.476388","281821.295727","282588.643203","283354.743475","284121.933891","284888.36436","285655.517984","286422.330282","287171.683878","290248.17982","Mapping"
"Mixed","Both","tile","29","m150tile.wav","None","721.09300131","188","281072.220696","287938.044474","288704.993735","289471.923209","290238.626987","291005.526471","291771.926023","277938.476388","281821.295727","282588.643203","283354.743475","284121.933891","284888.36436","285655.517984","286422.330282","287171.683878","291015.292325","Mapping"
"Mixed","Both","tile","29","m150cling.wav","space","417.838922236","188","281072.220696","287938.044474","288704.993735","289471.923209","290238.626987","291005.526471","291771.926023","292521.705659","281821.295727","282588.643203","283354.743475","284121.933891","284888.36436","285655.517984","286422.330282","287171.683878","291781.484731","Mapping"
"Mixed","Both","done","46","m160reek.wav","None","733.560410794","188","295655.363088","287938.044474","288704.993735","289471.923209","290238.626987","291005.526471","291771.926023","292521.705659","281821.295727","282588.643203","283354.743475","284121.933891","284888.36436","285655.517984","286422.330282","287171.683878","292530.674774","Mapping"
"Mixed","Both","done","46","m150park.wav","None","720.76002229","188","295655.363088","287938.044474","288704.993735","289471.923209","290238.626987","291005.526471","291771.926023","292521.705659","296404.794905","282588.643203","283354.743475","284121.933891","284888.36436","285655.517984","286422.330282","287171.683878","295664.591908","Mapping"
"Mixed","Both","done","46","m160done.wav","None","735.291780904","188","295655.363088","287938.044474","288704.993735","289471.923209","290238.626987","291005.526471","291771.926023","292521.705659","296404.794905","297171.729636","283354.743475","284121.933891","284888.36436","285655.517984","286422.330282","287171.683878","296414.380511","Mapping"
"Mixed","Both","done","46","m150knife.wav","space","554.07732958","188","295655.363088","287938.044474","288704.993735","289471.923209","290238.626987","291005.526471","291771.926023","292521.705659","296404.794905","297171.729636","297937.854023","284121.933891","284888.36436","285655.517984","286422.330282","287171.683878","297181.129119","Mapping"
"Mixed","Both","done","46","m150done.wav","None","730.696848594","188","295655.363088","287938.044474","288704.993735","289471.923209","290238.626987","291005.526471","291771.926023","292521.705659","296404.794905","297171.729636","297937.854023","298704.792154","284888.36436","285655.517984","286422.330282","287171.683878","297946.482119","Mapping"
"Mixed","Both","done","46","m150dime.wav","space","669.552592095","188","295655.363088","287938.044474","288704.993735","289471.923209","290238.626987","291005.526471","291771.926023","292521.705659","296404.794905","297171.729636","297937.854023","298704.792154","299472.075322","285655.517984","286422.330282","287171.683878","298713.627397","Mapping"
"Mixed","Both","done","46","m160lash.wav","None","723.843715619","188","295655.363088","287938.044474","288704.993735","289471.923209","290238.626987","291005.526471","291771.926023","292521.705659","296404.794905","297171.729636","297937.854023","298704.792154","299472.075322","300238.356151","286422.330282","287171.683878","299481.499849","Mapping"
"Mixed","Both","done","46","m160ball.wav","None","722.321655601","188","295655.363088","287938.044474","288704.993735","289471.923209","290238.626987","291005.526471","291771.926023","292521.705659","296404.794905","297171.729636","297937.854023","298704.792154","299472.075322","300238.356151","301005.337875","287171.683878","300247.686071","Mapping"
"Mixed","Both","done","46","m160cad.wav","None","719.585782383","188","295655.363088","287938.044474","288704.993735","289471.923209","290238.626987","291005.526471","291771.926023","292521.705659","296404.794905","297171.729636","297937.854023","298704.792154","299472.075322","300238.356151","301005.337875","301754.631801","301014.874632","Mapping"
"Mixed","Both","done","46","m150done.wav","None","734.870068263","188","295655.363088","302521.501914","288704.993735","289471.923209","290238.626987","291005.526471","291771.926023","292521.705659","296404.794905","297171.729636","297937.854023","298704.792154","299472.075322","300238.356151","301005.337875","301754.631801","301764.064676","Mapping"
"Mixed","Both","done","46","m160dime.wav","space","444.581786171","188","295655.363088","302521.501914","303287.802839","289471.923209","290238.626987","291005.526471","291771.926023","292521.705659","296404.794905","297171.729636","297937.854023","298704.792154","299472.075322","300238.356151","301005.337875","301754.631801","302530.562853","Mapping"
"Mixed","Both","done","46","m160gnash.wav","None","729.932572227","188","295655.363088","302521.501914","303287.802839","304054.762303","290238.626987","291005.526471","291771.926023","292521.705659","296404.794905","297171.729636","297937.854023","298704.792154","299472.075322","300238.356151","301005.337875","301754.631801","303296.734544","Mapping"
"Mixed","Both","done","46","m150cling.wav","None","727.043658029","188","295655.363088","302521.501914","303287.802839","304054.762303","304821.020871","291005.526471","291771.926023","292521.705659","296404.794905","297171.729636","297937.854023","298704.792154","299472.075322","300238.356151","301005.337875","301754.631801","304064.079547","Mapping"
"Mixed","Both","done","46","m150park.wav","None","725.807274226","188","295655.363088","302521.501914","303287.802839","304054.762303","304821.020871","305587.981263","291771.926023","292521.705659","296404.794905","297171.729636","297937.854023","298704.792154","299472.075322","300238.356151","301005.337875","301754.631801","304829.785623","Mapping"
"Mixed","Both","done","46","m160done.wav","None","723.212384153","188","295655.363088","302521.501914","303287.802839","304054.762303","304821.020871","305587.981263","306355.231968","292521.705659","296404.794905","297171.729636","297937.854023","298704.792154","299472.075322","300238.356151","301005.337875","301754.631801","305596.845568","Mapping"
"Mixed","Both","done","46","m150dime.wav","space","377.917551436","188","295655.363088","302521.501914","303287.802839","304054.762303","304821.020871","305587.981263","306355.231968","307104.559594","296404.794905","297171.729636","297937.854023","298704.792154","299472.075322","300238.356151","301005.337875","301754.631801","306365.147462","Mapping"
"Mixed","Both","tile","26","m150cave.wav","None","734.244920313","188","310238.366972","302521.501914","303287.802839","304054.762303","304821.020871","305587.981263","306355.231968","307104.559594","296404.794905","297171.729636","297937.854023","298704.792154","299472.075322","300238.356151","301005.337875","301754.631801","307113.912083","Mapping"
"Mixed","Both","tile","26","m160tile.wav","None","720.460123848","188","310238.366972","302521.501914","303287.802839","304054.762303","304821.020871","305587.981263","306355.231968","307104.559594","310987.889995","297171.729636","297937.854023","298704.792154","299472.075322","300238.356151","301005.337875","301754.631801","310247.874048","Mapping"
"Mixed","Both","tile","26","m150priest.wav","space","521.999373566","188","310238.366972","302521.501914","303287.802839","304054.762303","304821.020871","305587.981263","306355.231968","307104.559594","310987.889995","311754.617888","297937.854023","298704.792154","299472.075322","300238.356151","301005.337875","301754.631801","310996.961446","Mapping"
"Mixed","Both","tile","26","m160gnash.wav","None","732.00619733","188","310238.366972","302521.501914","303287.802839","304054.762303","304821.020871","305587.981263","306355.231968","307104.559594","310987.889995","311754.617888","312521.34269","298704.792154","299472.075322","300238.356151","301005.337875","301754.631801","311764.140114","Mapping"
"Mixed","Both","tile","26","m160jolt.wav","None","730.340681039","188","310238.366972","302521.501914","303287.802839","304054.762303","304821.020871","305587.981263","306355.231968","307104.559594","310987.889995","311754.617888","312521.34269","313287.576215","299472.075322","300238.356151","301005.337875","301754.631801","312530.465154","Mapping"
"Mixed","Both","tile","26","m160tile.wav","None","729.01772894","188","310238.366972","302521.501914","303287.802839","304054.762303","304821.020871","305587.981263","306355.231968","307104.559594","310987.889995","311754.617888","312521.34269","313287.576215","314054.522385","300238.356151","301005.337875","301754.631801","313296.335092","Mapping"
"Mixed","Both","tile","26","m160priest.wav","space","455.268666614","188","310238.366972","302521.501914","303287.802839","304054.762303","304821.020871","305587.981263","306355.231968","307104.559594","310987.889995","311754.617888","312521.34269","313287.576215","314054.522385","314821.430217","301005.337875","301754.631801","314063.641139","Mapping"
"Mixed","Both","tile","26","m150tile.wav","None","722.367104143","188","310238.366972","302521.501914","303287.802839","304054.762303","304821.020871","305587.981263","306355.231968","307104.559594","310987.889995","311754.617888","312521.34269","313287.576215","314054.522385","314821.430217","315588.361855","301754.631801","314831.432588","Mapping"
"Mixed","Both","tile","26","m150jolt.wav","space","593.133016024","188","310238.366972","302521.501914","303287.802839","304054.762303","304821.020871","305587.981263","306355.231968","307104.559594","310987.889995","311754.617888","312521.34269","313287.576215","314054.522385","314821.430217","315588.361855","316337.780687","315597.742788","Mapping"
"Mixed","Both","tile","26","m160knife.wav","None","735.015998129","188","310238.366972","317104.139118","303287.802839","304054.762303","304821.020871","305587.981263","306355.231968","307104.559594","310987.889995","311754.617888","312521.34269","313287.576215","314054.522385","314821.430217","315588.361855","316337.780687","316346.785356","Mapping"
"Mixed","Both","tile","26","m150park.wav","None","733.703249134","188","310238.366972","317104.139118","317871.320259","304054.762303","304821.020871","305587.981263","306355.231968","307104.559594","310987.889995","311754.617888","312521.34269","313287.576215","314054.522385","314821.430217","315588.361855","316337.780687","317112.812972","Mapping"
"Mixed","Both","tile","26","m150lash.wav","None","730.147757102","188","310238.366972","317104.139118","317871.320259","318637.719193","304821.020871","305587.981263","306355.231968","307104.559594","310987.889995","311754.617888","312521.34269","313287.576215","314054.522385","314821.430217","315588.361855","316337.780687","317880.967391","Mapping"
"Mixed","Both","tile","26","m150jolt.wav","None","728.987738956","188","310238.366972","317104.139118","317871.320259","318637.719193","319404.147188","305587.981263","306355.231968","307104.559594","310987.889995","311754.617888","312521.34269","313287.576215","314054.522385","314821.430217","315588.361855","316337.780687","318646.71335","Mapping"
"Mixed","Both","tile","26","m150tile.wav","None","727.399516385","188","310238.366972","317104.139118","317871.320259","318637.719193","319404.147188","320171.727472","306355.231968","307104.559594","310987.889995","311754.617888","312521.34269","313287.576215","314054.522385","314821.430217","315588.361855","316337.780687","319412.905137","Mapping"
"Mixed","Both","tile","26","m160jolt.wav","space","369.343251456","188","310238.366972","317104.139118","317871.320259","318637.719193","319404.147188","320171.727472","320937.645949","307104.559594","310987.889995","311754.617888","312521.34269","313287.576215","314054.522385","314821.430217","315588.361855","316337.780687","320181.515276","Mapping"
"Mixed","Both","tile","26","m160depth.wav","None","721.963324118","188","310238.366972","317104.139118","317871.320259","318637.719193","319404.147188","320171.727472","320937.645949","321688.031875","310987.889995","311754.617888","312521.34269","313287.576215","314054.522385","314821.430217","315588.361855","316337.780687","320946.460786","Mapping"
"Mixed","Both","tile","25","m150bluff.wav","None","736.104596872","188","324821.426816","317104.139118","317871.320259","318637.719193","319404.147188","320171.727472","320937.645949","321688.031875","310987.889995","311754.617888","312521.34269","313287.576215","314054.522385","314821.430217","315588.361855","316337.780687","321697.113838","Mapping"
"Mixed","Both","tile","25","m160tile.wav","None","720.128380693","188","324821.426816","317104.139118","317871.320259","318637.719193","319404.147188","320171.727472","320937.645949","321688.031875","325570.411569","311754.617888","312521.34269","313287.576215","314054.522385","314821.430217","315588.361855","316337.780687","324830.833102","Mapping"
"Mixed","Both","tile","25","m150jolt.wav","None","736.43664876","188","324821.426816","317104.139118","317871.320259","318637.719193","319404.147188","320171.727472","320937.645949","321688.031875","325570.411569","326337.436577","312521.34269","313287.576215","314054.522385","314821.430217","315588.361855","316337.780687","325579.142929","Mapping"
"Mixed","Both","tile","25","m150park.wav","space","308.158493135","188","324821.426816","317104.139118","317871.320259","318637.719193","319404.147188","320171.727472","320937.645949","321688.031875","325570.411569","326337.436577","327104.284739","313287.576215","314054.522385","314821.430217","315588.361855","316337.780687","326346.547293","Mapping"
"Mixed","Both","tile","25","m160tile.wav","None","729.712750297","188","324821.426816","317104.139118","317871.320259","318637.719193","319404.147188","320171.727472","320937.645949","321688.031875","325570.411569","326337.436577","327104.284739","327871.111568","314054.522385","314821.430217","315588.361855","316337.780687","327113.662271","Mapping"
"Mixed","Both","tile","25","m160knife.wav","space","518.476035912","188","324821.426816","317104.139118","317871.320259","318637.719193","319404.147188","320171.727472","320937.645949","321688.031875","325570.411569","326337.436577","327104.284739","327871.111568","328638.112461","314821.430217","315588.361855","316337.780687","327880.207443","Mapping"
"Mixed","Both","tile","25","m160priest.wav","None","723.909569439","188","324821.426816","317104.139118","317871.320259","318637.719193","319404.147188","320171.727472","320937.645949","321688.031875","325570.411569","326337.436577","327104.284739","327871.111568","328638.112461","329404.809437","315588.361855","316337.780687","328647.469588","Mapping"
"Mixed","Both","tile","25","m150tile.wav","None","721.592625603","188","324821.426816","317104.139118","317871.320259","318637.719193","319404.147188","320171.727472","320937.645949","321688.031875","325570.411569","326337.436577","327104.284739","327871.111568","328638.112461","329404.809437","330171.342551","316337.780687","329414.497379","Mapping"
"Mixed","Both","tile","25","m160park.wav","space","393.636226188","188","324821.426816","317104.139118","317871.320259","318637.719193","319404.147188","320171.727472","320937.645949","321688.031875","325570.411569","326337.436577","327104.284739","327871.111568","328638.112461","329404.809437","330171.342551","330920.851352","330180.979789","Mapping"
"Mixed","Both","tile","25","m150cave.wav","None","734.636642504","188","324821.426816","331687.528541","317871.320259","318637.719193","319404.147188","320171.727472","320937.645949","321688.031875","325570.411569","326337.436577","327104.284739","327871.111568","328638.112461","329404.809437","330171.342551","330920.851352","330929.998859","Mapping"
"Mixed","Both","tile","25","m160done.wav","None","732.665663119","188","324821.426816","331687.528541","332454.145132","318637.719193","319404.147188","320171.727472","320937.645949","321688.031875","325570.411569","326337.436577","327104.284739","327871.111568","328638.112461","329404.809437","330171.342551","330920.851352","331696.520534","Mapping"
"Mixed","Both","tile","25","m150tile.wav","None","730.584927835","188","324821.426816","331687.528541","332454.145132","333220.492124","319404.147188","320171.727472","320937.645949","321688.031875","325570.411569","326337.436577","327104.284739","327871.111568","328638.112461","329404.809437","330171.342551","330920.851352","332463.377353","Mapping"
"Mixed","Both","tile","25","m150ball.wav","space","353.428560775","188","324821.426816","331687.528541","332454.145132","333220.492124","333987.216307","320171.727472","320937.645949","321688.031875","325570.411569","326337.436577","327104.284739","327871.111568","328638.112461","329404.809437","330171.342551","330920.851352","333229.143099","Mapping"
"Mixed","Both","tile","25","m150depth.wav","None","726.241662633","188","324821.426816","331687.528541","332454.145132","333220.492124","333987.216307","334754.641695","320937.645949","321688.031875","325570.411569","326337.436577","327104.284739","327871.111568","328638.112461","329404.809437","330171.342551","330920.851352","333995.939319","Mapping"
"Mixed","Both","tile","25","m160depth.wav","None","722.985450644","188","324821.426816","331687.528541","332454.145132","333220.492124","333987.216307","334754.641695","335521.213765","321688.031875","325570.411569","326337.436577","327104.284739","327871.111568","328638.112461","329404.809437","330171.342551","330920.851352","334763.931422","Mapping"
"Mixed","Both","tile","25","m160jaw.wav","None","720.542982221","188","324821.426816","331687.528541","332454.145132","333220.492124","333987.216307","334754.641695","335521.213765","336270.6462","325570.411569","326337.436577","327104.284739","327871.111568","328638.112461","329404.809437","330171.342551","330920.851352","335531.164504","Mapping"
"Mixed","Both","ball","9","m160park.wav","None","736.964407843","188","339404.50892","331687.528541","332454.145132","333220.492124","333987.216307","334754.641695","335521.213765","336270.6462","325570.411569","326337.436577","327104.284739","327871.111568","328638.112461","329404.809437","330171.342551","330920.851352","336279.378797","Mapping"
"Mixed","Both","ball","9","m160ball.wav","None","719.79663847","188","339404.50892","331687.528541","332454.145132","333220.492124","333987.216307","334754.641695","335521.213765","336270.6462","340154.111401","326337.436577","327104.284739","327871.111568","328638.112461","329404.809437","330171.342551","330920.851352","339413.796483","Mapping"
"Mixed","Both","ball","9","m150greet.wav","space","571.13441499","188","339404.50892","331687.528541","332454.145132","333220.492124","333987.216307","334754.641695","335521.213765","336270.6462","340154.111401","340920.516517","327104.284739","327871.111568","328638.112461","329404.809437","330171.342551","330920.851352","340163.326617","Mapping"
"Mixed","Both","ball","9","m160depth.wav","None","731.946526561","188","339404.50892","331687.528541","332454.145132","333220.492124","333987.216307","334754.641695","335521.213765","336270.6462","340154.111401","340920.516517","341687.472271","327871.111568","328638.112461","329404.809437","330171.342551","330920.851352","340929.511912","Mapping"
"Mixed","Both","ball","9","m150ball.wav","None","729.5049862","188","339404.50892","331687.528541","332454.145132","333220.492124","333987.216307","334754.641695","335521.213765","336270.6462","340154.111401","340920.516517","341687.472271","342454.002294","328638.112461","329404.809437","330171.342551","330920.851352","341696.722424","Mapping"
"Mixed","Both","ball","9","m160cave.wav","space","519.022344612","188","339404.50892","331687.528541","332454.145132","333220.492124","333987.216307","334754.641695","335521.213765","336270.6462","340154.111401","340920.516517","341687.472271","342454.002294","343221.340495","329404.809437","330171.342551","330920.851352","342463.399613","Mapping"
"Mixed","Both","ball","9","m160park.wav","None","723.114685155","188","339404.50892","331687.528541","332454.145132","333220.492124","333987.216307","334754.641695","335521.213765","336270.6462","340154.111401","340920.516517","341687.472271","342454.002294","343221.340495","343987.299784","330171.342551","330920.851352","343231.217342","Mapping"
"Mixed","Both","ball","9","m160ball.wav","None","722.846013494","188","339404.50892","331687.528541","332454.145132","333220.492124","333987.216307","334754.641695","335521.213765","336270.6462","340154.111401","340920.516517","341687.472271","342454.002294","343221.340495","343987.299784","344753.815584","330920.851352","343996.077829","Mapping"
"Mixed","Both","ball","9","m150reek.wav","space","435.49704086","188","339404.50892","331687.528541","332454.145132","333220.492124","333987.216307","334754.641695","335521.213765","336270.6462","340154.111401","340920.516517","341687.472271","342454.002294","343221.340495","343987.299784","344753.815584","345503.972103","344762.880233","Mapping"
"Mixed","Both","ball","9","m150bluff.wav","None","733.961098827","188","339404.50892","346270.698451","332454.145132","333220.492124","333987.216307","334754.641695","335521.213765","336270.6462","340154.111401","340920.516517","341687.472271","342454.002294","343221.340495","343987.299784","344753.815584","345503.972103","345513.259357","Mapping"
"Mixed","Both","ball","9","m150dime.wav","None","732.143160887","188","339404.50892","346270.698451","347037.237439","333220.492124","333987.216307","334754.641695","335521.213765","336270.6462","340154.111401","340920.516517","341687.472271","342454.002294","343221.340495","343987.299784","344753.815584","345503.972103","346279.856779","Mapping"
"Mixed","Both","ball","9","m150tile.wav","None","729.915876873","188","339404.50892","346270.698451","347037.237439","347803.910918","333987.216307","334754.641695","335521.213765","336270.6462","340154.111401","340920.516517","341687.472271","342454.002294","343221.340495","343987.299784","344753.815584","345503.972103","347046.818407","Mapping"
"Mixed","Both","ball","9","m150ball.wav","None","728.221917525","188","339404.50892","346270.698451","347037.237439","347803.910918","348570.763717","334754.641695","335521.213765","336270.6462","340154.111401","340920.516517","341687.472271","342454.002294","343221.340495","343987.299784","344753.815584","345503.972103","347813.270208","Mapping"
"Mixed","Both","ball","9","m150bluff.wav","space","506.095813122","188","339404.50892","346270.698451","347037.237439","347803.910918","348570.763717","349337.635066","335521.213765","336270.6462","340154.111401","340920.516517","341687.472271","342454.002294","343221.340495","343987.299784","344753.815584","345503.972103","348580.20463","Mapping"
"Mixed","Both","ball","9","m160cad.wav","None","722.62402717","188","339404.50892","346270.698451","347037.237439","347803.910918","348570.763717","349337.635066","350104.231252","336270.6462","340154.111401","340920.516517","341687.472271","342454.002294","343221.340495","343987.299784","344753.815584","345503.972103","349347.146471","Mapping"
"Mixed","Both","ball","9","m160jolt.wav","None","720.359024126","188","339404.50892","346270.698451","347037.237439","347803.910918","348570.763717","349337.635066","350104.231252","350854.128375","340154.111401","340920.516517","341687.472271","342454.002294","343221.340495","343987.299784","344753.815584","345503.972103","350114.16746","Mapping"
"Mixed","Both","tile","31","m150romp.wav","None","736.133350059","188","353987.536301","346270.698451","347037.237439","347803.910918","348570.763717","349337.635066","350104.231252","350854.128375","340154.111401","340920.516517","341687.472271","342454.002294","343221.340495","343987.299784","344753.815584","345503.972103","350863.139537","Mapping"
"Mixed","Both","tile","31","m160tile.wav","None","720.315739978","188","353987.536301","346270.698451","347037.237439","347803.910918","348570.763717","349337.635066","350104.231252","350854.128375","354737.210201","340920.516517","341687.472271","342454.002294","343221.340495","343987.299784","344753.815584","345503.972103","353997.099028","Mapping"
"Mixed","Both","tile","31","m160lash.wav","None","735.685976688","188","353987.536301","346270.698451","347037.237439","347803.910918","348570.763717","349337.635066","350104.231252","350854.128375","354737.210201","355503.491339","341687.472271","342454.002294","343221.340495","343987.299784","344753.815584","345503.972103","354746.789005","Mapping"
"Mixed","Both","tile","31","m150tile.wav","space","86.0447566956","188","353987.536301","346270.698451","347037.237439","347803.910918","348570.763717","349337.635066","350104.231252","350854.128375","354737.210201","355503.491339","356270.557467","342454.002294","343221.340495","343987.299784","344753.815584","345503.972103","355512.137367","Mapping"
"Mixed","Both","tile","31","m160cave.wav","space","438.447480556","188","353987.536301","346270.698451","347037.237439","347803.910918","348570.763717","349337.635066","350104.231252","350854.128375","354737.210201","355503.491339","356270.557467","357036.782954","343221.340495","343987.299784","344753.815584","345503.972103","356279.734346","Mapping"
"Mixed","Both","tile","31","m150tile.wav","None","728.918793611","188","353987.536301","346270.698451","347037.237439","347803.910918","348570.763717","349337.635066","350104.231252","350854.128375","354737.210201","355503.491339","356270.557467","357036.782954","357803.450868","343987.299784","344753.815584","345503.972103","357045.688379","Mapping"
"Mixed","Both","tile","31","m150priest.wav","space","401.995651424","188","353987.536301","346270.698451","347037.237439","347803.910918","348570.763717","349337.635066","350104.231252","350854.128375","354737.210201","355503.491339","356270.557467","357036.782954","357803.450868","358570.884604","344753.815584","345503.972103","357812.130905","Mapping"
"Mixed","Both","tile","31","m160tile.wav","None","721.931169741","188","353987.536301","346270.698451","347037.237439","347803.910918","348570.763717","349337.635066","350104.231252","350854.128375","354737.210201","355503.491339","356270.557467","357036.782954","357803.450868","358570.884604","359336.98704","345503.972103","358580.792059","Mapping"
"Mixed","Both","tile","31","m160romp.wav","space","412.299466785","188","353987.536301","346270.698451","347037.237439","347803.910918","348570.763717","349337.635066","350104.231252","350854.128375","354737.210201","355503.491339","356270.557467","357036.782954","357803.450868","358570.884604","359336.98704","360086.670524","359345.80033","Mapping"
"Mixed","Both","tile","31","m150knife.wav","None","735.662479419","188","353987.536301","360853.348021","347037.237439","347803.910918","348570.763717","349337.635066","350104.231252","350854.128375","354737.210201","355503.491339","356270.557467","357036.782954","357803.450868","358570.884604","359336.98704","360086.670524","360095.389517","Mapping"
"Mixed","Both","tile","31","m150greet.wav","None","734.172882978","188","353987.536301","360853.348021","361619.977288","347803.910918","348570.763717","349337.635066","350104.231252","350854.128375","354737.210201","355503.491339","356270.557467","357036.782954","357803.450868","358570.884604","359336.98704","360086.670524","360862.031151","Mapping"
"Mixed","Both","tile","31","m150bluff.wav","None","732.227874454","188","353987.536301","360853.348021","361619.977288","362386.96767","348570.763717","349337.635066","350104.231252","350854.128375","354737.210201","355503.491339","356270.557467","357036.782954","357803.450868","358570.884604","359336.98704","360086.670524","361628.819951","Mapping"
"Mixed","Both","tile","31","m150park.wav","None","729.986677878","188","353987.536301","360853.348021","361619.977288","362386.96767","363153.645477","349337.635066","350104.231252","350854.128375","354737.210201","355503.491339","356270.557467","357036.782954","357803.450868","358570.884604","359336.98704","360086.670524","362396.018406","Mapping"
"Mixed","Both","tile","31","m160cave.wav","None","728.053108323","188","353987.536301","360853.348021","361619.977288","362386.96767","363153.645477","363920.43706","350104.231252","350854.128375","354737.210201","355503.491339","356270.557467","357036.782954","357803.450868","358570.884604","359336.98704","360086.670524","363162.93304","Mapping"
"Mixed","Both","tile","31","m160romp.wav","None","726.281855255","188","353987.536301","360853.348021","361619.977288","362386.96767","363153.645477","363920.43706","364686.96028","350854.128375","354737.210201","355503.491339","356270.557467","357036.782954","357803.450868","358570.884604","359336.98704","360086.670524","363930.142934","Mapping"
"Mixed","Both","tile","31","m160priest.wav","None","725.604456849","188","353987.536301","360853.348021","361619.977288","362386.96767","363153.645477","363920.43706","364686.96028","365454.009096","354737.210201","355503.491339","356270.557467","357036.782954","357803.450868","358570.884604","359336.98704","360086.670524","364695.954129","Mapping"
"Mixed","Both","ball","3","m150done.wav","None","722.910321318","188","368570.594599","360853.348021","361619.977288","362386.96767","363153.645477","363920.43706","364686.96028","365454.009096","354737.210201","355503.491339","356270.557467","357036.782954","357803.450868","358570.884604","359336.98704","360086.670524","365463.480616","Mapping"
"Mixed","Both","ball","3","m160jaw.wav","None","720.226079691","188","368570.594599","360853.348021","361619.977288","362386.96767","363153.645477","363920.43706","364686.96028","365454.009096","369319.664065","355503.491339","356270.557467","357036.782954","357803.450868","358570.884604","359336.98704","360086.670524","368579.941523","Mapping"
"Mixed","Both","ball","3","m160lash.wav","None","736.401094124","188","368570.594599","360853.348021","361619.977288","362386.96767","363153.645477","363920.43706","364686.96028","365454.009096","369319.664065","370086.579008","356270.557467","357036.782954","357803.450868","358570.884604","359336.98704","360086.670524","369328.605045","Mapping"
"Mixed","Both","ball","3","m160jolt.wav","None","734.511427581","188","368570.594599","360853.348021","361619.977288","362386.96767","363153.645477","363920.43706","364686.96028","365454.009096","369319.664065","370086.579008","370853.297317","357036.782954","357803.450868","358570.884604","359336.98704","360086.670524","370095.420743","Mapping"
"Mixed","Both","ball","3","m150romp.wav","None","732.48170549","188","368570.594599","360853.348021","361619.977288","362386.96767","363153.645477","363920.43706","364686.96028","365454.009096","369319.664065","370086.579008","370853.297317","371620.253689","357803.450868","358570.884604","359336.98704","360086.670524","370862.067015","Mapping"
"Mixed","Both","ball","3","m160cling.wav","None","730.153940618","188","368570.594599","360853.348021","361619.977288","362386.96767","363153.645477","363920.43706","364686.96028","365454.009096","369319.664065","370086.579008","370853.297317","371620.253689","372386.921912","358570.884604","359336.98704","360086.670524","371629.337507","Mapping"
"Mixed","Both","ball","3","m150ball.wav","None","732.26219276","188","368570.594599","360853.348021","361619.977288","362386.96767","363153.645477","363920.43706","364686.96028","365454.009096","369319.664065","370086.579008","370853.297317","371620.253689","372386.921912","373153.236132","359336.98704","360086.670524","372395.6879","Mapping"
"Mixed","Both","ball","3","m150cling.wav","space","507.816362195","188","368570.594599","360853.348021","361619.977288","362386.96767","363153.645477","363920.43706","364686.96028","365454.009096","369319.664065","370086.579008","370853.297317","371620.253689","372386.921912","373153.236132","373920.296077","360086.670524","373162.052514","Mapping"
"Mixed","Both","ball","3","m150ball.wav","None","727.068082429","188","368570.594599","360853.348021","361619.977288","362386.96767","363153.645477","363920.43706","364686.96028","365454.009096","369319.664065","370086.579008","370853.297317","371620.253689","372386.921912","373153.236132","373920.296077","374686.798274","373929.751212","Mapping"
"Mixed","Both","ball","3","m150jolt.wav","space","478.027215227","188","368570.594599","375453.887899","361619.977288","362386.96767","363153.645477","363920.43706","364686.96028","365454.009096","369319.664065","370086.579008","370853.297317","371620.253689","372386.921912","373153.236132","373920.296077","374686.798274","374695.835097","Mapping"
"Mixed","Both","ball","3","m150knife.wav","None","721.45071486","188","368570.594599","375453.887899","376220.761413","362386.96767","363153.645477","363920.43706","364686.96028","365454.009096","369319.664065","370086.579008","370853.297317","371620.253689","372386.921912","373153.236132","373920.296077","374686.798274","375463.944067","Mapping"
"Mixed","Both","ball","3","m160depth.wav","None","720.012132078","188","368570.594599","375453.887899","376220.761413","376970.142217","363153.645477","363920.43706","364686.96028","365454.009096","369319.664065","370086.579008","370853.297317","371620.253689","372386.921912","373153.236132","373920.296077","374686.798274","376230.302189","Mapping"
"Mixed","Both","ball","3","m160ball.wav","None","735.883538146","188","368570.594599","375453.887899","376220.761413","376970.142217","377736.721398","363920.43706","364686.96028","365454.009096","369319.664065","370086.579008","370853.297317","371620.253689","372386.921912","373153.236132","373920.296077","374686.798274","376979.334863","Mapping"
"Mixed","Both","ball","3","m160cad.wav","space","484.061967116","188","368570.594599","375453.887899","376220.761413","376970.142217","377736.721398","378503.377872","364686.96028","365454.009096","369319.664065","370086.579008","370853.297317","371620.253689","372386.921912","373153.236132","373920.296077","374686.798274","377745.719884","Mapping"
