"Condition","Talker","Target","Trial","current_stimulus","response_response","response_time_response","subject_nr","time_Audio1","time_Audio10","time_Audio11","time_Audio12","time_Audio13","time_Audio14","time_Audio15","time_Audio16","time_Audio2","time_Audio3","time_Audio4","time_Audio5","time_Audio6","time_Audio7","time_Audio8","time_Audio9","time_response","title"
"Blocked","m160","done","24","m160depth.wav","NA","NA","114","85952.7337643","NA","NA","NA","NA","NA","NA","NA","NA","NA","NA","NA","NA","NA","NA","NA","NA","Mapping"
"Blocked","m160","done","24","m160reek.wav","None","715.347992547","114","85952.7337643","NA","NA","NA","NA","NA","NA","NA","86702.2464285","NA","NA","NA","NA","NA","NA","NA","85967.8486704","Mapping"
"Blocked","m160","done","24","m160ball.wav","None","736.35544884","114","85952.7337643","NA","NA","NA","NA","NA","NA","NA","86702.2464285","87468.8759015","NA","NA","NA","NA","NA","NA","86711.1308571","Mapping"
"Blocked","m160","done","24","m160done.wav","None","732.880640542","114","85952.7337643","NA","NA","NA","NA","NA","NA","NA","86702.2464285","87468.8759015","88235.4150957","NA","NA","NA","NA","NA","87478.7178424","Mapping"
"Blocked","m160","done","24","m160greet.wav","space","582.608088036","114","85952.7337643","NA","NA","NA","NA","NA","NA","NA","86702.2464285","87468.8759015","88235.4150957","89002.5346098","NA","NA","NA","NA","88244.5879837","Mapping"
"Blocked","m160","done","24","m160priest.wav","None","727.528526739","114","85952.7337643","NA","NA","NA","NA","NA","NA","NA","86702.2464285","87468.8759015","88235.4150957","89002.5346098","89769.1220351","NA","NA","NA","89012.1406508","Mapping"
"Blocked","m160","done","24","m160done.wav","None","725.350703986","114","85952.7337643","NA","NA","NA","NA","NA","NA","NA","86702.2464285","87468.8759015","88235.4150957","89002.5346098","89769.1220351","90535.8717768","NA","NA","89778.6211018","Mapping"
"Blocked","m160","done","24","m160ball.wav","space","441.358164942","114","85952.7337643","NA","NA","NA","NA","NA","NA","NA","86702.2464285","87468.8759015","88235.4150957","89002.5346098","89769.1220351","90535.8717768","91302.3339866","NA","90545.8308947","Mapping"
"Blocked","m160","done","24","m160park.wav","None","720.338990912","114","85952.7337643","NA","NA","NA","NA","NA","NA","NA","86702.2464285","87468.8759015","88235.4150957","89002.5346098","89769.1220351","90535.8717768","91302.3339866","92052.4347001","91311.8033727","Mapping"
"Blocked","m160","done","24","m160jolt.wav","None","734.229876543","114","85952.7337643","92819.1164235","NA","NA","NA","NA","NA","NA","86702.2464285","87468.8759015","88235.4150957","89002.5346098","89769.1220351","90535.8717768","91302.3339866","92052.4347001","92062.0308475","Mapping"
"Blocked","m160","done","24","m160ball.wav","None","731.8974667","114","85952.7337643","92819.1164235","93585.9020295","NA","NA","NA","NA","NA","86702.2464285","87468.8759015","88235.4150957","89002.5346098","89769.1220351","90535.8717768","91302.3339866","92052.4347001","92828.5892105","Mapping"
"Blocked","m160","done","24","m160done.wav","None","728.910535167","114","85952.7337643","92819.1164235","93585.9020295","94352.3289934","NA","NA","NA","NA","86702.2464285","87468.8759015","88235.4150957","89002.5346098","89769.1220351","90535.8717768","91302.3339866","92052.4347001","93595.5399155","Mapping"
"Blocked","m160","done","24","m160cad.wav","space","458.032545517","114","85952.7337643","92819.1164235","93585.9020295","94352.3289934","95119.6182441","NA","NA","NA","86702.2464285","87468.8759015","88235.4150957","89002.5346098","89769.1220351","90535.8717768","91302.3339866","92052.4347001","94361.103356","Mapping"
"Blocked","m160","done","24","m160cad.wav","None","723.276763747","114","85952.7337643","92819.1164235","93585.9020295","94352.3289934","95119.6182441","95886.2628667","NA","NA","86702.2464285","87468.8759015","88235.4150957","89002.5346098","89769.1220351","90535.8717768","91302.3339866","92052.4347001","95129.4638951","Mapping"
"Blocked","m160","done","24","m160done.wav","None","721.123674884","114","85952.7337643","92819.1164235","93585.9020295","94352.3289934","95119.6182441","95886.2628667","96652.8614223","NA","86702.2464285","87468.8759015","88235.4150957","89002.5346098","89769.1220351","90535.8717768","91302.3339866","92052.4347001","95895.9622783","Mapping"
"Blocked","m160","done","24","m160ball.wav","space","596.225972928","114","85952.7337643","92819.1164235","93585.9020295","94352.3289934","95119.6182441","95886.2628667","96652.8614223","97402.096139","86702.2464285","87468.8759015","88235.4150957","89002.5346098","89769.1220351","90535.8717768","91302.3339866","92052.4347001","96662.8520759","Mapping"
"Blocked","m160","tile","17","m160bluff.wav","None","735.341357649","114","100586.097737","92819.1164235","93585.9020295","94352.3289934","95119.6182441","95886.2628667","96652.8614223","97402.096139","86702.2464285","87468.8759015","88235.4150957","89002.5346098","89769.1220351","90535.8717768","91302.3339866","92052.4347001","97410.7873336","Mapping"
"Blocked","m160","tile","17","m160ball.wav","None","721.183345537","114","100586.097737","92819.1164235","93585.9020295","94352.3289934","95119.6182441","95886.2628667","96652.8614223","97402.096139","101352.851498","87468.8759015","88235.4150957","89002.5346098","89769.1220351","90535.8717768","91302.3339866","92052.4347001","100595.977706","Mapping"
"Blocked","m160","tile","17","m160tile.wav","None","725.012158277","114","100586.097737","92819.1164235","93585.9020295","94352.3289934","95119.6182441","95886.2628667","96652.8614223","97402.096139","101352.851498","102102.291506","88235.4150957","89002.5346098","89769.1220351","90535.8717768","91302.3339866","92052.4347001","101356.954239","Mapping"
"Blocked","m160","tile","17","m160cad.wav","space","475.516962411","114","100586.097737","92819.1164235","93585.9020295","94352.3289934","95119.6182441","95886.2628667","96652.8614223","97402.096139","101352.851498","102102.291506","102869.612911","89002.5346098","89769.1220351","90535.8717768","91302.3339866","92052.4347001","102111.540451","Mapping"
"Blocked","m160","tile","17","m160romp.wav","None","731.472661428","114","100586.097737","92819.1164235","93585.9020295","94352.3289934","95119.6182441","95886.2628667","96652.8614223","97402.096139","101352.851498","102102.291506","102869.612911","103635.701947","89769.1220351","90535.8717768","91302.3339866","92052.4347001","102879.352206","Mapping"
"Blocked","m160","tile","17","m160lash.wav","None","730.136410741","114","100586.097737","92819.1164235","93585.9020295","94352.3289934","95119.6182441","95886.2628667","96652.8614223","97402.096139","101352.851498","102102.291506","102869.612911","103635.701947","104402.32802","90535.8717768","91302.3339866","92052.4347001","103645.011181","Mapping"
"Blocked","m160","tile","17","m160tile.wav","None","727.577376238","114","100586.097737","92819.1164235","93585.9020295","94352.3289934","95119.6182441","95886.2628667","96652.8614223","97402.096139","101352.851498","102102.291506","102869.612911","103635.701947","104402.32802","105169.156292","91302.3339866","92052.4347001","104411.885211","Mapping"
"Blocked","m160","tile","17","m160reek.wav","space","512.534693233","114","100586.097737","92819.1164235","93585.9020295","94352.3289934","95119.6182441","95886.2628667","96652.8614223","97402.096139","101352.851498","102102.291506","102869.612911","103635.701947","104402.32802","105169.156292","105936.141933","92052.4347001","105178.463361","Mapping"
"Blocked","m160","tile","17","m160gnash.wav","None","721.678642498","114","100586.097737","92819.1164235","93585.9020295","94352.3289934","95119.6182441","95886.2628667","96652.8614223","97402.096139","101352.851498","102102.291506","102869.612911","103635.701947","104402.32802","105169.156292","105936.141933","106702.658248","105946.458456","Mapping"
"Blocked","m160","tile","17","m160tile.wav","None","720.225523983","114","100586.097737","107451.900076","93585.9020295","94352.3289934","95119.6182441","95886.2628667","96652.8614223","97402.096139","101352.851498","102102.291506","102869.612911","103635.701947","104402.32802","105169.156292","105936.141933","106702.658248","106712.347148","Mapping"
"Blocked","m160","tile","17","m160park.wav","space","438.418537087","114","100586.097737","107451.900076","108219.111724","94352.3289934","95119.6182441","95886.2628667","96652.8614223","97402.096139","101352.851498","102102.291506","102869.612911","103635.701947","104402.32802","105169.156292","105936.141933","106702.658248","107460.549842","Mapping"
"Blocked","m160","tile","17","m160tile.wav","None","731.776270492","114","100586.097737","107451.900076","108219.111724","108985.60176","95119.6182441","95886.2628667","96652.8614223","97402.096139","101352.851498","102102.291506","102869.612911","103635.701947","104402.32802","105169.156292","105936.141933","106702.658248","108229.255728","Mapping"
"Blocked","m160","tile","17","m160knife.wav","None","730.79340579","114","100586.097737","107451.900076","108219.111724","108985.60176","109752.386129","95886.2628667","96652.8614223","97402.096139","101352.851498","102102.291506","102869.612911","103635.701947","104402.32802","105169.156292","105936.141933","106702.658248","108994.967263","Mapping"
"Blocked","m160","tile","17","m160cad.wav","space","41.100684728","114","100586.097737","107451.900076","108219.111724","108985.60176","109752.386129","110519.114538","96652.8614223","97402.096139","101352.851498","102102.291506","102869.612911","103635.701947","104402.32802","105169.156292","105936.141933","106702.658248","109761.855206","Mapping"
"Blocked","m160","tile","17","m160priest.wav","None","725.557850616","114","100586.097737","107451.900076","108219.111724","108985.60176","109752.386129","110519.114538","111285.707528","97402.096139","101352.851498","102102.291506","102869.612911","103635.701947","104402.32802","105169.156292","105936.141933","106702.658248","110528.780249","Mapping"
"Blocked","m160","tile","17","m160park.wav","None","724.283125601","114","100586.097737","107451.900076","108219.111724","108985.60176","109752.386129","110519.114538","111285.707528","112052.758096","101352.851498","102102.291506","102869.612911","103635.701947","104402.32802","105169.156292","105936.141933","106702.658248","111294.51188","Mapping"
"Blocked","m160","tile","13","m160done.wav","None","720.405772503","114","115169.419708","107451.900076","108219.111724","108985.60176","109752.386129","110519.114538","111285.707528","112052.758096","101352.851498","102102.291506","102869.612911","103635.701947","104402.32802","105169.156292","105936.141933","106702.658248","112062.735455","Mapping"
"Blocked","m160","tile","13","m160reek.wav","None","720.918383275","114","115169.419708","107451.900076","108219.111724","108985.60176","109752.386129","110519.114538","111285.707528","112052.758096","115919.216194","102102.291506","102869.612911","103635.701947","104402.32802","105169.156292","105936.141933","106702.658248","115178.850756","Mapping"
"Blocked","m160","tile","13","m160tile.wav","None","735.11596967","114","115169.419708","107451.900076","108219.111724","108985.60176","109752.386129","110519.114538","111285.707528","112052.758096","115919.216194","116685.281424","102869.612911","103635.701947","104402.32802","105169.156292","105936.141933","106702.658248","115929.024126","Mapping"
"Blocked","m160","tile","13","m160done.wav","space","508.328069642","114","115169.419708","107451.900076","108219.111724","108985.60176","109752.386129","110519.114538","111285.707528","112052.758096","115919.216194","116685.281424","117451.834222","103635.701947","104402.32802","105169.156292","105936.141933","106702.658248","116694.474718","Mapping"
"Blocked","m160","tile","13","m160tile.wav","None","732.117598702","114","115169.419708","107451.900076","108219.111724","108985.60176","109752.386129","110519.114538","111285.707528","112052.758096","115919.216194","116685.281424","117451.834222","118219.108942","104402.32802","105169.156292","105936.141933","106702.658248","117460.60271","Mapping"
"Blocked","m160","tile","13","m160done.wav","space","614.168895059","114","115169.419708","107451.900076","108219.111724","108985.60176","109752.386129","110519.114538","111285.707528","112052.758096","115919.216194","116685.281424","117451.834222","118219.108942","118985.535905","105169.156292","105936.141933","106702.658248","118228.62594","Mapping"
"Blocked","m160","tile","13","m160reek.wav","None","726.187638415","114","115169.419708","107451.900076","108219.111724","108985.60176","109752.386129","110519.114538","111285.707528","112052.758096","115919.216194","116685.281424","117451.834222","118219.108942","118985.535905","119752.592039","105936.141933","106702.658248","118995.034663","Mapping"
"Blocked","m160","tile","13","m160tile.wav","None","723.072708759","114","115169.419708","107451.900076","108219.111724","108985.60176","109752.386129","110519.114538","111285.707528","112052.758096","115919.216194","116685.281424","117451.834222","118219.108942","118985.535905","119752.592039","120519.100934","106702.658248","119762.56507","Mapping"
"Blocked","m160","tile","13","m160dime.wav","space","466.09024232","114","115169.419708","107451.900076","108219.111724","108985.60176","109752.386129","110519.114538","111285.707528","112052.758096","115919.216194","116685.281424","117451.834222","118219.108942","118985.535905","119752.592039","120519.100934","121269.101784","120528.662763","Mapping"
"Blocked","m160","tile","13","m160tile.wav","None","735.647749272","114","115169.419708","122035.32593","108219.111724","108985.60176","109752.386129","110519.114538","111285.707528","112052.758096","115919.216194","116685.281424","117451.834222","118219.108942","118985.535905","119752.592039","120519.100934","121269.101784","121278.5452","Mapping"
"Blocked","m160","tile","13","m160jolt.wav","space","518.004911544","114","115169.419708","122035.32593","122802.084019","108985.60176","109752.386129","110519.114538","111285.707528","112052.758096","115919.216194","116685.281424","117451.834222","118219.108942","118985.535905","119752.592039","120519.100934","121269.101784","122044.746776","Mapping"
"Blocked","m160","tile","13","m160lash.wav","None","730.520095851","114","115169.419708","122035.32593","122802.084019","123568.880137","109752.386129","110519.114538","111285.707528","112052.758096","115919.216194","116685.281424","117451.834222","118219.108942","118985.535905","119752.592039","120519.100934","121269.101784","122812.190304","Mapping"
"Blocked","m160","tile","13","m160bluff.wav","None","728.351239115","114","115169.419708","122035.32593","122802.084019","123568.880137","124335.491678","110519.114538","111285.707528","112052.758096","115919.216194","116685.281424","117451.834222","118219.108942","118985.535905","119752.592039","120519.100934","121269.101784","123578.700436","Mapping"
"Blocked","m160","tile","13","m160lash.wav","None","727.026737062","114","115169.419708","122035.32593","122802.084019","123568.880137","124335.491678","125101.913386","111285.707528","112052.758096","115919.216194","116685.281424","117451.834222","118219.108942","118985.535905","119752.592039","120519.100934","121269.101784","124344.429285","Mapping"
"Blocked","m160","tile","13","m160done.wav","None","725.0458583","114","115169.419708","122035.32593","122802.084019","123568.880137","124335.491678","125101.913386","125868.832555","112052.758096","115919.216194","116685.281424","117451.834222","118219.108942","118985.535905","119752.592039","120519.100934","121269.101784","125110.841099","Mapping"
"Blocked","m160","tile","13","m160ball.wav","None","722.144877131","114","115169.419708","122035.32593","122802.084019","123568.880137","124335.491678","125101.913386","125868.832555","126635.779241","115919.216194","116685.281424","117451.834222","118219.108942","118985.535905","119752.592039","120519.100934","121269.101784","125878.17889","Mapping"
"Blocked","m160","cave","12","m160done.wav","None","719.170621771","114","129752.289667","122035.32593","122802.084019","123568.880137","124335.491678","125101.913386","125868.832555","126635.779241","115919.216194","116685.281424","117451.834222","118219.108942","118985.535905","119752.592039","120519.100934","121269.101784","126645.57697","Mapping"
"Blocked","m160","cave","12","m160cave.wav","None","720.3188946","114","129752.289667","122035.32593","122802.084019","123568.880137","124335.491678","125101.913386","125868.832555","126635.779241","130501.47708","116685.281424","117451.834222","118219.108942","118985.535905","119752.592039","120519.100934","121269.101784","129762.132226","Mapping"
"Blocked","m160","cave","12","m160dime.wav","space","508.30797333","114","129752.289667","122035.32593","122802.084019","123568.880137","124335.491678","125101.913386","125868.832555","126635.779241","130501.47708","131268.777151","117451.834222","118219.108942","118985.535905","119752.592039","120519.100934","121269.101784","130510.316369","Mapping"
"Blocked","m160","cave","12","m160ball.wav","None","732.475004042","114","129752.289667","122035.32593","122802.084019","123568.880137","124335.491678","125101.913386","125868.832555","126635.779241","130501.47708","131268.777151","132035.204734","118219.108942","118985.535905","119752.592039","120519.100934","121269.101784","131278.302807","Mapping"
"Blocked","m160","cave","12","m160tile.wav","None","730.574510526","114","129752.289667","122035.32593","122802.084019","123568.880137","124335.491678","125101.913386","125868.832555","126635.779241","130501.47708","131268.777151","132035.204734","132801.946746","118985.535905","119752.592039","120519.100934","121269.101784","132044.564363","Mapping"
"Blocked","m160","cave","12","m160romp.wav","None","720.285503776","114","129752.289667","122035.32593","122802.084019","123568.880137","124335.491678","125101.913386","125868.832555","126635.779241","130501.47708","131268.777151","132035.204734","132801.946746","133568.719985","119752.592039","120519.100934","121269.101784","132819.284923","Mapping"
"Blocked","m160","cave","12","m160cling.wav","None","725.561251573","114","129752.289667","122035.32593","122802.084019","123568.880137","124335.491678","125101.913386","125868.832555","126635.779241","130501.47708","131268.777151","132035.204734","132801.946746","133568.719985","134335.742728","120519.100934","121269.101784","133578.549559","Mapping"
"Blocked","m160","cave","12","m160gnash.wav","None","722.860615293","114","129752.289667","122035.32593","122802.084019","123568.880137","124335.491678","125101.913386","125868.832555","126635.779241","130501.47708","131268.777151","132035.204734","132801.946746","133568.719985","134335.742728","135102.216377","121269.101784","134345.453269","Mapping"
"Blocked","m160","cave","12","m160cave.wav","None","720.508109196","114","129752.289667","122035.32593","122802.084019","123568.880137","124335.491678","125101.913386","125868.832555","126635.779241","130501.47708","131268.777151","132035.204734","132801.946746","133568.719985","134335.742728","135102.216377","135852.084282","135112.470756","Mapping"
"Blocked","m160","cave","12","m160done.wav","space","492.670872016","114","129752.289667","136618.31152","122802.084019","123568.880137","124335.491678","125101.913386","125868.832555","126635.779241","130501.47708","131268.777151","132035.204734","132801.946746","133568.719985","134335.742728","135102.216377","135852.084282","135861.861296","Mapping"
"Blocked","m160","cave","12","m160knife.wav","None","733.534543891","114","129752.289667","136618.31152","137385.073319","123568.880137","124335.491678","125101.913386","125868.832555","126635.779241","130501.47708","131268.777151","132035.204734","132801.946746","133568.719985","134335.742728","135102.216377","135852.084282","136627.702375","Mapping"
"Blocked","m160","cave","12","m160jaw.wav","None","731.249128527","114","129752.289667","136618.31152","137385.073319","138151.975793","124335.491678","125101.913386","125868.832555","126635.779241","130501.47708","131268.777151","132035.204734","132801.946746","133568.719985","134335.742728","135102.216377","135852.084282","137394.263212","Mapping"
"Blocked","m160","cave","12","m160cave.wav","None","728.816546267","114","129752.289667","136618.31152","137385.073319","138151.975793","138918.612068","125101.913386","125868.832555","126635.779241","130501.47708","131268.777151","132035.204734","132801.946746","133568.719985","134335.742728","135102.216377","135852.084282","138161.858854","Mapping"
"Blocked","m160","cave","12","m160lash.wav","space","551.711696375","114","129752.289667","136618.31152","137385.073319","138151.975793","138918.612068","139684.969158","125868.832555","126635.779241","130501.47708","131268.777151","132035.204734","132801.946746","133568.719985","134335.742728","135102.216377","135852.084282","138922.760257","Mapping"
"Blocked","m160","cave","12","m160cave.wav","None","725.749538629","114","129752.289667","136618.31152","137385.073319","138151.975793","138918.612068","139684.969158","140452.025292","126635.779241","130501.47708","131268.777151","132035.204734","132801.946746","133568.719985","134335.742728","135102.216377","135852.084282","139694.130916","Mapping"
"Blocked","m160","cave","12","m160dime.wav","space","557.051134005","114","129752.289667","136618.31152","137385.073319","138151.975793","138918.612068","139684.969158","140452.025292","141218.543462","130501.47708","131268.777151","132035.204734","132801.946746","133568.719985","134335.742728","135102.216377","135852.084282","140461.393887","Mapping"
"Blocked","m160","cave","8","m160done.wav","None","720.828413556","114","144335.51332","136618.31152","137385.073319","138151.975793","138918.612068","139684.969158","140452.025292","141218.543462","130501.47708","131268.777151","132035.204734","132801.946746","133568.719985","134335.742728","135102.216377","135852.084282","141227.76118","Mapping"
"Blocked","m160","cave","8","m160cave.wav","None","720.790694351","114","144335.51332","136618.31152","137385.073319","138151.975793","138918.612068","139684.969158","140452.025292","141218.543462","145085.024439","131268.777151","132035.204734","132801.946746","133568.719985","134335.742728","135102.216377","135852.084282","144345.413386","Mapping"
"Blocked","m160","cave","8","m160jolt.wav","space","588.134266902","114","144335.51332","136618.31152","137385.073319","138151.975793","138918.612068","139684.969158","140452.025292","141218.543462","145085.024439","145851.771089","132035.204734","132801.946746","133568.719985","134335.742728","135102.216377","135852.084282","145094.256997","Mapping"
"Blocked","m160","cave","8","m160cave.wav","None","732.976793719","114","144335.51332","136618.31152","137385.073319","138151.975793","138918.612068","139684.969158","140452.025292","141218.543462","145085.024439","145851.771089","146618.288641","132801.946746","133568.719985","134335.742728","135102.216377","135852.084282","145861.513166","Mapping"
"Blocked","m160","cave","8","m160romp.wav","space","478.440513194","114","144335.51332","136618.31152","137385.073319","138151.975793","138918.612068","139684.969158","140452.025292","141218.543462","145085.024439","145851.771089","146618.288641","147385.104546","133568.719985","134335.742728","135102.216377","135852.084282","146627.906121","Mapping"
"Blocked","m160","cave","8","m160cad.wav","None","728.149039263","114","144335.51332","136618.31152","137385.073319","138151.975793","138918.612068","139684.969158","140452.025292","141218.543462","145085.024439","145851.771089","146618.288641","147385.104546","148151.768028","134335.742728","135102.216377","135852.084282","147394.517662","Mapping"
"Blocked","m160","cave","8","m160jolt.wav","None","726.264004421","114","144335.51332","136618.31152","137385.073319","138151.975793","138918.612068","139684.969158","140452.025292","141218.543462","145085.024439","145851.771089","146618.288641","147385.104546","148151.768028","148918.332884","135102.216377","135852.084282","148161.233085","Mapping"
"Blocked","m160","cave","8","m160ball.wav","None","724.717206147","114","144335.51332","136618.31152","137385.073319","138151.975793","138918.612068","139684.969158","140452.025292","141218.543462","145085.024439","145851.771089","146618.288641","147385.104546","148151.768028","148918.332884","149685.965317","135852.084282","148927.735179","Mapping"
"Blocked","m160","cave","8","m160cad.wav","None","721.273933537","114","144335.51332","136618.31152","137385.073319","138151.975793","138918.612068","139684.969158","140452.025292","141218.543462","145085.024439","145851.771089","146618.288641","147385.104546","148151.768028","148918.332884","149685.965317","150452.158855","149695.689772","Mapping"
"Blocked","m160","cave","8","m160depth.wav","None","718.65213674","114","144335.51332","151201.626689","137385.073319","138151.975793","138918.612068","139684.969158","140452.025292","141218.543462","145085.024439","145851.771089","146618.288641","147385.104546","148151.768028","148918.332884","149685.965317","150452.158855","150462.682834","Mapping"
"Blocked","m160","cave","8","m160cad.wav","None","734.479689272","114","144335.51332","151201.626689","151968.180723","138151.975793","138918.612068","139684.969158","140452.025292","141218.543462","145085.024439","145851.771089","146618.288641","147385.104546","148151.768028","148918.332884","149685.965317","150452.158855","151211.21387","Mapping"
"Blocked","m160","cave","8","m160cave.wav","None","732.43790312","114","144335.51332","151201.626689","151968.180723","152735.072376","138918.612068","139684.969158","140452.025292","141218.543462","145085.024439","145851.771089","146618.288641","147385.104546","148151.768028","148918.332884","149685.965317","150452.158855","151977.594458","Mapping"
"Blocked","m160","cave","8","m160cad.wav","space","609.347324062","114","144335.51332","151201.626689","151968.180723","152735.072376","153501.659492","139684.969158","140452.025292","141218.543462","145085.024439","145851.771089","146618.288641","147385.104546","148151.768028","148918.332884","149685.965317","150452.158855","152744.871033","Mapping"
"Blocked","m160","cave","8","m160cave.wav","None","727.351369918","114","144335.51332","151201.626689","151968.180723","152735.072376","153501.659492","154268.278453","140452.025292","141218.543462","145085.024439","145851.771089","146618.288641","147385.104546","148151.768028","148918.332884","149685.965317","150452.158855","153511.178655","Mapping"
"Blocked","m160","cave","8","m160jolt.wav","None","725.064717873","114","144335.51332","151201.626689","151968.180723","152735.072376","153501.659492","154268.278453","155036.184816","141218.543462","145085.024439","145851.771089","146618.288641","147385.104546","148151.768028","148918.332884","149685.965317","150452.158855","154278.031661","Mapping"
"Blocked","m160","cave","8","m160romp.wav","space","4.47313167388","114","144335.51332","151201.626689","151968.180723","152735.072376","153501.659492","154268.278453","155036.184816","155802.152965","145085.024439","145851.771089","146618.288641","147385.104546","148151.768028","148918.332884","149685.965317","150452.158855","155045.770142","Mapping"
"Blocked","m160","ball","2","m160done.wav","None","719.349015271","114","158918.755215","151201.626689","151968.180723","152735.072376","153501.659492","154268.278453","155036.184816","155802.152965","145085.024439","145851.771089","146618.288641","147385.104546","148151.768028","148918.332884","149685.965317","150452.158855","155812.029843","Mapping"
"Blocked","m160","ball","2","m160ball.wav","None","720.991039241","114","158918.755215","151201.626689","151968.180723","152735.072376","153501.659492","154268.278453","155036.184816","155802.152965","159685.404166","145851.771089","146618.288641","147385.104546","148151.768028","148918.332884","149685.965317","150452.158855","158928.600248","Mapping"
"Blocked","m160","ball","2","m160gnash.wav","space","610.562687682","114","158918.755215","151201.626689","151968.180723","152735.072376","153501.659492","154268.278453","155036.184816","155802.152965","159685.404166","160451.963148","146618.288641","147385.104546","148151.768028","148918.332884","149685.965317","150452.158855","159695.561774","Mapping"
"Blocked","m160","ball","2","m160romp.wav","None","718.459212047","114","158918.755215","151201.626689","151968.180723","152735.072376","153501.659492","154268.278453","155036.184816","155802.152965","159685.404166","160451.963148","161201.266501","147385.104546","148151.768028","148918.332884","149685.965317","150452.158855","160461.661941","Mapping"
"Blocked","m160","ball","2","m160dime.wav","None","734.313353605","114","158918.755215","151201.626689","151968.180723","152735.072376","153501.659492","154268.278453","155036.184816","155802.152965","159685.404166","160451.963148","161201.266501","161968.175158","148151.768028","148918.332884","149685.965317","150452.158855","161210.344473","Mapping"
"Blocked","m160","ball","2","m160park.wav","None","731.598495331","114","158918.755215","151201.626689","151968.180723","152735.072376","153501.659492","154268.278453","155036.184816","155802.152965","159685.404166","160451.963148","161201.266501","161968.175158","162734.772168","148918.332884","149685.965317","150452.158855","161977.567869","Mapping"
"Blocked","m160","ball","2","m160greet.wav","None","729.3279203","114","158918.755215","151201.626689","151968.180723","152735.072376","153501.659492","154268.278453","155036.184816","155802.152965","159685.404166","160451.963148","161201.266501","161968.175158","162734.772168","163501.575706","149685.965317","150452.158855","162744.470034","Mapping"
"Blocked","m160","ball","2","m160ball.wav","None","727.276858932","114","158918.755215","151201.626689","151968.180723","152735.072376","153501.659492","154268.278453","155036.184816","155802.152965","159685.404166","160451.963148","161201.266501","161968.175158","162734.772168","163501.575706","164267.992776","150452.158855","163510.976146","Mapping"
"Blocked","m160","ball","2","m160bluff.wav","space","380.67222503","114","158918.755215","151201.626689","151968.180723","152735.072376","153501.659492","154268.278453","155036.184816","155802.152965","159685.404166","160451.963148","161201.266501","161968.175158","162734.772168","163501.575706","164267.992776","165035.286046","164277.404347","Mapping"
"Blocked","m160","ball","2","m160cling.wav","None","722.003275412","114","158918.755215","165801.708991","151968.180723","152735.072376","153501.659492","154268.278453","155036.184816","155802.152965","159685.404166","160451.963148","161201.266501","161968.175158","162734.772168","163501.575706","164267.992776","165035.286046","165044.692979","Mapping"
"Blocked","m160","ball","2","m160ball.wav","None","719.660353672","114","158918.755215","165801.708991","166551.364803","152735.072376","153501.659492","154268.278453","155036.184816","155802.152965","159685.404166","160451.963148","161201.266501","161968.175158","162734.772168","163501.575706","164267.992776","165035.286046","165811.586487","Mapping"
"Blocked","m160","ball","2","m160jaw.wav","space","561.149237445","114","158918.755215","165801.708991","166551.364803","167317.799496","153501.659492","154268.278453","155036.184816","155802.152965","159685.404166","160451.963148","161201.266501","161968.175158","162734.772168","163501.575706","164267.992776","165035.286046","166560.910555","Mapping"
"Blocked","m160","ball","2","m160bluff.wav","None","732.88806068","114","158918.755215","165801.708991","166551.364803","167317.799496","168084.793176","154268.278453","155036.184816","155802.152965","159685.404166","160451.963148","161201.266501","161968.175158","162734.772168","163501.575706","164267.992776","165035.286046","167326.992481","Mapping"
"Blocked","m160","ball","2","m160jaw.wav","None","730.280176736","114","158918.755215","165801.708991","166551.364803","167317.799496","168084.793176","168851.355559","155036.184816","155802.152965","159685.404166","160451.963148","161201.266501","161968.175158","162734.772168","163501.575706","164267.992776","165035.286046","168093.947823","Mapping"
"Blocked","m160","ball","2","m160ball.wav","None","728.06865396","114","158918.755215","165801.708991","166551.364803","167317.799496","168084.793176","168851.355559","169617.900936","155802.152965","159685.404166","160451.963148","161201.266501","161968.175158","162734.772168","163501.575706","164267.992776","165035.286046","168860.843495","Mapping"
"Blocked","m160","ball","2","m160romp.wav","space","382.528815826","114","158918.755215","165801.708991","166551.364803","167317.799496","168084.793176","168851.355559","169617.900936","170385.431652","159685.404166","160451.963148","161201.266501","161968.175158","162734.772168","163501.575706","164267.992776","165035.286046","169627.480388","Mapping"
"Blocked","m160","ball","6","m160bluff.wav","None","723.040863872","114","173501.784708","165801.708991","166551.364803","167317.799496","168084.793176","168851.355559","169617.900936","170385.431652","159685.404166","160451.963148","161201.266501","161968.175158","162734.772168","163501.575706","164267.992776","165035.286046","170394.881251","Mapping"
"Blocked","m160","ball","6","m160ball.wav","None","720.119168109","114","173501.784708","165801.708991","166551.364803","167317.799496","168084.793176","168851.355559","169617.900936","170385.431652","174251.192562","160451.963148","161201.266501","161968.175158","162734.772168","163501.575706","164267.992776","165035.286046","173511.698068","Mapping"
"Blocked","m160","ball","6","m160cad.wav","space","597.543054842","114","173501.784708","165801.708991","166551.364803","167317.799496","168084.793176","168851.355559","169617.900936","170385.431652","174251.192562","175018.193972","161201.266501","161968.175158","162734.772168","163501.575706","164267.992776","165035.286046","174260.424502","Mapping"
"Blocked","m160","ball","6","m160park.wav","None","732.226737193","114","173501.784708","165801.708991","166551.364803","167317.799496","168084.793176","168851.355559","169617.900936","170385.431652","174251.192562","175018.193972","175784.666693","161968.175158","162734.772168","163501.575706","164267.992776","165035.286046","175028.1231","Mapping"
"Blocked","m160","ball","6","m160reek.wav","None","731.238925771","114","173501.784708","165801.708991","166551.364803","167317.799496","168084.793176","168851.355559","169617.900936","170385.431652","174251.192562","175018.193972","175784.666693","176551.387991","162734.772168","163501.575706","164267.992776","165035.286046","175794.002516","Mapping"
"Blocked","m160","ball","6","m160cling.wav","None","729.05491956","114","173501.784708","165801.708991","166551.364803","167317.799496","168084.793176","168851.355559","169617.900936","170385.431652","174251.192562","175018.193972","175784.666693","176551.387991","177317.782182","163501.575706","164267.992776","165035.286046","176560.818421","Mapping"
"Blocked","m160","ball","6","m160ball.wav","None","727.724543132","114","173501.784708","165801.708991","166551.364803","167317.799496","168084.793176","168851.355559","169617.900936","170385.431652","174251.192562","175018.193972","175784.666693","176551.387991","177317.782182","178084.667343","164267.992776","165035.286046","177326.803884","Mapping"
"Blocked","m160","ball","6","m160depth.wav","space","444.075496634","114","173501.784708","165801.708991","166551.364803","167317.799496","168084.793176","168851.355559","169617.900936","170385.431652","174251.192562","175018.193972","175784.666693","176551.387991","177317.782182","178084.667343","178851.724094","165035.286046","178093.807149","Mapping"
"Blocked","m160","ball","6","m160done.wav","None","722.381086205","114","173501.784708","165801.708991","166551.364803","167317.799496","168084.793176","168851.355559","169617.900936","170385.431652","174251.192562","175018.193972","175784.666693","176551.387991","177317.782182","178084.667343","178851.724094","179617.868473","178861.364144","Mapping"
"Blocked","m160","ball","6","m160gnash.wav","None","721.624846221","114","173501.784708","180368.232603","166551.364803","167317.799496","168084.793176","168851.355559","169617.900936","170385.431652","174251.192562","175018.193972","175784.666693","176551.387991","177317.782182","178084.667343","178851.724094","179617.868473","179627.022811","Mapping"
"Blocked","m160","ball","6","m160dime.wav","None","735.867262876","114","173501.784708","180368.232603","181134.462623","167317.799496","168084.793176","168851.355559","169617.900936","170385.431652","174251.192562","175018.193972","175784.666693","176551.387991","177317.782182","178084.667343","178851.724094","179617.868473","180377.691477","Mapping"
"Blocked","m160","ball","6","m160ball.wav","None","734.513080097","114","173501.784708","180368.232603","181134.462623","181901.031498","168084.793176","168851.355559","169617.900936","170385.431652","174251.192562","175018.193972","175784.666693","176551.387991","177317.782182","178084.667343","178851.724094","179617.868473","181143.802156","Mapping"
"Blocked","m160","ball","6","m160tile.wav","space","475.560555933","114","173501.784708","180368.232603","181134.462623","181901.031498","182667.688487","168851.355559","169617.900936","170385.431652","174251.192562","175018.193972","175784.666693","176551.387991","177317.782182","178084.667343","178851.724094","179617.868473","181910.259728","Mapping"
"Blocked","m160","ball","6","m160ball.wav","None","731.103198312","114","173501.784708","180368.232603","181134.462623","181901.031498","182667.688487","183434.420606","169617.900936","170385.431652","174251.192562","175018.193972","175784.666693","176551.387991","177317.782182","178084.667343","178851.724094","179617.868473","182676.680199","Mapping"
"Blocked","m160","ball","6","m160reek.wav","space","462.430547865","114","173501.784708","180368.232603","181134.462623","181901.031498","182667.688487","183434.420606","184201.174676","170385.431652","174251.192562","175018.193972","175784.666693","176551.387991","177317.782182","178084.667343","178851.724094","179617.868473","183443.344609","Mapping"
"Blocked","m160","ball","6","m160cad.wav","None","725.830233074","114","173501.784708","180368.232603","181134.462623","181901.031498","182667.688487","183434.420606","184201.174676","184967.661311","174251.192562","175018.193972","175784.666693","176551.387991","177317.782182","178084.667343","178851.724094","179617.868473","184210.717337","Mapping"
"Blocked","m160","ball","5","m160jolt.wav","None","724.429983355","114","188084.928904","180368.232603","181134.462623","181901.031498","182667.688487","183434.420606","184201.174676","184967.661311","174251.192562","175018.193972","175784.666693","176551.387991","177317.782182","178084.667343","178851.724094","179617.868473","184976.71022","Mapping"
"Blocked","m160","ball","5","m160knife.wav","None","720.77121638","114","188084.928904","180368.232603","181134.462623","181901.031498","182667.688487","183434.420606","184201.174676","184967.661311","188834.622744","175018.193972","175784.666693","176551.387991","177317.782182","178084.667343","178851.724094","179617.868473","188094.632953","Mapping"
"Blocked","m160","ball","5","m160ball.wav","None","736.426249787","114","188084.928904","180368.232603","181134.462623","181901.031498","182667.688487","183434.420606","184201.174676","184967.661311","188834.622744","189601.054346","175784.666693","176551.387991","177317.782182","178084.667343","178851.724094","179617.868473","188843.582611","Mapping"
"Blocked","m160","ball","5","m160jolt.wav","space","607.11941513","114","188084.928904","180368.232603","181134.462623","181901.031498","182667.688487","183434.420606","184201.174676","184967.661311","188834.622744","189601.054346","190367.794194","176551.387991","177317.782182","178084.667343","178851.724094","179617.868473","189610.597934","Mapping"
"Blocked","m160","ball","5","m160ball.wav","None","731.739169569","114","188084.928904","180368.232603","181134.462623","181901.031498","182667.688487","183434.420606","184201.174676","184967.661311","188834.622744","189601.054346","190367.794194","191134.419029","177317.782182","178084.667343","178851.724094","179617.868473","190377.151968","Mapping"
"Blocked","m160","ball","5","m160bluff.wav","None","729.528574331","114","188084.928904","180368.232603","181134.462623","181901.031498","182667.688487","183434.420606","184201.174676","184967.661311","188834.622744","189601.054346","190367.794194","191134.419029","191900.752932","178084.667343","178851.724094","179617.868473","191144.140701","Mapping"
"Blocked","m160","ball","5","m160greet.wav","None","730.428889452","114","188084.928904","180368.232603","181134.462623","181901.031498","182667.688487","183434.420606","184201.174676","184967.661311","188834.622744","189601.054346","190367.794194","191134.419029","191900.752932","192667.815558","178851.724094","179617.868473","191909.550173","Mapping"
"Blocked","m160","ball","5","m160romp.wav","None","727.476585482","114","188084.928904","180368.232603","181134.462623","181901.031498","182667.688487","183434.420606","184201.174676","184967.661311","188834.622744","189601.054346","190367.794194","191134.419029","191900.752932","192667.815558","193434.045887","179617.868473","192677.361928","Mapping"
"Blocked","m160","ball","5","m160done.wav","None","727.028282941","114","188084.928904","180368.232603","181134.462623","181901.031498","182667.688487","183434.420606","184201.174676","184967.661311","188834.622744","189601.054346","190367.794194","191134.419029","191900.752932","192667.815558","193434.045887","194201.098619","193442.899398","Mapping"
"Blocked","m160","ball","5","m160tile.wav","None","724.271376966","114","188084.928904","194968.022117","181134.462623","181901.031498","182667.688487","183434.420606","184201.174676","184967.661311","188834.622744","189601.054346","190367.794194","191134.419029","191900.752932","192667.815558","193434.045887","194201.098619","194210.420839","Mapping"
"Blocked","m160","ball","5","m160gnash.wav","None","721.588363696","114","188084.928904","194968.022117","195734.907896","181901.031498","182667.688487","183434.420606","184201.174676","184967.661311","188834.622744","189601.054346","190367.794194","191134.419029","191900.752932","192667.815558","193434.045887","194201.098619","194977.962994","Mapping"
"Blocked","m160","ball","5","m160ball.wav","None","719.993643404","114","188084.928904","194968.022117","195734.907896","196484.063773","182667.688487","183434.420606","184201.174676","184967.661311","188834.622744","189601.054346","190367.794194","191134.419029","191900.752932","192667.815558","193434.045887","194201.098619","195744.403252","Mapping"
"Blocked","m160","ball","5","m160romp.wav","space","460.121944488","114","188084.928904","194968.022117","195734.907896","196484.063773","197251.009531","183434.420606","184201.174676","184967.661311","188834.622744","189601.054346","190367.794194","191134.419029","191900.752932","192667.815558","193434.045887","194201.098619","196493.501005","Mapping"
"Blocked","m160","ball","5","m160ball.wav","None","732.404821494","114","188084.928904","194968.022117","195734.907896","196484.063773","197251.009531","198017.574387","184201.174676","184967.661311","188834.622744","189601.054346","190367.794194","191134.419029","191900.752932","192667.815558","193434.045887","194201.098619","197260.820245","Mapping"
"Blocked","m160","ball","5","m160depth.wav","space","686.651065713","114","188084.928904","194968.022117","195734.907896","196484.063773","197251.009531","198017.574387","198784.365248","184967.661311","188834.622744","189601.054346","190367.794194","191134.419029","191900.752932","192667.815558","193434.045887","194201.098619","198026.974827","Mapping"
"Blocked","m160","ball","5","m160cad.wav","None","728.313829051","114","188084.928904","194968.022117","195734.907896","196484.063773","197251.009531","198017.574387","198784.365248","199550.957311","188834.622744","189601.054346","190367.794194","191134.419029","191900.752932","192667.815558","193434.045887","194201.098619","198793.599353","Mapping"
"Blocked","m160","done","19","m160jolt.wav","None","726.190420974","114","202684.506015","194968.022117","195734.907896","196484.063773","197251.009531","198017.574387","198784.365248","199550.957311","188834.622744","189601.054346","190367.794194","191134.419029","191900.752932","192667.815558","193434.045887","194201.098619","199560.475238","Mapping"
"Blocked","m160","done","19","m160done.wav","None","720.917146595","114","202684.506015","194968.022117","195734.907896","196484.063773","197251.009531","198017.574387","198784.365248","199550.957311","203451.13487","189601.054346","190367.794194","191134.419029","191900.752932","192667.815558","193434.045887","194201.098619","202694.220577","Mapping"
"Blocked","m160","done","19","m160jolt.wav","space","556.29396654","114","202684.506015","194968.022117","195734.907896","196484.063773","197251.009531","198017.574387","198784.365248","199550.957311","203451.13487","204200.924864","190367.794194","191134.419029","191900.752932","192667.815558","193434.045887","194201.098619","203461.238682","Mapping"
"Blocked","m160","done","19","m160done.wav","None","733.667179593","114","202684.506015","194968.022117","195734.907896","196484.063773","197251.009531","198017.574387","198784.365248","199550.957311","203451.13487","204200.924864","204967.504869","191134.419029","191900.752932","192667.815558","193434.045887","194201.098619","204210.438152","Mapping"
"Blocked","m160","done","19","m160park.wav","space","424.658741336","114","202684.506015","194968.022117","195734.907896","196484.063773","197251.009531","198017.574387","198784.365248","199550.957311","203451.13487","204200.924864","204967.504869","205734.175462","191900.752932","192667.815558","193434.045887","194201.098619","204976.859242","Mapping"
"Blocked","m160","done","19","m160bluff.wav","None","729.45993772","114","202684.506015","194968.022117","195734.907896","196484.063773","197251.009531","198017.574387","198784.365248","199550.957311","203451.13487","204200.924864","204967.504869","205734.175462","206500.582948","192667.815558","193434.045887","194201.098619","205743.503865","Mapping"
"Blocked","m160","done","19","m160jaw.wav","None","727.371466288","114","202684.506015","194968.022117","195734.907896","196484.063773","197251.009531","198017.574387","198784.365248","199550.957311","203451.13487","204200.924864","204967.504869","205734.175462","206500.582948","207267.603217","193434.045887","194201.098619","206510.35347","Mapping"
"Blocked","m160","done","19","m160park.wav","None","725.700379931","114","202684.506015","194968.022117","195734.907896","196484.063773","197251.009531","198017.574387","198784.365248","199550.957311","203451.13487","204200.924864","204967.504869","205734.175462","206500.582948","207267.603217","208034.772817","194201.098619","207276.954189","Mapping"
"Blocked","m160","done","19","m160knife.wav","None","722.884730902","114","202684.506015","194968.022117","195734.907896","196484.063773","197251.009531","198017.574387","198784.365248","199550.957311","203451.13487","204200.924864","204967.504869","205734.175462","206500.582948","207267.603217","208034.772817","208801.291606","208044.46419","Mapping"
"Blocked","m160","done","19","m160done.wav","None","721.050709835","114","202684.506015","209567.640967","195734.907896","196484.063773","197251.009531","198017.574387","198784.365248","199550.957311","203451.13487","204200.924864","204967.504869","205734.175462","206500.582948","207267.603217","208034.772817","208801.291606","208811.146841","Mapping"
"Blocked","m160","done","19","m160cling.wav","space","439.910920744","114","202684.506015","209567.640967","210317.267717","196484.063773","197251.009531","198017.574387","198784.365248","199550.957311","203451.13487","204200.924864","204967.504869","205734.175462","206500.582948","207267.603217","208034.772817","208801.291606","209577.536086","Mapping"
"Blocked","m160","done","19","m160cad.wav","None","734.127539909","114","202684.506015","209567.640967","210317.267717","211084.209146","197251.009531","198017.574387","198784.365248","199550.957311","203451.13487","204200.924864","204967.504869","205734.175462","206500.582948","207267.603217","208034.772817","208801.291606","210327.184169","Mapping"
"Blocked","m160","done","19","m160reek.wav","None","732.619697577","114","202684.506015","209567.640967","210317.267717","211084.209146","211850.844803","198017.574387","198784.365248","199550.957311","203451.13487","204200.924864","204967.504869","205734.175462","206500.582948","207267.603217","208034.772817","208801.291606","211093.558882","Mapping"
"Blocked","m160","done","19","m160jaw.wav","None","730.477739009","114","202684.506015","209567.640967","210317.267717","211084.209146","211850.844803","212617.339167","198784.365248","199550.957311","203451.13487","204200.924864","204967.504869","205734.175462","206500.582948","207267.603217","208034.772817","208801.291606","211860.522263","Mapping"
"Blocked","m160","done","19","m160done.wav","None","729.095730523","114","202684.506015","209567.640967","210317.267717","211084.209146","211850.844803","212617.339167","213383.779116","199550.957311","203451.13487","204200.924864","204967.504869","205734.175462","206500.582948","207267.603217","208034.772817","208801.291606","212626.794022","Mapping"
"Blocked","m160","done","19","m160dime.wav","space","480.484154308","114","202684.506015","209567.640967","210317.267717","211084.209146","211850.844803","212617.339167","213383.779116","214150.801549","203451.13487","204200.924864","204967.504869","205734.175462","206500.582948","207267.603217","208034.772817","208801.291606","213392.88986","Mapping"
"Blocked","m160","tile","16","m160greet.wav","None","724.632183206","114","217267.85674","209567.640967","210317.267717","211084.209146","211850.844803","212617.339167","213383.779116","214150.801549","203451.13487","204200.924864","204967.504869","205734.175462","206500.582948","207267.603217","208034.772817","208801.291606","214160.347611","Mapping"
"Blocked","m160","tile","16","m160tile.wav","None","721.378434449","114","217267.85674","209567.640967","210317.267717","211084.209146","211850.844803","212617.339167","213383.779116","214150.801549","218034.482812","204200.924864","204967.504869","205734.175462","206500.582948","207267.603217","208034.772817","208801.291606","217277.789887","Mapping"
"Blocked","m160","tile","16","m160park.wav","space","525.075415324","114","217267.85674","209567.640967","210317.267717","211084.209146","211850.844803","212617.339167","213383.779116","214150.801549","218034.482812","218783.922511","204967.504869","205734.175462","206500.582948","207267.603217","208034.772817","208801.291606","218044.218088","Mapping"
"Blocked","m160","tile","16","m160tile.wav","None","734.490510309","114","217267.85674","209567.640967","210317.267717","211084.209146","211850.844803","212617.339167","213383.779116","214150.801549","218034.482812","218783.922511","219550.722339","205734.175462","206500.582948","207267.603217","208034.772817","208801.291606","218793.646966","Mapping"
"Blocked","m160","tile","16","m160cad.wav","space","577.113444975","114","217267.85674","209567.640967","210317.267717","211084.209146","211850.844803","212617.339167","213383.779116","214150.801549","218034.482812","218783.922511","219550.722339","220317.338518","206500.582948","207267.603217","208034.772817","208801.291606","219560.180286","Mapping"
"Blocked","m160","tile","16","m160lash.wav","None","730.304292345","114","217267.85674","209567.640967","210317.267717","211084.209146","211850.844803","212617.339167","213383.779116","214150.801549","218034.482812","218783.922511","219550.722339","220317.338518","221084.024879","207267.603217","208034.772817","208801.291606","220326.820889","Mapping"
"Blocked","m160","tile","16","m160lash.wav","None","728.644336283","114","217267.85674","209567.640967","210317.267717","211084.209146","211850.844803","212617.339167","213383.779116","214150.801549","218034.482812","218783.922511","219550.722339","220317.338518","221084.024879","221850.680941","208034.772817","208801.291606","221093.580524","Mapping"
"Blocked","m160","tile","16","m160ball.wav","None","727.129073697","114","217267.85674","209567.640967","210317.267717","211084.209146","211850.844803","212617.339167","213383.779116","214150.801549","218034.482812","218783.922511","219550.722339","220317.338518","221084.024879","221850.680941","222617.387398","208801.291606","221860.155273","Mapping"
"Blocked","m160","tile","16","m160park.wav","None","725.09378026","114","217267.85674","209567.640967","210317.267717","211084.209146","211850.844803","212617.339167","213383.779116","214150.801549","218034.482812","218783.922511","219550.722339","220317.338518","221084.024879","221850.680941","222617.387398","223384.447551","222627.19533","Mapping"
"Blocked","m160","tile","16","m160tile.wav","None","722.868653887","114","217267.85674","224150.836486","210317.267717","211084.209146","211850.844803","212617.339167","213383.779116","214150.801549","218034.482812","218783.922511","219550.722339","220317.338518","221084.024879","221850.680941","222617.387398","223384.447551","223394.423364","Mapping"
"Blocked","m160","tile","16","m160romp.wav","space","440.561423195","114","217267.85674","224150.836486","224917.271179","211084.209146","211850.844803","212617.339167","213383.779116","214150.801549","218034.482812","218783.922511","219550.722339","220317.338518","221084.024879","221850.680941","222617.387398","223384.447551","224160.63607","Mapping"
"Blocked","m160","tile","16","m160jolt.wav","None","721.272696857","114","217267.85674","224150.836486","224917.271179","225667.355198","211850.844803","212617.339167","213383.779116","214150.801549","218034.482812","218783.922511","219550.722339","220317.338518","221084.024879","221850.680941","222617.387398","223384.447551","224926.060692","Mapping"
"Blocked","m160","tile","16","m160greet.wav","None","735.424216313","114","217267.85674","224150.836486","224917.271179","225667.355198","226433.726819","212617.339167","213383.779116","214150.801549","218034.482812","218783.922511","219550.722339","220317.338518","221084.024879","221850.680941","222617.387398","223384.447551","225677.101913","Mapping"
"Blocked","m160","tile","16","m160tile.wav","None","734.452481964","114","217267.85674","224150.836486","224917.271179","225667.355198","226433.726819","227200.511189","213383.779116","214150.801549","218034.482812","218783.922511","219550.722339","220317.338518","221084.024879","221850.680941","222617.387398","223384.447551","226443.107782","Mapping"
"Blocked","m160","tile","16","m160jolt.wav","space","383.116865007","114","217267.85674","224150.836486","224917.271179","225667.355198","226433.726819","227200.511189","227967.076663","214150.801549","218034.482812","218783.922511","219550.722339","220317.338518","221084.024879","221850.680941","222617.387398","223384.447551","227210.062197","Mapping"
"Blocked","m160","tile","16","m160jaw.wav","None","730.367054639","114","217267.85674","224150.836486","224917.271179","225667.355198","226433.726819","227200.511189","227967.076663","228733.780956","218034.482812","218783.922511","219550.722339","220317.338518","221084.024879","221850.680941","222617.387398","223384.447551","227976.396099","Mapping"
"Blocked","m160","cave","11","m160dime.wav","None","728.805106774","114","231867.310491","224150.836486","224917.271179","225667.355198","226433.726819","227200.511189","227967.076663","228733.780956","218034.482812","218783.922511","219550.722339","220317.338518","221084.024879","221850.680941","222617.387398","223384.447551","228743.495826","Mapping"
"Blocked","m160","cave","11","m160greet.wav","None","720.312401885","114","231867.310491","224150.836486","224917.271179","225667.355198","226433.726819","227200.511189","227967.076663","228733.780956","232634.122995","218783.922511","219550.722339","220317.338518","221084.024879","221850.680941","222617.387398","223384.447551","231877.930932","Mapping"
"Blocked","m160","cave","11","m160bluff.wav","None","718.672851392","114","231867.310491","224150.836486","224917.271179","225667.355198","226433.726819","227200.511189","227967.076663","228733.780956","232634.122995","233383.818072","219550.722339","220317.338518","221084.024879","221850.680941","222617.387398","223384.447551","232644.454668","Mapping"
"Blocked","m160","cave","11","m160jaw.wav","None","734.830292757","114","231867.310491","224150.836486","224917.271179","225667.355198","226433.726819","227200.511189","227967.076663","228733.780956","232634.122995","233383.818072","234150.443217","220317.338518","221084.024879","221850.680941","222617.387398","223384.447551","233393.114011","Mapping"
"Blocked","m160","cave","11","m160cave.wav","None","732.81973321","114","231867.310491","224150.836486","224917.271179","225667.355198","226433.726819","227200.511189","227967.076663","228733.780956","232634.122995","233383.818072","234150.443217","234916.964788","221084.024879","221850.680941","222617.387398","223384.447551","234159.980312","Mapping"
"Blocked","m160","cave","11","m160tile.wav","space","490.13873568","114","231867.310491","224150.836486","224917.271179","225667.355198","226433.726819","227200.511189","227967.076663","228733.780956","232634.122995","233383.818072","234150.443217","234916.964788","235683.821813","221850.680941","222617.387398","223384.447551","234926.870419","Mapping"
"Blocked","m160","cave","11","m160cave.wav","None","728.862922348","114","231867.310491","224150.836486","224917.271179","225667.355198","226433.726819","227200.511189","227967.076663","228733.780956","232634.122995","233383.818072","234150.443217","234916.964788","235683.821813","236450.538473","222617.387398","223384.447551","235693.154853","Mapping"
"Blocked","m160","cave","11","m160cad.wav","space","557.092254166","114","231867.310491","224150.836486","224917.271179","225667.355198","226433.726819","227200.511189","227967.076663","228733.780956","232634.122995","233383.818072","234150.443217","234916.964788","235683.821813","236450.538473","237216.744068","223384.447551","236459.930257","Mapping"
"Blocked","m160","cave","11","m160bluff.wav","None","725.319786521","114","231867.310491","224150.836486","224917.271179","225667.355198","226433.726819","227200.511189","227967.076663","228733.780956","232634.122995","233383.818072","234150.443217","234916.964788","235683.821813","236450.538473","237216.744068","237984.123907","237225.86687","Mapping"
"Blocked","m160","cave","11","m160cave.wav","None","722.140857892","114","231867.310491","238750.253446","224917.271179","225667.355198","226433.726819","227200.511189","227967.076663","228733.780956","232634.122995","233383.818072","234150.443217","234916.964788","235683.821813","236450.538473","237216.744068","237984.123907","237993.928747","Mapping"
"Blocked","m160","cave","11","m160bluff.wav","space","561.333814403","114","231867.310491","238750.253446","239499.873702","225667.355198","226433.726819","227200.511189","227967.076663","228733.780956","232634.122995","233383.818072","234150.443217","234916.964788","235683.821813","236450.538473","237216.744068","237984.123907","238759.662543","Mapping"
"Blocked","m160","cave","11","m160cave.wav","None","736.490867159","114","231867.310491","238750.253446","239499.873702","240266.539658","226433.726819","227200.511189","227967.076663","228733.780956","232634.122995","233383.818072","234150.443217","234916.964788","235683.821813","236450.538473","237216.744068","237984.123907","239508.840062","Mapping"
"Blocked","m160","cave","11","m160jolt.wav","space","581.527524395","114","231867.310491","238750.253446","239499.873702","240266.539658","241033.590535","227200.511189","227967.076663","228733.780956","232634.122995","233383.818072","234150.443217","234916.964788","235683.821813","236450.538473","237216.744068","237984.123907","240275.444801","Mapping"
"Blocked","m160","cave","11","m160gnash.wav","None","731.094232237","114","231867.310491","238750.253446","239499.873702","240266.539658","241033.590535","241799.96123","227967.076663","228733.780956","232634.122995","233383.818072","234150.443217","234916.964788","235683.821813","236450.538473","237216.744068","237984.123907","241043.305406","Mapping"
"Blocked","m160","cave","11","m160jolt.wav","None","731.015083671","114","231867.310491","238750.253446","239499.873702","240266.539658","241033.590535","241799.96123","242566.648827","228733.780956","232634.122995","233383.818072","234150.443217","234916.964788","235683.821813","236450.538473","237216.744068","237984.123907","241808.969637","Mapping"
"Blocked","m160","cave","11","m160greet.wav","None","729.637094482","114","231867.310491","238750.253446","239499.873702","240266.539658","241033.590535","241799.96123","242566.648827","243333.369816","232634.122995","233383.818072","234150.443217","234916.964788","235683.821813","236450.538473","237216.744068","237984.123907","242575.468638","Mapping"
"Blocked","m160","ball","3","m160priest.wav","None","727.706301841","114","246467.133087","238750.253446","239499.873702","240266.539658","241033.590535","241799.96123","242566.648827","243333.369816","232634.122995","233383.818072","234150.443217","234916.964788","235683.821813","236450.538473","237216.744068","237984.123907","243342.546105","Mapping"
"Blocked","m160","ball","3","m160ball.wav","None","721.471805009","114","246467.133087","238750.253446","239499.873702","240266.539658","241033.590535","241799.96123","242566.648827","243333.369816","247233.946828","233383.818072","234150.443217","234916.964788","235683.821813","236450.538473","237216.744068","237984.123907","246476.65596","Mapping"
"Blocked","m160","ball","3","m160cad.wav","None","719.115279615","114","246467.133087","238750.253446","239499.873702","240266.539658","241033.590535","241799.96123","242566.648827","243333.369816","247233.946828","247983.807004","234150.443217","234916.964788","235683.821813","236450.538473","237216.744068","237984.123907","247244.105363","Mapping"
"Blocked","m160","ball","3","m160lash.wav","space","159.902399871","114","246467.133087","238750.253446","239499.873702","240266.539658","241033.590535","241799.96123","242566.648827","243333.369816","247233.946828","247983.807004","248750.221601","234916.964788","235683.821813","236450.538473","237216.744068","237984.123907","247992.938771","Mapping"
"Blocked","m160","ball","3","m160romp.wav","None","732.581050775","114","246467.133087","238750.253446","239499.873702","240266.539658","241033.590535","241799.96123","242566.648827","243333.369816","247233.946828","247983.807004","248750.221601","249516.791403","235683.821813","236450.538473","237216.744068","237984.123907","248759.758696","Mapping"
"Blocked","m160","ball","3","m160ball.wav","None","731.19842395","114","246467.133087","238750.253446","239499.873702","240266.539658","241033.590535","241799.96123","242566.648827","243333.369816","247233.946828","247983.807004","248750.221601","249516.791403","250283.455194","236450.538473","237216.744068","237984.123907","249526.222142","Mapping"
"Blocked","m160","ball","3","m160priest.wav","space","411.838216532","114","246467.133087","238750.253446","239499.873702","240266.539658","241033.590535","241799.96123","242566.648827","243333.369816","247233.946828","247983.807004","248750.221601","249516.791403","250283.455194","251049.940592","237216.744068","237984.123907","250293.008367","Mapping"
"Blocked","m160","ball","3","m160jaw.wav","None","727.899535734","114","246467.133087","238750.253446","239499.873702","240266.539658","241033.590535","241799.96123","242566.648827","243333.369816","247233.946828","247983.807004","248750.221601","249516.791403","250283.455194","251049.940592","251817.180066","237984.123907","251059.310424","Mapping"
"Blocked","m160","ball","3","m160tile.wav","None","725.4091379","114","246467.133087","238750.253446","239499.873702","240266.539658","241033.590535","241799.96123","242566.648827","243333.369816","247233.946828","247983.807004","248750.221601","249516.791403","250283.455194","251049.940592","251817.180066","252583.971855","251826.791672","Mapping"
"Blocked","m160","ball","3","m160done.wav","None","723.571715876","114","246467.133087","253350.412732","239499.873702","240266.539658","241033.590535","241799.96123","242566.648827","243333.369816","247233.946828","247983.807004","248750.221601","249516.791403","250283.455194","251049.940592","251817.180066","252583.971855","252593.759072","Mapping"
"Blocked","m160","ball","3","m160lash.wav","None","723.613763577","114","246467.133087","253350.412732","254117.106822","240266.539658","241033.590535","241799.96123","242566.648827","243333.369816","247233.946828","247983.807004","248750.221601","249516.791403","250283.455194","251049.940592","251817.180066","252583.971855","253359.401043","Mapping"
"Blocked","m160","ball","3","m160jolt.wav","None","721.306706022","114","246467.133087","253350.412732","254117.106822","254883.902631","241033.590535","241799.96123","242566.648827","243333.369816","247233.946828","247983.807004","248750.221601","249516.791403","250283.455194","251049.940592","251817.180066","252583.971855","254127.121901","Mapping"
"Blocked","m160","ball","3","m160ball.wav","None","720.034454367","114","246467.133087","253350.412732","254117.106822","254883.902631","255633.638519","241799.96123","242566.648827","243333.369816","247233.946828","247983.807004","248750.221601","249516.791403","250283.455194","251049.940592","251817.180066","252583.971855","254893.744572","Mapping"
"Blocked","m160","ball","3","m160gnash.wav","space","486.056709313","114","246467.133087","253350.412732","254117.106822","254883.902631","255633.638519","256400.194409","242566.648827","243333.369816","247233.946828","247983.807004","248750.221601","249516.791403","250283.455194","251049.940592","251817.180066","252583.971855","255642.711544","Mapping"
"Blocked","m160","ball","3","m160ball.wav","None","733.141274366","114","246467.133087","253350.412732","254117.106822","254883.902631","255633.638519","256400.194409","257166.323947","243333.369816","247233.946828","247983.807004","248750.221601","249516.791403","250283.455194","251049.940592","251817.180066","252583.971855","256409.934013","Mapping"
"Blocked","m160","ball","3","m160jaw.wav","space","665.320522385","114","246467.133087","253350.412732","254117.106822","254883.902631","255633.638519","256400.194409","257166.323947","257933.064104","247233.946828","247983.807004","248750.221601","249516.791403","250283.455194","251049.940592","251817.180066","252583.971855","257175.407175","Mapping"
"Blocked","m160","tile","14","m160lash.wav","None","730.244003295","114","261066.935277","253350.412732","254117.106822","254883.902631","255633.638519","256400.194409","257166.323947","257933.064104","247233.946828","247983.807004","248750.221601","249516.791403","250283.455194","251049.940592","251817.180066","252583.971855","257942.010368","Mapping"
"Blocked","m160","tile","14","m160park.wav","None","720.627450384","114","261066.935277","253350.412732","254117.106822","254883.902631","255633.638519","256400.194409","257166.323947","257933.064104","261833.782718","247983.807004","248750.221601","249516.791403","250283.455194","251049.940592","251817.180066","252583.971855","261076.803807","Mapping"
"Blocked","m160","tile","14","m160jaw.wav","None","718.851244892","114","261066.935277","253350.412732","254117.106822","254883.902631","255633.638519","256400.194409","257166.323947","257933.064104","261833.782718","262583.25859","248750.221601","249516.791403","250283.455194","251049.940592","251817.180066","252583.971855","261843.818511","Mapping"
"Blocked","m160","tile","14","m160tile.wav","None","734.720226785","114","261066.935277","253350.412732","254117.106822","254883.902631","255633.638519","256400.194409","257166.323947","257933.064104","261833.782718","262583.25859","263349.969685","249516.791403","250283.455194","251049.940592","251817.180066","252583.971855","262593.151236","Mapping"
"Blocked","m160","tile","14","m160dime.wav","space","393.115248065","114","261066.935277","253350.412732","254117.106822","254883.902631","255633.638519","256400.194409","257166.323947","257933.064104","261833.782718","262583.25859","263349.969685","264116.506715","250283.455194","251049.940592","251817.180066","252583.971855","263359.528732","Mapping"
"Blocked","m160","tile","14","m160tile.wav","None","731.26365972","114","261066.935277","253350.412732","254117.106822","254883.902631","255633.638519","256400.194409","257166.323947","257933.064104","261833.782718","262583.25859","263349.969685","264116.506715","264883.286138","251049.940592","251817.180066","252583.971855","264125.998671","Mapping"
"Blocked","m160","tile","14","m160done.wav","space","596.02253628","114","261066.935277","253350.412732","254117.106822","254883.902631","255633.638519","256400.194409","257166.323947","257933.064104","261833.782718","262583.25859","263349.969685","264116.506715","264883.286138","265649.609838","251817.180066","252583.971855","264892.599082","Mapping"
"Blocked","m160","tile","14","m160jaw.wav","None","728.74450864","114","261066.935277","253350.412732","254117.106822","254883.902631","255633.638519","256400.194409","257166.323947","257933.064104","261833.782718","262583.25859","263349.969685","264116.506715","264883.286138","265649.609838","266416.756559","252583.971855","265658.221884","Mapping"
"Blocked","m160","tile","14","m160jolt.wav","None","724.86931982","114","261066.935277","253350.412732","254117.106822","254883.902631","255633.638519","256400.194409","257166.323947","257933.064104","261833.782718","262583.25859","263349.969685","264116.506715","264883.286138","265649.609838","266416.756559","267183.389433","266427.356904","Mapping"
"Blocked","m160","tile","14","m160tile.wav","None","724.711641029","114","261066.935277","267950.005302","254117.106822","254883.902631","255633.638519","256400.194409","257166.323947","257933.064104","261833.782718","262583.25859","263349.969685","264116.506715","264883.286138","265649.609838","266416.756559","267183.389433","267192.873659","Mapping"
"Blocked","m160","tile","14","m160dime.wav","space","465.418406879","114","261066.935277","267950.005302","268717.117705","254883.902631","255633.638519","256400.194409","257166.323947","257933.064104","261833.782718","262583.25859","263349.969685","264116.506715","264883.286138","265649.609838","266416.756559","267183.389433","267959.119138","Mapping"
"Blocked","m160","tile","14","m160tile.wav","None","720.099380938","114","261066.935277","267950.005302","268717.117705","269483.749652","255633.638519","256400.194409","257166.323947","257933.064104","261833.782718","262583.25859","263349.969685","264116.506715","264883.286138","265649.609838","266416.756559","267183.389433","268726.89472","Mapping"
"Blocked","m160","tile","14","m160dime.wav","None","718.556601903","114","261066.935277","267950.005302","268717.117705","269483.749652","270233.105256","256400.194409","257166.323947","257933.064104","261833.782718","262583.25859","263349.969685","264116.506715","264883.286138","265649.609838","266416.756559","267183.389433","269493.746798","Mapping"
"Blocked","m160","tile","14","m160reek.wav","None","735.085361404","114","261066.935277","267950.005302","268717.117705","269483.749652","270233.105256","270999.599001","257166.323947","257933.064104","261833.782718","262583.25859","263349.969685","264116.506715","264883.286138","265649.609838","266416.756559","267183.389433","270242.471687","Mapping"
"Blocked","m160","tile","14","m160depth.wav","space","552.002010867","114","261066.935277","267950.005302","268717.117705","269483.749652","270233.105256","270999.599001","271766.452007","257933.064104","261833.782718","262583.25859","263349.969685","264116.506715","264883.286138","265649.609838","266416.756559","267183.389433","271008.50198","Mapping"
"Blocked","m160","tile","14","m160knife.wav","None","731.047856098","114","261066.935277","267950.005302","268717.117705","269483.749652","270233.105256","270999.599001","271766.452007","272533.257091","261833.782718","262583.25859","263349.969685","264116.506715","264883.286138","265649.609838","266416.756559","267183.389433","271775.76897","Mapping"
"Blocked","m160","done","20","m160jolt.wav","None","729.42005418","114","275666.71428","267950.005302","268717.117705","269483.749652","270233.105256","270999.599001","271766.452007","272533.257091","261833.782718","262583.25859","263349.969685","264116.506715","264883.286138","265649.609838","266416.756559","267183.389433","272542.678555","Mapping"
"Blocked","m160","done","20","m160tile.wav","None","720.284885436","114","275666.71428","267950.005302","268717.117705","269483.749652","270233.105256","270999.599001","271766.452007","272533.257091","276433.65911","262583.25859","263349.969685","264116.506715","264883.286138","265649.609838","266416.756559","267183.389433","275676.839733","Mapping"
"Blocked","m160","done","20","m160done.wav","None","719.417033601","114","275666.71428","267950.005302","268717.117705","269483.749652","270233.105256","270999.599001","271766.452007","272533.257091","276433.65911","277182.908976","263349.969685","264116.506715","264883.286138","265649.609838","266416.756559","267183.389433","276442.99988","Mapping"
"Blocked","m160","done","20","m160gnash.wav","space","512.013425585","114","275666.71428","267950.005302","268717.117705","269483.749652","270233.105256","270999.599001","271766.452007","272533.257091","276433.65911","277182.908976","277949.858135","264116.506715","264883.286138","265649.609838","266416.756559","267183.389433","277192.369396","Mapping"
"Blocked","m160","done","20","m160done.wav","None","732.560336124","114","275666.71428","267950.005302","268717.117705","269483.749652","270233.105256","270999.599001","271766.452007","272533.257091","276433.65911","277182.908976","277949.858135","278716.203477","264883.286138","265649.609838","266416.756559","267183.389433","277959.307116","Mapping"
"Blocked","m160","done","20","m160gnash.wav","space","467.106188647","114","275666.71428","267950.005302","268717.117705","269483.749652","270233.105256","270999.599001","271766.452007","272533.257091","276433.65911","277182.908976","277949.858135","278716.203477","279482.907152","265649.609838","266416.756559","267183.389433","278725.290415","Mapping"
"Blocked","m160","done","20","m160depth.wav","None","728.928776516","114","275666.71428","267950.005302","268717.117705","269483.749652","270233.105256","270999.599001","271766.452007","272533.257091","276433.65911","277182.908976","277949.858135","278716.203477","279482.907152","280249.713164","266416.756559","267183.389433","279492.024698","Mapping"
"Blocked","m160","done","20","m160dime.wav","None","726.957482053","114","275666.71428","267950.005302","268717.117705","269483.749652","270233.105256","270999.599001","271766.452007","272533.257091","276433.65911","277182.908976","277949.858135","278716.203477","279482.907152","280249.713164","281016.167335","267183.389433","280259.265408","Mapping"
"Blocked","m160","done","20","m160done.wav","None","726.282554853","114","275666.71428","267950.005302","268717.117705","269483.749652","270233.105256","270999.599001","271766.452007","272533.257091","276433.65911","277182.908976","277949.858135","278716.203477","279482.907152","280249.713164","281016.167335","281783.65353","281025.16925","Mapping"
"Blocked","m160","done","20","m160depth.wav","space","406.436634948","114","275666.71428","282550.119759","268717.117705","269483.749652","270233.105256","270999.599001","271766.452007","272533.257091","276433.65911","277182.908976","277949.858135","278716.203477","279482.907152","280249.713164","281016.167335","281783.65353","281793.928623","Mapping"
"Blocked","m160","done","20","m160priest.wav","None","720.756376046","114","275666.71428","282550.119759","283316.570529","269483.749652","270233.105256","270999.599001","271766.452007","272533.257091","276433.65911","277182.908976","277949.858135","278716.203477","279482.907152","280249.713164","281016.167335","281783.65353","282559.754862","Mapping"
"Blocked","m160","done","20","m160knife.wav","None","719.161346555","114","275666.71428","282550.119759","283316.570529","284066.090613","270233.105256","270999.599001","271766.452007","272533.257091","276433.65911","277182.908976","277949.858135","278716.203477","279482.907152","280249.713164","281016.167335","281783.65353","283326.599211","Mapping"
"Blocked","m160","done","20","m160done.wav","None","736.211682903","114","275666.71428","282550.119759","283316.570529","284066.090613","284833.024623","270999.599001","271766.452007","272533.257091","276433.65911","277182.908976","277949.858135","278716.203477","279482.907152","280249.713164","281016.167335","281783.65353","284075.069958","Mapping"
"Blocked","m160","done","20","m160priest.wav","space","438.010736427","114","275666.71428","282550.119759","283316.570529","284066.090613","284833.024623","285599.297927","271766.452007","272533.257091","276433.65911","277182.908976","277949.858135","278716.203477","279482.907152","280249.713164","281016.167335","281783.65353","284842.317471","Mapping"
"Blocked","m160","done","20","m160park.wav","None","732.4391398","114","275666.71428","282550.119759","283316.570529","284066.090613","284833.024623","285599.297927","286366.340766","272533.257091","276433.65911","277182.908976","277949.858135","278716.203477","279482.907152","280249.713164","281016.167335","281783.65353","285608.085894","Mapping"
"Blocked","m160","done","20","m160cave.wav","None","730.210612528","114","275666.71428","282550.119759","283316.570529","284066.090613","284833.024623","285599.297927","286366.340766","287133.008886","276433.65911","277182.908976","277949.858135","278716.203477","279482.907152","280249.713164","281016.167335","281783.65353","286375.764704","Mapping"
"Blocked","m160","cave","10","m160priest.wav","None","729.357601027","114","290266.515542","282550.119759","283316.570529","284066.090613","284833.024623","285599.297927","286366.340766","287133.008886","276433.65911","277182.908976","277949.858135","278716.203477","279482.907152","280249.713164","281016.167335","281783.65353","287142.278855","Mapping"
"Blocked","m160","cave","10","m160cave.wav","None","720.965068555","114","290266.515542","282550.119759","283316.570529","284066.090613","284833.024623","285599.297927","286366.340766","287133.008886","291032.832749","277182.908976","277949.858135","278716.203477","279482.907152","280249.713164","281016.167335","281783.65353","290276.028522","Mapping"
"Blocked","m160","cave","10","m160bluff.wav","space","542.419467121","114","290266.515542","282550.119759","283316.570529","284066.090613","284833.024623","285599.297927","286366.340766","287133.008886","291032.832749","291782.858952","277949.858135","278716.203477","279482.907152","280249.713164","281016.167335","281783.65353","291041.792616","Mapping"
"Blocked","m160","cave","10","m160tile.wav","None","734.356328787","114","290266.515542","282550.119759","283316.570529","284066.090613","284833.024623","285599.297927","286366.340766","287133.008886","291032.832749","291782.858952","292549.582105","278716.203477","279482.907152","280249.713164","281016.167335","281783.65353","291792.202504","Mapping"
"Blocked","m160","cave","10","m160cad.wav","None","732.973701961","114","290266.515542","282550.119759","283316.570529","284066.090613","284833.024623","285599.297927","286366.340766","287133.008886","291032.832749","291782.858952","292549.582105","293316.097802","279482.907152","280249.713164","281016.167335","281783.65353","292559.063239","Mapping"
"Blocked","m160","cave","10","m160ball.wav","None","732.00876941","114","290266.515542","282550.119759","283316.570529","284066.090613","284833.024623","285599.297927","286366.340766","287133.008886","291032.832749","291782.858952","292549.582105","293316.097802","294082.647817","280249.713164","281016.167335","281783.65353","293325.201435","Mapping"
"Blocked","m160","cave","10","m160jolt.wav","None","730.6777747","114","290266.515542","282550.119759","283316.570529","284066.090613","284833.024623","285599.297927","286366.340766","287133.008886","291032.832749","291782.858952","292549.582105","293316.097802","294082.647817","294849.297695","281016.167335","281783.65353","294091.792879","Mapping"
"Blocked","m160","cave","10","m160gnash.wav","None","729.482816532","114","290266.515542","282550.119759","283316.570529","284066.090613","284833.024623","285599.297927","286366.340766","287133.008886","291032.832749","291782.858952","292549.582105","293316.097802","294082.647817","294849.297695","295615.776601","281783.65353","294858.507375","Mapping"
"Blocked","m160","cave","10","m160cave.wav","None","728.910535225","114","290266.515542","282550.119759","283316.570529","284066.090613","284833.024623","285599.297927","286366.340766","287133.008886","291032.832749","291782.858952","292549.582105","293316.097802","294082.647817","294849.297695","295615.776601","296382.92023","295624.584354","Mapping"
"Blocked","m160","cave","10","m160cad.wav","space","464.343408414","114","290266.515542","297149.853931","283316.570529","284066.090613","284833.024623","285599.297927","286366.340766","287133.008886","291032.832749","291782.858952","292549.582105","293316.097802","294082.647817","294849.297695","295615.776601","296382.92023","296391.812079","Mapping"
"Blocked","m160","cave","10","m160cave.wav","None","723.294695839","114","290266.515542","297149.853931","297916.463617","284066.090613","284833.024623","285599.297927","286366.340766","287133.008886","291032.832749","291782.858952","292549.582105","293316.097802","294082.647817","294849.297695","295615.776601","296382.92023","297159.657843","Mapping"
"Blocked","m160","cave","10","m160depth.wav","space","697.57789874","114","290266.515542","297149.853931","297916.463617","298683.157089","284833.024623","285599.297927","286366.340766","287133.008886","291032.832749","291782.858952","292549.582105","293316.097802","294082.647817","294849.297695","295615.776601","296382.92023","297926.517033","Mapping"
"Blocked","m160","cave","10","m160dime.wav","None","719.976020453","114","290266.515542","297149.853931","297916.463617","298683.157089","299432.510837","285599.297927","286366.340766","287133.008886","291032.832749","291782.858952","292549.582105","293316.097802","294082.647817","294849.297695","295615.776601","296382.92023","298692.949871","Mapping"
"Blocked","m160","cave","10","m160bluff.wav","None","737.05139989","114","290266.515542","297149.853931","297916.463617","298683.157089","299432.510837","300199.445774","286366.340766","287133.008886","291032.832749","291782.858952","292549.582105","293316.097802","294082.647817","294849.297695","295615.776601","296382.92023","299441.19894","Mapping"
"Blocked","m160","cave","10","m160cave.wav","None","734.697966254","114","290266.515542","297149.853931","297916.463617","298683.157089","299432.510837","300199.445774","300965.933027","287133.008886","291032.832749","291782.858952","292549.582105","293316.097802","294082.647817","294849.297695","295615.776601","296382.92023","300208.876205","Mapping"
"Blocked","m160","cave","10","m160jaw.wav","None","733.472399879","114","290266.515542","297149.853931","297916.463617","298683.157089","299432.510837","300199.445774","300965.933027","301732.561882","291032.832749","291782.858952","292549.582105","293316.097802","294082.647817","294849.297695","295615.776601","296382.92023","300975.494856","Mapping"
"Blocked","m160","done","22","m160knife.wav","None","732.45769029","114","304866.086161","297149.853931","297916.463617","298683.157089","299432.510837","300199.445774","300965.933027","301732.561882","291032.832749","291782.858952","292549.582105","293316.097802","294082.647817","294849.297695","295615.776601","296382.92023","301741.842363","Mapping"
"Blocked","m160","done","22","m160greet.wav","None","721.099559334","114","304866.086161","297149.853931","297916.463617","298683.157089","299432.510837","300199.445774","300965.933027","301732.561882","305633.179086","291782.858952","292549.582105","293316.097802","294082.647817","294849.297695","295615.776601","296382.92023","304875.805051","Mapping"
"Blocked","m160","done","22","m160lash.wav","None","719.300474913","114","304866.086161","297149.853931","297916.463617","298683.157089","299432.510837","300199.445774","300965.933027","301732.561882","305633.179086","306382.56097","292549.582105","293316.097802","294082.647817","294849.297695","295615.776601","296382.92023","305643.081625","Mapping"
"Blocked","m160","done","22","m160romp.wav","None","741.399934399","114","304866.086161","297149.853931","297916.463617","298683.157089","299432.510837","300199.445774","300965.933027","301732.561882","305633.179086","306382.56097","307149.250732","293316.097802","294082.647817","294849.297695","295615.776601","296382.92023","306386.353609","Mapping"
"Blocked","m160","done","22","m160done.wav","None","734.26079395","114","304866.086161","297149.853931","297916.463617","298683.157089","299432.510837","300199.445774","300965.933027","301732.561882","305633.179086","306382.56097","307149.250732","307915.910504","294082.647817","294849.297695","295615.776601","296382.92023","307158.8914","Mapping"
"Blocked","m160","done","22","m160gnash.wav","space","394.7458326","114","304866.086161","297149.853931","297916.463617","298683.157089","299432.510837","300199.445774","300965.933027","301732.561882","305633.179086","306382.56097","307149.250732","307915.910504","308682.431766","294849.297695","295615.776601","296382.92023","307925.224685","Mapping"
"Blocked","m160","done","22","m160done.wav","None","730.790623231","114","304866.086161","297149.853931","297916.463617","298683.157089","299432.510837","300199.445774","300965.933027","301732.561882","305633.179086","306382.56097","307149.250732","307915.910504","308682.431766","309449.329602","295615.776601","296382.92023","308691.749657","Mapping"
"Blocked","m160","done","22","m160cad.wav","space","629.075417761","114","304866.086161","297149.853931","297916.463617","298683.157089","299432.510837","300199.445774","300965.933027","301732.561882","305633.179086","306382.56097","307149.250732","307915.910504","308682.431766","309449.329602","310215.73276","296382.92023","309458.85464","Mapping"
"Blocked","m160","done","22","m160done.wav","None","726.745388587","114","304866.086161","297149.853931","297916.463617","298683.157089","299432.510837","300199.445774","300965.933027","301732.561882","305633.179086","306382.56097","307149.250732","307915.910504","308682.431766","309449.329602","310215.73276","310982.591331","310225.140929","Mapping"
"Blocked","m160","done","22","m160park.wav","None","725.189005898","114","304866.086161","311749.628295","297916.463617","298683.157089","299432.510837","300199.445774","300965.933027","301732.561882","305633.179086","306382.56097","307149.250732","307915.910504","308682.431766","309449.329602","310215.73276","310982.591331","310992.105547","Mapping"
"Blocked","m160","done","22","m160cad.wav","None","723.062506062","114","304866.086161","311749.628295","312516.011047","298683.157089","299432.510837","300199.445774","300965.933027","301732.561882","305633.179086","306382.56097","307149.250732","307915.910504","308682.431766","309449.329602","310215.73276","310982.591331","311759.71201","Mapping"
"Blocked","m160","done","22","m160ball.wav","None","722.407056892","114","304866.086161","311749.628295","312516.011047","313282.761717","299432.510837","300199.445774","300965.933027","301732.561882","305633.179086","306382.56097","307149.250732","307915.910504","308682.431766","309449.329602","310215.73276","310982.591331","312525.812486","Mapping"
"Blocked","m160","done","22","m160jaw.wav","None","721.900320437","114","304866.086161","311749.628295","312516.011047","313282.761717","314049.755397","300199.445774","300965.933027","301732.561882","305633.179086","306382.56097","307149.250732","307915.910504","308682.431766","309449.329602","310215.73276","310982.591331","313291.802587","Mapping"
"Blocked","m160","done","22","m160bluff.wav","None","719.311914349","114","304866.086161","311749.628295","312516.011047","313282.761717","314049.755397","314799.583728","300965.933027","301732.561882","305633.179086","306382.56097","307149.250732","307915.910504","308682.431766","309449.329602","310215.73276","310982.591331","314059.809431","Mapping"
"Blocked","m160","done","22","m160done.wav","None","735.774819797","114","304866.086161","311749.628295","312516.011047","313282.761717","314049.755397","314799.583728","315565.692552","301732.561882","305633.179086","306382.56097","307149.250732","307915.910504","308682.431766","309449.329602","310215.73276","310982.591331","314808.904401","Mapping"
"Blocked","m160","done","22","m160park.wav","None","735.49779976","114","304866.086161","311749.628295","312516.011047","313282.761717","314049.755397","314799.583728","315565.692552","316332.474757","305633.179086","306382.56097","307149.250732","307915.910504","308682.431766","309449.329602","310215.73276","310982.591331","315574.641598","Mapping"
"Blocked","m160","done","21","m160reek.wav","space","90.0222389027","114","319466.160116","311749.628295","312516.011047","313282.761717","314049.755397","314799.583728","315565.692552","316332.474757","305633.179086","306382.56097","307149.250732","307915.910504","308682.431766","309449.329602","310215.73276","310982.591331","316341.828202","Mapping"
"Blocked","m160","done","21","m160tile.wav","None","720.303435868","114","319466.160116","311749.628295","312516.011047","313282.761717","314049.755397","314799.583728","315565.692552","316332.474757","320232.738575","306382.56097","307149.250732","307915.910504","308682.431766","309449.329602","310215.73276","310982.591331","319476.1619","Mapping"
"Blocked","m160","done","21","m160park.wav","None","719.550596783","114","319466.160116","311749.628295","312516.011047","313282.761717","314049.755397","314799.583728","315565.692552","316332.474757","320232.738575","320982.108401","307149.250732","307915.910504","308682.431766","309449.329602","310215.73276","310982.591331","320242.419127","Mapping"
"Blocked","m160","done","21","m160done.wav","None","735.909310577","114","319466.160116","311749.628295","312516.011047","313282.761717","314049.755397","314799.583728","315565.692552","316332.474757","320232.738575","320982.108401","321748.659034","307915.910504","308682.431766","309449.329602","310215.73276","310982.591331","320991.607468","Mapping"
"Blocked","m160","done","21","m160knife.wav","space","442.129245319","114","319466.160116","311749.628295","312516.011047","313282.761717","314049.755397","314799.583728","315565.692552","316332.474757","320232.738575","320982.108401","321748.659034","322515.395482","308682.431766","309449.329602","310215.73276","310982.591331","321757.634669","Mapping"
"Blocked","m160","done","21","m160cling.wav","None","732.632992032","114","319466.160116","311749.628295","312516.011047","313282.761717","314049.755397","314799.583728","315565.692552","316332.474757","320232.738575","320982.108401","321748.659034","322515.395482","323282.294555","309449.329602","310215.73276","310982.591331","322524.603616","Mapping"
"Blocked","m160","done","21","m160done.wav","None","731.275099097","114","319466.160116","311749.628295","312516.011047","313282.761717","314049.755397","314799.583728","315565.692552","316332.474757","320232.738575","320982.108401","321748.659034","322515.395482","323282.294555","324049.135194","310215.73276","310982.591331","323291.617083","Mapping"
"Blocked","m160","done","21","m160jolt.wav","space","500.724240439","114","319466.160116","311749.628295","312516.011047","313282.761717","314049.755397","314799.583728","315565.692552","316332.474757","320232.738575","320982.108401","321748.659034","322515.395482","323282.294555","324049.135194","324815.735913","310982.591331","324059.017636","Mapping"
"Blocked","m160","done","21","m160lash.wav","None","727.212859958","114","319466.160116","311749.628295","312516.011047","313282.761717","314049.755397","314799.583728","315565.692552","316332.474757","320232.738575","320982.108401","321748.659034","322515.395482","323282.294555","324049.135194","324815.735913","325582.501423","324825.296197","Mapping"
"Blocked","m160","done","21","m160done.wav","None","726.453219017","114","319466.160116","326349.037216","312516.011047","313282.761717","314049.755397","314799.583728","315565.692552","316332.474757","320232.738575","320982.108401","321748.659034","322515.395482","323282.294555","324049.135194","324815.735913","325582.501423","325591.495299","Mapping"
"Blocked","m160","done","21","m160cad.wav","space","488.996028027","114","319466.160116","326349.037216","327115.969989","313282.761717","314049.755397","314799.583728","315565.692552","316332.474757","320232.738575","320982.108401","321748.659034","322515.395482","323282.294555","324049.135194","324815.735913","325582.501423","326358.674793","Mapping"
"Blocked","m160","done","21","m160lash.wav","None","721.799529623","114","319466.160116","326349.037216","327115.969989","327882.369437","314049.755397","314799.583728","315565.692552","316332.474757","320232.738575","320982.108401","321748.659034","322515.395482","323282.294555","324049.135194","324815.735913","325582.501423","327125.809147","Mapping"
"Blocked","m160","done","21","m160dime.wav","None","722.092935932","114","319466.160116","326349.037216","327115.969989","327882.369437","328649.442265","314799.583728","315565.692552","316332.474757","320232.738575","320982.108401","321748.659034","322515.395482","323282.294555","324049.135194","324815.735913","325582.501423","327891.179045","Mapping"
"Blocked","m160","done","21","m160cling.wav","None","719.585533487","114","319466.160116","326349.037216","327115.969989","327882.369437","328649.442265","329415.64044","315565.692552","316332.474757","320232.738575","320982.108401","321748.659034","322515.395482","323282.294555","324049.135194","324815.735913","325582.501423","328659.190836","Mapping"
"Blocked","m160","done","21","m160done.wav","None","720.599933935","114","319466.160116","326349.037216","327115.969989","327882.369437","328649.442265","329415.64044","330165.790003","316332.474757","320232.738575","320982.108401","321748.659034","322515.395482","323282.294555","324049.135194","324815.735913","325582.501423","329424.634317","Mapping"
"Blocked","m160","done","21","m160jolt.wav","space","472.593102371","114","319466.160116","326349.037216","327115.969989","327882.369437","328649.442265","329415.64044","330165.790003","330932.264889","320232.738575","320982.108401","321748.659034","322515.395482","323282.294555","324049.135194","324815.735913","325582.501423","330175.075431","Mapping"
"Blocked","m160","ball","4","m160depth.wav","None","733.17868443","114","334065.836781","326349.037216","327115.969989","327882.369437","328649.442265","329415.64044","330165.790003","330932.264889","320232.738575","320982.108401","321748.659034","322515.395482","323282.294555","324049.135194","324815.735913","325582.501423","330941.554954","Mapping"
"Blocked","m160","ball","4","m160knife.wav","None","720.898905303","114","334065.836781","326349.037216","327115.969989","327882.369437","328649.442265","329415.64044","330165.790003","330932.264889","334832.663198","320982.108401","321748.659034","322515.395482","323282.294555","324049.135194","324815.735913","325582.501423","334075.380678","Mapping"
"Blocked","m160","ball","4","m160bluff.wav","None","719.392608793","114","334065.836781","326349.037216","327115.969989","327882.369437","328649.442265","329415.64044","330165.790003","330932.264889","334832.663198","335582.394758","321748.659034","322515.395482","323282.294555","324049.135194","324815.735913","325582.501423","334842.494627","Mapping"
"Blocked","m160","ball","4","m160ball.wav","None","735.739883152","114","334065.836781","326349.037216","327115.969989","327882.369437","328649.442265","329415.64044","330165.790003","330932.264889","334832.663198","335582.394758","336348.795442","322515.395482","323282.294555","324049.135194","324815.735913","325582.501423","335592.002963","Mapping"
"Blocked","m160","ball","4","m160jolt.wav","space","497.244794504","114","334065.836781","326349.037216","327115.969989","327882.369437","328649.442265","329415.64044","330165.790003","330932.264889","334832.663198","335582.394758","336348.795442","337115.376993","323282.294555","324049.135194","324815.735913","325582.501423","336358.318006","Mapping"
"Blocked","m160","ball","4","m160ball.wav","None","738.135055348","114","334065.836781","326349.037216","327115.969989","327882.369437","328649.442265","329415.64044","330165.790003","330932.264889","334832.663198","335582.394758","336348.795442","337115.376993","337882.34934","324049.135194","324815.735913","325582.501423","337119.22281","Mapping"
"Blocked","m160","ball","4","m160priest.wav","None","731.595712714","114","334065.836781","326349.037216","327115.969989","327882.369437","328649.442265","329415.64044","330165.790003","330932.264889","334832.663198","335582.394758","336348.795442","337115.376993","337882.34934","338648.954698","324815.735913","325582.501423","337891.396704","Mapping"
"Blocked","m160","ball","4","m160ball.wav","space","116.573497013","114","334065.836781","326349.037216","327115.969989","327882.369437","328649.442265","329415.64044","330165.790003","330932.264889","334832.663198","335582.394758","336348.795442","337115.376993","337882.34934","338648.954698","339415.407323","325582.501423","338658.941023","Mapping"
"Blocked","m160","ball","4","m160cling.wav","space","446.435732127","114","334065.836781","326349.037216","327115.969989","327882.369437","328649.442265","329415.64044","330165.790003","330932.264889","334832.663198","335582.394758","336348.795442","337115.376993","337882.34934","338648.954698","339415.407323","340182.209934","339425.06747","Mapping"
"Blocked","m160","ball","4","m160romp.wav","None","725.088524341","114","334065.836781","340949.259265","327115.969989","327882.369437","328649.442265","329415.64044","330165.790003","330932.264889","334832.663198","335582.394758","336348.795442","337115.376993","337882.34934","338648.954698","339415.407323","340182.209934","340191.599243","Mapping"
"Blocked","m160","ball","4","m160cave.wav","None","723.432278377","114","334065.836781","340949.259265","341715.490213","327882.369437","328649.442265","329415.64044","330165.790003","330932.264889","334832.663198","335582.394758","336348.795442","337115.376993","337882.34934","338648.954698","339415.407323","340182.209934","340958.909209","Mapping"
"Blocked","m160","ball","4","m160ball.wav","None","723.209672899","114","334065.836781","340949.259265","341715.490213","342482.564587","328649.442265","329415.64044","330165.790003","330932.264889","334832.663198","335582.394758","336348.795442","337115.376993","337882.34934","338648.954698","339415.407323","340182.209934","341724.698656","Mapping"
