"Condition","Talker","Target","Trial","current_stimulus","response_response","response_time_response","subject_nr","time_Audio1","time_Audio10","time_Audio11","time_Audio12","time_Audio13","time_Audio14","time_Audio15","time_Audio16","time_Audio2","time_Audio3","time_Audio4","time_Audio5","time_Audio6","time_Audio7","time_Audio8","time_Audio9","time_response","title"
"Blocked","m150","done","23","m150dime.wav","NA","NA","101","181458.110896","NA","NA","NA","NA","NA","NA","NA","NA","NA","NA","NA","NA","NA","NA","NA","NA","Mapping"
"Blocked","m150","done","23","m150done.wav","None","718.783477787","101","181458.110896","NA","NA","NA","NA","NA","NA","NA","182224.932469","NA","NA","NA","NA","NA","NA","NA","181472.613902","Mapping"
"Blocked","m150","done","23","m150tile.wav","None","722.56342927","101","181458.110896","NA","NA","NA","NA","NA","NA","NA","182224.932469","182990.968742","NA","NA","NA","NA","NA","NA","182235.138276","Mapping"
"Blocked","m150","done","23","m150cad.wav","space","323.891699081","101","181458.110896","NA","NA","NA","NA","NA","NA","NA","182224.932469","182990.968742","183757.555034","NA","NA","NA","NA","NA","182999.860563","Mapping"
"Blocked","m150","done","23","m150done.wav","None","724.096310092","101","181458.110896","NA","NA","NA","NA","NA","NA","NA","182224.932469","182990.968742","183757.555034","184507.542126","NA","NA","NA","NA","183766.4113","Mapping"
"Blocked","m150","done","23","m150gnash.wav","space","447.032911237","101","181458.110896","NA","NA","NA","NA","NA","NA","NA","182224.932469","182990.968742","183757.555034","184507.542126","185274.159026","NA","NA","NA","184516.684068","Mapping"
"Blocked","m150","done","23","m150done.wav","None","733.011937467","101","181458.110896","NA","NA","NA","NA","NA","NA","NA","182224.932469","182990.968742","183757.555034","184507.542126","185274.159026","186040.975961","NA","NA","185287.08092","Mapping"
"Blocked","m150","done","23","m150greet.wav","space","377.810577629","101","181458.110896","NA","NA","NA","NA","NA","NA","NA","182224.932469","182990.968742","183757.555034","184507.542126","185274.159026","186040.975961","186807.54834","NA","186049.834391","Mapping"
"Blocked","m150","done","23","m150depth.wav","None","732.901562704","101","181458.110896","NA","NA","NA","NA","NA","NA","NA","182224.932469","182990.968742","183757.555034","184507.542126","185274.159026","186040.975961","186807.54834","187574.290764","186817.054488","Mapping"
"Blocked","m150","done","23","m150lash.wav","None","732.494690688","101","181458.110896","188341.092859","NA","NA","NA","NA","NA","NA","182224.932469","182990.968742","183757.555034","184507.542126","185274.159026","186040.975961","186807.54834","187574.290764","187584.030648","Mapping"
"Blocked","m150","done","23","m150priest.wav","None","732.572293142","101","181458.110896","188341.092859","189107.373688","NA","NA","NA","NA","NA","182224.932469","182990.968742","183757.555034","184507.542126","185274.159026","186040.975961","186807.54834","187574.290764","188350.774","Mapping"
"Blocked","m150","done","23","m150lash.wav","None","733.478788985","101","181458.110896","188341.092859","189107.373688","189874.608007","NA","NA","NA","NA","182224.932469","182990.968742","183757.555034","184507.542126","185274.159026","186040.975961","186807.54834","187574.290764","189116.229645","Mapping"
"Blocked","m150","done","23","m150dime.wav","None","729.153765133","101","181458.110896","188341.092859","189107.373688","189874.608007","190641.193681","NA","NA","NA","182224.932469","182990.968742","183757.555034","184507.542126","185274.159026","186040.975961","186807.54834","187574.290764","189883.707902","Mapping"
"Blocked","m150","done","23","m150jaw.wav","space","408.719859086","101","181458.110896","188341.092859","189107.373688","189874.608007","190641.193681","191407.52645","NA","NA","182224.932469","182990.968742","183757.555034","184507.542126","185274.159026","186040.975961","186807.54834","187574.290764","190650.861836","Mapping"
"Blocked","m150","done","23","m150done.wav","None","725.981029682","101","181458.110896","188341.092859","189107.373688","189874.608007","190641.193681","191407.52645","192174.903298","NA","182224.932469","182990.968742","183757.555034","184507.542126","185274.159026","186040.975961","186807.54834","187574.290764","191416.267086","Mapping"
"Blocked","m150","done","23","m150jolt.wav","space","563.073033234","101","181458.110896","188341.092859","189107.373688","189874.608007","190641.193681","191407.52645","192174.903298","192941.487735","182224.932469","182990.968742","183757.555034","184507.542126","185274.159026","186040.975961","186807.54834","187574.290764","192184.507145","Mapping"
"Blocked","m150","done","21","m150ball.wav","None","720.83546035","101","196091.435191","188341.092859","189107.373688","189874.608007","190641.193681","191407.52645","192174.903298","192941.487735","182224.932469","182990.968742","183757.555034","184507.542126","185274.159026","186040.975961","186807.54834","187574.290764","192951.128374","Mapping"
"Blocked","m150","done","21","m150done.wav","None","722.432648996","101","196091.435191","188341.092859","189107.373688","189874.608007","190641.193681","191407.52645","192174.903298","192941.487735","196857.951919","182990.968742","183757.555034","184507.542126","185274.159026","186040.975961","186807.54834","187574.290764","196101.39737","Mapping"
"Blocked","m150","done","21","m150lash.wav","space","480.020145653","101","196091.435191","188341.092859","189107.373688","189874.608007","190641.193681","191407.52645","192174.903298","192941.487735","196857.951919","197607.747324","183757.555034","184507.542126","185274.159026","186040.975961","186807.54834","187574.290764","196867.455903","Mapping"
"Blocked","m150","done","21","m150gnash.wav","None","733.565048315","101","196091.435191","188341.092859","189107.373688","189874.608007","190641.193681","191407.52645","192174.903298","192941.487735","196857.951919","197607.747324","198375.038531","184507.542126","185274.159026","186040.975961","186807.54834","187574.290764","197616.85804","Mapping"
"Blocked","m150","done","21","m150reek.wav","None","728.889112826","101","196091.435191","188341.092859","189107.373688","189874.608007","190641.193681","191407.52645","192174.903298","192941.487735","196857.951919","197607.747324","198375.038531","199140.71338","185274.159026","186040.975961","186807.54834","187574.290764","198384.757081","Mapping"
"Blocked","m150","done","21","m150done.wav","None","733.405205887","101","196091.435191","188341.092859","189107.373688","189874.608007","190641.193681","191407.52645","192174.903298","192941.487735","196857.951919","197607.747324","198375.038531","199140.71338","199907.605754","186040.975961","186807.54834","187574.290764","199149.531618","Mapping"
"Blocked","m150","done","21","m150cling.wav","space","414.738224586","101","196091.435191","188341.092859","189107.373688","189874.608007","190641.193681","191407.52645","192174.903298","192941.487735","196857.951919","197607.747324","198375.038531","199140.71338","199907.605754","200674.333337","186807.54834","187574.290764","199916.704412","Mapping"
"Blocked","m150","done","21","m150depth.wav","None","729.544869158","101","196091.435191","188341.092859","189107.373688","189874.608007","190641.193681","191407.52645","192174.903298","192941.487735","196857.951919","197607.747324","198375.038531","199140.71338","199907.605754","200674.333337","201441.008362","187574.290764","200683.307708","Mapping"
"Blocked","m150","done","21","m150tile.wav","None","725.352171576","101","196091.435191","188341.092859","189107.373688","189874.608007","190641.193681","191407.52645","192174.903298","192941.487735","196857.951919","197607.747324","198375.038531","199140.71338","199907.605754","200674.333337","201441.008362","202207.692044","201450.704034","Mapping"
"Blocked","m150","done","21","m150romp.wav","None","723.004310159","101","196091.435191","202974.23567","189107.373688","189874.608007","190641.193681","191407.52645","192174.903298","192941.487735","196857.951919","197607.747324","198375.038531","199140.71338","199907.605754","200674.333337","201441.008362","202207.692044","202216.853155","Mapping"
"Blocked","m150","done","21","m150dime.wav","None","723.577208119","101","196091.435191","202974.23567","203741.376928","189874.608007","190641.193681","191407.52645","192174.903298","192941.487735","196857.951919","197607.747324","198375.038531","199140.71338","199907.605754","200674.333337","201441.008362","202207.692044","202982.993619","Mapping"
"Blocked","m150","done","21","m150cave.wav","space","505.595571129","101","196091.435191","202974.23567","203741.376928","204491.357527","190641.193681","191407.52645","192174.903298","192941.487735","196857.951919","197607.747324","198375.038531","199140.71338","199907.605754","200674.333337","201441.008362","202207.692044","203753.781575","Mapping"
"Blocked","m150","done","21","m150done.wav","None","736.100886948","101","196091.435191","202974.23567","203741.376928","204491.357527","205257.615168","191407.52645","192174.903298","192941.487735","196857.951919","197607.747324","198375.038531","199140.71338","199907.605754","200674.333337","201441.008362","202207.692044","204500.228634","Mapping"
"Blocked","m150","done","21","m150knife.wav","space","504.126998596","101","196091.435191","202974.23567","203741.376928","204491.357527","205257.615168","206024.260821","192174.903298","192941.487735","196857.951919","197607.747324","198375.038531","199140.71338","199907.605754","200674.333337","201441.008362","202207.692044","205267.222725","Mapping"
"Blocked","m150","done","21","m150done.wav","None","731.331272051","101","196091.435191","202974.23567","203741.376928","204491.357527","205257.615168","206024.260821","206790.894416","192941.487735","196857.951919","197607.747324","198375.038531","199140.71338","199907.605754","200674.333337","201441.008362","202207.692044","206034.926369","Mapping"
"Blocked","m150","done","21","m150greet.wav","space","483.664679341","101","196091.435191","202974.23567","203741.376928","204491.357527","205257.615168","206024.260821","206790.894416","207557.43897","196857.951919","197607.747324","198375.038531","199140.71338","199907.605754","200674.333337","201441.008362","202207.692044","206799.634124","Mapping"
"Blocked","m150","done","20","m150cad.wav","None","724.930149969","101","210674.631999","202974.23567","203741.376928","204491.357527","205257.615168","206024.260821","206790.894416","207557.43897","196857.951919","197607.747324","198375.038531","199140.71338","199907.605754","200674.333337","201441.008362","202207.692044","207567.687752","Mapping"
"Blocked","m150","done","20","m150gnash.wav","None","715.293839574","101","210674.631999","202974.23567","203741.376928","204491.357527","205257.615168","206024.260821","206790.894416","207557.43897","211424.142655","197607.747324","198375.038531","199140.71338","199907.605754","200674.333337","201441.008362","202207.692044","210688.857058","Mapping"
"Blocked","m150","done","20","m150priest.wav","None","734.130216995","101","210674.631999","202974.23567","203741.376928","204491.357527","205257.615168","206024.260821","206790.894416","207557.43897","211424.142655","212190.85478","198375.038531","199140.71338","199907.605754","200674.333337","201441.008362","202207.692044","211433.165566","Mapping"
"Blocked","m150","done","20","m150cling.wav","None","730.47733563","101","210674.631999","202974.23567","203741.376928","204491.357527","205257.615168","206024.260821","206790.894416","207557.43897","211424.142655","212190.85478","212957.492395","199140.71338","199907.605754","200674.333337","201441.008362","202207.692044","212200.187483","Mapping"
"Blocked","m150","done","20","m150jaw.wav","None","727.524113143","101","210674.631999","202974.23567","203741.376928","204491.357527","205257.615168","206024.260821","206790.894416","207557.43897","211424.142655","212190.85478","212957.492395","213724.714038","199907.605754","200674.333337","201441.008362","202207.692044","212966.560754","Mapping"
"Blocked","m150","done","20","m150done.wav","None","722.187783802","101","210674.631999","202974.23567","203741.376928","204491.357527","205257.615168","206024.260821","206790.894416","207557.43897","211424.142655","212190.85478","212957.492395","213724.714038","214491.170786","200674.333337","201441.008362","202207.692044","213735.17244","Mapping"
"Blocked","m150","done","20","m150ball.wav","space","350.100311218","101","210674.631999","202974.23567","203741.376928","204491.357527","205257.615168","206024.260821","206790.894416","207557.43897","211424.142655","212190.85478","212957.492395","213724.714038","214491.170786","215240.741731","201441.008362","202207.692044","214501.066184","Mapping"
"Blocked","m150","done","20","m150tile.wav","None","733.751479769","101","210674.631999","202974.23567","203741.376928","204491.357527","205257.615168","206024.260821","206790.894416","207557.43897","211424.142655","212190.85478","212957.492395","213724.714038","214491.170786","215240.741731","216007.507344","202207.692044","215250.00085","Mapping"
"Blocked","m150","done","20","m150done.wav","None","728.888185229","101","210674.631999","202974.23567","203741.376928","204491.357527","205257.615168","206024.260821","206790.894416","207557.43897","211424.142655","212190.85478","212957.492395","213724.714038","214491.170786","215240.741731","216007.507344","216774.046951","216018.281102","Mapping"
"Blocked","m150","done","20","m150priest.wav","space","492.05811345","101","210674.631999","217541.076906","203741.376928","204491.357527","205257.615168","206024.260821","206790.894416","207557.43897","211424.142655","212190.85478","212957.492395","213724.714038","214491.170786","215240.741731","216007.507344","216774.046951","216783.0442","Mapping"
"Blocked","m150","done","20","m150done.wav","None","722.991943127","101","210674.631999","217541.076906","218307.706482","204491.357527","205257.615168","206024.260821","206790.894416","207557.43897","211424.142655","212190.85478","212957.492395","213724.714038","214491.170786","215240.741731","216007.507344","216774.046951","217550.635305","Mapping"
"Blocked","m150","done","20","m150bluff.wav","space","421.595686348","101","210674.631999","217541.076906","218307.706482","219074.451071","205257.615168","206024.260821","206790.894416","207557.43897","211424.142655","212190.85478","212957.492395","213724.714038","214491.170786","215240.741731","216007.507344","216774.046951","218317.532625","Mapping"
"Blocked","m150","done","20","m150park.wav","None","719.307835447","101","210674.631999","217541.076906","218307.706482","219074.451071","219841.293049","206024.260821","206790.894416","207557.43897","211424.142655","212190.85478","212957.492395","213724.714038","214491.170786","215240.741731","216007.507344","216774.046951","219084.342758","Mapping"
"Blocked","m150","done","20","m150depth.wav","None","719.582690392","101","210674.631999","217541.076906","218307.706482","219074.451071","219841.293049","220590.610163","206790.894416","207557.43897","211424.142655","212190.85478","212957.492395","213724.714038","214491.170786","215240.741731","216007.507344","216774.046951","219851.081782","Mapping"
"Blocked","m150","done","20","m150done.wav","None","734.356841072","101","210674.631999","217541.076906","218307.706482","219074.451071","219841.293049","220590.610163","221356.90645","207557.43897","211424.142655","212190.85478","212957.492395","213724.714038","214491.170786","215240.741731","216007.507344","216774.046951","220599.745921","Mapping"
"Blocked","m150","done","20","m150knife.wav","None","731.92395689","101","210674.631999","217541.076906","218307.706482","219074.451071","219841.293049","220590.610163","221356.90645","222123.957739","211424.142655","212190.85478","212957.492395","213724.714038","214491.170786","215240.741731","216007.507344","216774.046951","221365.642448","Mapping"
"Blocked","m150","cave","7","m150jolt.wav","None","728.727415204","101","225257.886313","217541.076906","218307.706482","219074.451071","219841.293049","220590.610163","221356.90645","222123.957739","211424.142655","212190.85478","212957.492395","213724.714038","214491.170786","215240.741731","216007.507344","216774.046951","222132.929017","Mapping"
"Blocked","m150","cave","7","m150reek.wav","None","719.22868723","101","225257.886313","217541.076906","218307.706482","219074.451071","219841.293049","220590.610163","221356.90645","222123.957739","226006.765637","212190.85478","212957.492395","213724.714038","214491.170786","215240.741731","216007.507344","216774.046951","225267.701016","Mapping"
"Blocked","m150","cave","7","m150greet.wav","None","734.755983576","101","225257.886313","217541.076906","218307.706482","219074.451071","219841.293049","220590.610163","221356.90645","222123.957739","226006.765637","226773.878142","212957.492395","213724.714038","214491.170786","215240.741731","216007.507344","216774.046951","226015.577073","Mapping"
"Blocked","m150","cave","7","m150jolt.wav","None","730.516291456","101","225257.886313","217541.076906","218307.706482","219074.451071","219841.293049","220590.610163","221356.90645","222123.957739","226006.765637","226773.878142","227540.542655","213724.714038","214491.170786","215240.741731","216007.507344","216774.046951","226783.143753","Mapping"
"Blocked","m150","cave","7","m150knife.wav","None","727.453621803","101","225257.886313","217541.076906","218307.706482","219074.451071","219841.293049","220590.610163","221356.90645","222123.957739","226006.765637","226773.878142","227540.542655","228306.980853","214491.170786","215240.741731","216007.507344","216774.046951","227549.587207","Mapping"
"Blocked","m150","cave","7","m150cave.wav","None","724.656841019","101","225257.886313","217541.076906","218307.706482","219074.451071","219841.293049","220590.610163","221356.90645","222123.957739","226006.765637","226773.878142","227540.542655","228306.980853","229074.244852","215240.741731","216007.507344","216774.046951","228315.782704","Mapping"
"Blocked","m150","cave","7","m150reek.wav","None","719.625356141","101","225257.886313","217541.076906","218307.706482","219074.451071","219841.293049","220590.610163","221356.90645","222123.957739","226006.765637","226773.878142","227540.542655","228306.980853","229074.244852","229823.411399","216007.507344","216774.046951","229084.397482","Mapping"
"Blocked","m150","cave","7","m150done.wav","None","735.328572337","101","225257.886313","217541.076906","218307.706482","219074.451071","219841.293049","220590.610163","221356.90645","222123.957739","226006.765637","226773.878142","227540.542655","228306.980853","229074.244852","229823.411399","230589.842176","216774.046951","229832.158836","Mapping"
"Blocked","m150","cave","7","m150cave.wav","None","736.319163116","101","225257.886313","217541.076906","218307.706482","219074.451071","219841.293049","220590.610163","221356.90645","222123.957739","226006.765637","226773.878142","227540.542655","228306.980853","229074.244852","229823.411399","230589.842176","231356.730531","230598.393907","Mapping"
"Blocked","m150","cave","7","m150dime.wav","None","732.665972551","101","225257.886313","232123.794495","218307.706482","219074.451071","219841.293049","220590.610163","221356.90645","222123.957739","226006.765637","226773.878142","227540.542655","228306.980853","229074.244852","229823.411399","230589.842176","231356.730531","231365.414897","Mapping"
"Blocked","m150","cave","7","m150cling.wav","None","729.157475056","101","225257.886313","232123.794495","232890.433656","219074.451071","219841.293049","220590.610163","221356.90645","222123.957739","226006.765637","226773.878142","227540.542655","228306.980853","229074.244852","229823.411399","230589.842176","231356.730531","232132.790199","Mapping"
"Blocked","m150","cave","7","m150cave.wav","None","725.158320041","101","225257.886313","232123.794495","232890.433656","233657.468558","219841.293049","220590.610163","221356.90645","222123.957739","226006.765637","226773.878142","227540.542655","228306.980853","229074.244852","229823.411399","230589.842176","231356.730531","232900.142312","Mapping"
"Blocked","m150","cave","7","m150knife.wav","None","721.74690268","101","225257.886313","232123.794495","232890.433656","233657.468558","234406.937166","220590.610163","221356.90645","222123.957739","226006.765637","226773.878142","227540.542655","228306.980853","229074.244852","229823.411399","230589.842176","231356.730531","233667.067767","Mapping"
"Blocked","m150","cave","7","m150cave.wav","None","736.125620781","101","225257.886313","232123.794495","232890.433656","233657.468558","234406.937166","235173.728131","221356.90645","222123.957739","226006.765637","226773.878142","227540.542655","228306.980853","229074.244852","229823.411399","230589.842176","231356.730531","234416.035206","Mapping"
"Blocked","m150","cave","7","m150reek.wav","None","732.883939752","101","225257.886313","232123.794495","232890.433656","233657.468558","234406.937166","235173.728131","235940.394808","222123.957739","226006.765637","226773.878142","227540.542655","228306.980853","229074.244852","229823.411399","230589.842176","231356.730531","235182.721979","Mapping"
"Blocked","m150","cave","7","m150gnash.wav","None","729.52137189","101","225257.886313","232123.794495","232890.433656","233657.468558","234406.937166","235173.728131","235940.394808","236707.009853","226006.765637","226773.878142","227540.542655","228306.980853","229074.244852","229823.411399","230589.842176","231356.730531","235949.634758","Mapping"
"Blocked","m150","ball","1","m150bluff.wav","None","726.562275551","101","239824.068391","232123.794495","232890.433656","233657.468558","234406.937166","235173.728131","235940.394808","236707.009853","226006.765637","226773.878142","227540.542655","228306.980853","229074.244852","229823.411399","230589.842176","231356.730531","236716.100782","Mapping"
"Blocked","m150","ball","1","m150ball.wav","None","719.920616597","101","239824.068391","232123.794495","232890.433656","233657.468558","234406.937166","235173.728131","235940.394808","236707.009853","240573.509793","226773.878142","227540.542655","228306.980853","229074.244852","229823.411399","230589.842176","231356.730531","239833.754788","Mapping"
"Blocked","m150","ball","1","m150tile.wav","None","734.354367713","101","239824.068391","232123.794495","232890.433656","233657.468558","234406.937166","235173.728131","235940.394808","236707.009853","240573.509793","241340.501411","227540.542655","228306.980853","229074.244852","229823.411399","230589.842176","231356.730531","240582.849915","Mapping"
"Blocked","m150","ball","1","m150romp.wav","None","731.165864272","101","239824.068391","232123.794495","232890.433656","233657.468558","234406.937166","235173.728131","235940.394808","236707.009853","240573.509793","241340.501411","242106.923223","228306.980853","229074.244852","229823.411399","230589.842176","231356.730531","241349.562968","Mapping"
"Blocked","m150","ball","1","m150cave.wav","None","728.078769986","101","239824.068391","232123.794495","232890.433656","233657.468558","234406.937166","235173.728131","235940.394808","236707.009853","240573.509793","241340.501411","242106.923223","242873.568258","229074.244852","229823.411399","230589.842176","231356.730531","242115.98478","Mapping"
"Blocked","m150","ball","1","m150ball.wav","None","724.618194392","101","239824.068391","232123.794495","232890.433656","233657.468558","234406.937166","235173.728131","235940.394808","236707.009853","240573.509793","241340.501411","242106.923223","242873.568258","243640.018513","229823.411399","230589.842176","231356.730531","242882.993712","Mapping"
"Blocked","m150","ball","1","m150done.wav","None","722.411315888","101","239824.068391","232123.794495","232890.433656","233657.468558","234406.937166","235173.728131","235940.394808","236707.009853","240573.509793","241340.501411","242106.923223","242873.568258","243640.018513","244390.137313","230589.842176","231356.730531","243648.846336","Mapping"
"Blocked","m150","ball","1","m150cave.wav","None","735.39628135","101","239824.068391","232123.794495","232890.433656","233657.468558","234406.937166","235173.728131","235940.394808","236707.009853","240573.509793","241340.501411","242106.923223","242873.568258","243640.018513","244390.137313","245156.846347","231356.730531","244399.60296","Mapping"
"Blocked","m150","ball","1","m150ball.wav","None","732.575694099","101","239824.068391","232123.794495","232890.433656","233657.468558","234406.937166","235173.728131","235940.394808","236707.009853","240573.509793","241340.501411","242106.923223","242873.568258","243640.018513","244390.137313","245156.846347","245923.858061","245165.965101","Mapping"
"Blocked","m150","ball","1","m150bluff.wav","None","728.905498981","101","239824.068391","246690.186502","232890.433656","233657.468558","234406.937166","235173.728131","235940.394808","236707.009853","240573.509793","241340.501411","242106.923223","242873.568258","243640.018513","244390.137313","245156.846347","245923.858061","245933.204367","Mapping"
"Blocked","m150","ball","1","m150cave.wav","None","726.245373022","101","239824.068391","246690.186502","247456.60615","233657.468558","234406.937166","235173.728131","235940.394808","236707.009853","240573.509793","241340.501411","242106.923223","242873.568258","243640.018513","244390.137313","245156.846347","245923.858061","246699.563416","Mapping"
"Blocked","m150","ball","1","m150jolt.wav","None","723.843096988","101","239824.068391","246690.186502","247456.60615","248223.330952","234406.937166","235173.728131","235940.394808","236707.009853","240573.509793","241340.501411","242106.923223","242873.568258","243640.018513","244390.137313","245156.846347","245923.858061","247465.421606","Mapping"
"Blocked","m150","ball","1","m150greet.wav","None","721.060229","101","239824.068391","246690.186502","247456.60615","248223.330952","248973.471084","235173.728131","235940.394808","236707.009853","240573.509793","241340.501411","242106.923223","242873.568258","243640.018513","244390.137313","245156.846347","245923.858061","248232.076225","Mapping"
"Blocked","m150","ball","1","m150cad.wav","None","734.082913492","101","239824.068391","246690.186502","247456.60615","248223.330952","248973.471084","249739.687605","235940.394808","236707.009853","240573.509793","241340.501411","242106.923223","242873.568258","243640.018513","244390.137313","245156.846347","245923.858061","248982.545009","Mapping"
"Blocked","m150","ball","1","m150ball.wav","None","731.777408859","101","239824.068391","246690.186502","247456.60615","248223.330952","248973.471084","249739.687605","250506.780323","236707.009853","240573.509793","241340.501411","242106.923223","242873.568258","243640.018513","244390.137313","245156.846347","245923.858061","249748.487911","Mapping"
"Blocked","m150","ball","1","m150bluff.wav","None","728.011060972","101","239824.068391","246690.186502","247456.60615","248223.330952","248973.471084","249739.687605","250506.780323","251273.068572","240573.509793","241340.501411","242106.923223","242873.568258","243640.018513","244390.137313","245156.846347","245923.858061","250515.859812","Mapping"
"Blocked","m150","tile","16","m150depth.wav","None","725.748840719","101","254390.72536","246690.186502","247456.60615","248223.330952","248973.471084","249739.687605","250506.780323","251273.068572","240573.509793","241340.501411","242106.923223","242873.568258","243640.018513","244390.137313","245156.846347","245923.858061","251281.862385","Mapping"
"Blocked","m150","tile","16","m150knife.wav","None","718.720406294","101","254390.72536","246690.186502","247456.60615","248223.330952","248973.471084","249739.687605","250506.780323","251273.068572","255140.028252","241340.501411","242106.923223","242873.568258","243640.018513","244390.137313","245156.846347","245923.858061","254400.835324","Mapping"
"Blocked","m150","tile","16","m150jaw.wav","None","733.889370924","101","254390.72536","246690.186502","247456.60615","248223.330952","248973.471084","249739.687605","250506.780323","251273.068572","255140.028252","255906.36164","242106.923223","242873.568258","243640.018513","244390.137313","245156.846347","245923.858061","255149.376722","Mapping"
"Blocked","m150","tile","16","m150tile.wav","None","731.754839187","101","254390.72536","246690.186502","247456.60615","248223.330952","248973.471084","249739.687605","250506.780323","251273.068572","255140.028252","255906.36164","256673.382321","242873.568258","243640.018513","244390.137313","245156.846347","245923.858061","255915.075069","Mapping"
"Blocked","m150","tile","16","m150jolt.wav","None","728.214806179","101","254390.72536","246690.186502","247456.60615","248223.330952","248973.471084","249739.687605","250506.780323","251273.068572","255140.028252","255906.36164","256673.382321","257440.004477","243640.018513","244390.137313","245156.846347","245923.858061","256682.414197","Mapping"
"Blocked","m150","tile","16","m150tile.wav","None","724.073740421","101","254390.72536","246690.186502","247456.60615","248223.330952","248973.471084","249739.687605","250506.780323","251273.068572","255140.028252","255906.36164","256673.382321","257440.004477","258206.875208","244390.137313","245156.846347","245923.858061","257450.253259","Mapping"
"Blocked","m150","tile","16","m150gnash.wav","None","721.766071627","101","254390.72536","246690.186502","247456.60615","248223.330952","248973.471084","249739.687605","250506.780323","251273.068572","255140.028252","255906.36164","256673.382321","257440.004477","258206.875208","258956.784698","245156.846347","245923.858061","258216.300662","Mapping"
"Blocked","m150","tile","16","m150dime.wav","None","736.124693416","101","254390.72536","246690.186502","247456.60615","248223.330952","248973.471084","249739.687605","250506.780323","251273.068572","255140.028252","255906.36164","256673.382321","257440.004477","258206.875208","258956.784698","259722.902901","245923.858061","258965.809154","Mapping"
"Blocked","m150","tile","16","m150gnash.wav","None","734.496896388","101","254390.72536","246690.186502","247456.60615","248223.330952","248973.471084","249739.687605","250506.780323","251273.068572","255140.028252","255906.36164","256673.382321","257440.004477","258206.875208","258956.784698","259722.902901","260489.932239","259731.721448","Mapping"
"Blocked","m150","tile","16","m150cave.wav","None","730.685099959","101","254390.72536","261256.603862","247456.60615","248223.330952","248973.471084","249739.687605","250506.780323","251273.068572","255140.028252","255906.36164","256673.382321","257440.004477","258206.875208","258956.784698","259722.902901","260489.932239","260499.199087","Mapping"
"Blocked","m150","tile","16","m150dime.wav","None","727.508963551","101","254390.72536","261256.603862","262023.219835","248223.330952","248973.471084","249739.687605","250506.780323","251273.068572","255140.028252","255906.36164","256673.382321","257440.004477","258206.875208","258956.784698","259722.902901","260489.932239","261266.118049","Mapping"
"Blocked","m150","tile","16","m150tile.wav","None","725.499337772","101","254390.72536","261256.603862","262023.219835","262790.288128","248973.471084","249739.687605","250506.780323","251273.068572","255140.028252","255906.36164","256673.382321","257440.004477","258206.875208","258956.784698","259722.902901","260489.932239","262031.962944","Mapping"
"Blocked","m150","tile","16","m150romp.wav","space","666.575872805","101","254390.72536","261256.603862","262023.219835","262790.288128","263539.633376","249739.687605","250506.780323","251273.068572","255140.028252","255906.36164","256673.382321","257440.004477","258206.875208","258956.784698","259722.902901","260489.932239","262799.723166","Mapping"
"Blocked","m150","tile","16","m150tile.wav","None","735.491197323","101","254390.72536","261256.603862","262023.219835","262790.288128","263539.633376","264306.51802","250506.780323","251273.068572","255140.028252","255906.36164","256673.382321","257440.004477","258206.875208","258956.784698","259722.902901","260489.932239","263549.237842","Mapping"
"Blocked","m150","tile","16","m150park.wav","space","390.795233659","101","254390.72536","261256.603862","262023.219835","262790.288128","263539.633376","264306.51802","265073.223962","251273.068572","255140.028252","255906.36164","256673.382321","257440.004477","258206.875208","258956.784698","259722.902901","260489.932239","264315.455908","Mapping"
"Blocked","m150","tile","16","m150lash.wav","None","729.447788792","101","254390.72536","261256.603862","262023.219835","262790.288128","263539.633376","264306.51802","265073.223962","265839.48253","255140.028252","255906.36164","256673.382321","257440.004477","258206.875208","258956.784698","259722.902901","260489.932239","265082.251511","Mapping"
"Blocked","m150","cave","10","m150cling.wav","None","727.218341082","101","268956.75378","261256.603862","262023.219835","262790.288128","263539.633376","264306.51802","265073.223962","265839.48253","255140.028252","255906.36164","256673.382321","257440.004477","258206.875208","258956.784698","259722.902901","260489.932239","265848.317464","Mapping"
"Blocked","m150","cave","10","m150cave.wav","None","719.927418511","101","268956.75378","261256.603862","262023.219835","262790.288128","263539.633376","264306.51802","265073.223962","265839.48253","269706.423352","255906.36164","256673.382321","257440.004477","258206.875208","258956.784698","259722.902901","260489.932239","268966.172742","Mapping"
"Blocked","m150","cave","10","m150jolt.wav","space","502.271340927","101","268956.75378","261256.603862","262023.219835","262790.288128","263539.633376","264306.51802","265073.223962","265839.48253","269706.423352","270472.765087","256673.382321","257440.004477","258206.875208","258956.784698","259722.902901","260489.932239","269715.872612","Mapping"
"Blocked","m150","cave","10","m150ball.wav","None","731.00169329","101","268956.75378","261256.603862","262023.219835","262790.288128","263539.633376","264306.51802","265073.223962","265839.48253","269706.423352","270472.765087","271239.326027","257440.004477","258206.875208","258956.784698","259722.902901","260489.932239","270481.649179","Mapping"
"Blocked","m150","cave","10","m150cave.wav","None","728.500172962","101","268956.75378","261256.603862","262023.219835","262790.288128","263539.633376","264306.51802","265073.223962","265839.48253","269706.423352","270472.765087","271239.326027","272007.09367","258206.875208","258956.784698","259722.902901","260489.932239","271247.997099","Mapping"
"Blocked","m150","cave","10","m150knife.wav","space","457.508626627","101","268956.75378","261256.603862","262023.219835","262790.288128","263539.633376","264306.51802","265073.223962","265839.48253","269706.423352","270472.765087","271239.326027","272007.09367","272773.414073","258956.784698","259722.902901","260489.932239","272016.668146","Mapping"
"Blocked","m150","cave","10","m150cave.wav","None","719.950606348","101","268956.75378","261256.603862","262023.219835","262790.288128","263539.633376","264306.51802","265073.223962","265839.48253","269706.423352","270472.765087","271239.326027","272007.09367","272773.414073","273522.90185","259722.902901","260489.932239","272782.997205","Mapping"
"Blocked","m150","cave","10","m150dime.wav","space","358.144688886","101","268956.75378","261256.603862","262023.219835","262790.288128","263539.633376","264306.51802","265073.223962","265839.48253","269706.423352","270472.765087","271239.326027","272007.09367","272773.414073","273522.90185","274289.681375","260489.932239","273531.989687","Mapping"
"Blocked","m150","cave","10","m150cave.wav","None","730.525257299","101","268956.75378","261256.603862","262023.219835","262790.288128","263539.633376","264306.51802","265073.223962","265839.48253","269706.423352","270472.765087","271239.326027","272007.09367","272773.414073","273522.90185","274289.681375","275056.431529","274299.193398","Mapping"
"Blocked","m150","cave","10","m150ball.wav","space","448.457890656","101","268956.75378","275823.337506","262023.219835","262790.288128","263539.633376","264306.51802","265073.223962","265839.48253","269706.423352","270472.765087","271239.326027","272007.09367","272773.414073","273522.90185","274289.681375","275056.431529","275065.611809","Mapping"
"Blocked","m150","cave","10","m150dime.wav","None","723.346564919","101","268956.75378","275823.337506","276590.040975","262790.288128","263539.633376","264306.51802","265073.223962","265839.48253","269706.423352","270472.765087","271239.326027","272007.09367","272773.414073","273522.90185","274289.681375","275056.431529","275833.011845","Mapping"
"Blocked","m150","cave","10","m150knife.wav","None","720.729723107","101","268956.75378","275823.337506","276590.040975","277339.580384","263539.633376","264306.51802","265073.223962","265839.48253","269706.423352","270472.765087","271239.326027","272007.09367","272773.414073","273522.90185","274289.681375","275056.431529","276599.64915","Mapping"
"Blocked","m150","cave","10","m150reek.wav","None","734.711153433","101","268956.75378","275823.337506","276590.040975","277339.580384","278105.909134","264306.51802","265073.223962","265839.48253","269706.423352","270472.765087","271239.326027","272007.09367","272773.414073","273522.90185","274289.681375","275056.431529","277349.350257","Mapping"
"Blocked","m150","cave","10","m150romp.wav","None","733.105616877","101","268956.75378","275823.337506","276590.040975","277339.580384","278105.909134","278872.957022","265073.223962","265839.48253","269706.423352","270472.765087","271239.326027","272007.09367","272773.414073","273522.90185","274289.681375","275056.431529","278114.678214","Mapping"
"Blocked","m150","cave","10","m150romp.wav","None","729.487363016","101","268956.75378","275823.337506","276590.040975","277339.580384","278105.909134","278872.957022","279639.513324","265839.48253","269706.423352","270472.765087","271239.326027","272007.09367","272773.414073","273522.90185","274289.681375","275056.431529","278881.964474","Mapping"
"Blocked","m150","cave","10","m150reek.wav","None","726.193740964","101","268956.75378","275823.337506","276590.040975","277339.580384","278105.909134","278872.957022","279639.513324","280406.054477","269706.423352","270472.765087","271239.326027","272007.09367","272773.414073","273522.90185","274289.681375","275056.431529","279648.978043","Mapping"
"Blocked","m150","cave","8","m150park.wav","None","724.191535264","101","283523.281206","275823.337506","276590.040975","277339.580384","278105.909134","278872.957022","279639.513324","280406.054477","269706.423352","270472.765087","271239.326027","272007.09367","272773.414073","273522.90185","274289.681375","275056.431529","280414.952482","Mapping"
"Blocked","m150","cave","8","m150cling.wav","space","309.112292714","101","283523.281206","275823.337506","276590.040975","277339.580384","278105.909134","278872.957022","279639.513324","280406.054477","284272.882449","270472.765087","271239.326027","272007.09367","272773.414073","273522.90185","274289.681375","275056.431529","283532.827237","Mapping"
"Blocked","m150","cave","8","m150cave.wav","None","733.932655072","101","283523.281206","275823.337506","276590.040975","277339.580384","278105.909134","278872.957022","279639.513324","280406.054477","284272.882449","285039.534905","271239.326027","272007.09367","272773.414073","273522.90185","274289.681375","275056.431529","284281.649674","Mapping"
"Blocked","m150","cave","8","m150greet.wav","space","544.827176956","101","283523.281206","275823.337506","276590.040975","277339.580384","278105.909134","278872.957022","279639.513324","280406.054477","284272.882449","285039.534905","285805.758227","272007.09367","272773.414073","273522.90185","274289.681375","275056.431529","285049.069188","Mapping"
"Blocked","m150","cave","8","m150depth.wav","None","727.853382705","101","283523.281206","275823.337506","276590.040975","277339.580384","278105.909134","278872.957022","279639.513324","280406.054477","284272.882449","285039.534905","285805.758227","286573.100757","272773.414073","273522.90185","274289.681375","275056.431529","285814.51123","Mapping"
"Blocked","m150","cave","8","m150reek.wav","None","723.180229776","101","283523.281206","275823.337506","276590.040975","277339.580384","278105.909134","278872.957022","279639.513324","280406.054477","284272.882449","285039.534905","285805.758227","286573.100757","287339.744864","273522.90185","274289.681375","275056.431529","286582.877741","Mapping"
"Blocked","m150","cave","8","m150cave.wav","None","725.947948173","101","283523.281206","275823.337506","276590.040975","277339.580384","278105.909134","278872.957022","279639.513324","280406.054477","284272.882449","285039.534905","285805.758227","286573.100757","287339.744864","288088.996742","274289.681375","275056.431529","287343.959513","Mapping"
"Blocked","m150","cave","8","m150knife.wav","space","624.102585949","101","283523.281206","275823.337506","276590.040975","277339.580384","278105.909134","278872.957022","279639.513324","280406.054477","284272.882449","285039.534905","285805.758227","286573.100757","287339.744864","288088.996742","288856.293823","275056.431529","288097.75531","Mapping"
"Blocked","m150","cave","8","m150cave.wav","None","731.123816688","101","283523.281206","275823.337506","276590.040975","277339.580384","278105.909134","278872.957022","279639.513324","280406.054477","284272.882449","285039.534905","285805.758227","286573.100757","287339.744864","288088.996742","288856.293823","289622.792928","288865.651259","Mapping"
"Blocked","m150","cave","8","m150park.wav","space","706.088516861","101","283523.281206","290389.434253","276590.040975","277339.580384","278105.909134","278872.957022","279639.513324","280406.054477","284272.882449","285039.534905","285805.758227","286573.100757","287339.744864","288088.996742","288856.293823","289622.792928","289631.797598","Mapping"
"Blocked","m150","cave","8","m150tile.wav","None","724.52204139","101","283523.281206","290389.434253","291156.334047","277339.580384","278105.909134","278872.957022","279639.513324","280406.054477","284272.882449","285039.534905","285805.758227","286573.100757","287339.744864","288088.996742","288856.293823","289622.792928","290399.031608","Mapping"
"Blocked","m150","cave","8","m150cling.wav","None","721.383315045","101","283523.281206","290389.434253","291156.334047","291905.715159","278105.909134","278872.957022","279639.513324","280406.054477","284272.882449","285039.534905","285805.758227","286573.100757","287339.744864","288088.996742","288856.293823","289622.792928","291165.966647","Mapping"
"Blocked","m150","cave","8","m150cave.wav","None","736.993469996","101","283523.281206","290389.434253","291156.334047","291905.715159","292672.709251","278872.957022","279639.513324","280406.054477","284272.882449","285039.534905","285805.758227","286573.100757","287339.744864","288088.996742","288856.293823","289622.792928","291914.383757","Mapping"
"Blocked","m150","cave","8","m150lash.wav","space","519.64903879","101","283523.281206","290389.434253","291156.334047","291905.715159","292672.709251","293439.387986","279639.513324","280406.054477","284272.882449","285039.534905","285805.758227","286573.100757","287339.744864","288088.996742","288856.293823","289622.792928","292682.124193","Mapping"
"Blocked","m150","cave","8","m150bluff.wav","None","729.542704998","101","283523.281206","290389.434253","291156.334047","291905.715159","292672.709251","293439.387986","294205.436316","280406.054477","284272.882449","285039.534905","285805.758227","286573.100757","287339.744864","288088.996742","288856.293823","289622.792928","293448.645249","Mapping"
"Blocked","m150","cave","8","m150ball.wav","None","730.605024146","101","283523.281206","290389.434253","291156.334047","291905.715159","292672.709251","293439.387986","294205.436316","294972.569226","284272.882449","285039.534905","285805.758227","286573.100757","287339.744864","288088.996742","288856.293823","289622.792928","294214.153454","Mapping"
"Blocked","m150","ball","3","m150priest.wav","None","726.999446284","101","298089.53594","290389.434253","291156.334047","291905.715159","292672.709251","293439.387986","294205.436316","294972.569226","284272.882449","285039.534905","285805.758227","286573.100757","287339.744864","288088.996742","288856.293823","289622.792928","294981.60605","Mapping"
"Blocked","m150","ball","3","m150romp.wav","None","719.055240741","101","298089.53594","290389.434253","291156.334047","291905.715159","292672.709251","293439.387986","294205.436316","294972.569226","298839.29579","285039.534905","285805.758227","286573.100757","287339.744864","288088.996742","288856.293823","289622.792928","298099.74855","Mapping"
"Blocked","m150","ball","3","m150jolt.wav","None","733.965427615","101","298089.53594","290389.434253","291156.334047","291905.715159","292672.709251","293439.387986","294205.436316","294972.569226","298839.29579","299606.002969","285805.758227","286573.100757","287339.744864","288088.996742","288856.293823","289622.792928","298848.532958","Mapping"
"Blocked","m150","ball","3","m150bluff.wav","None","731.141748838","101","298089.53594","290389.434253","291156.334047","291905.715159","292672.709251","293439.387986","294205.436316","294972.569226","298839.29579","299606.002969","300372.558343","286573.100757","287339.744864","288088.996742","288856.293823","289622.792928","299615.17892","Mapping"
"Blocked","m150","ball","3","m150done.wav","None","728.621059796","101","298089.53594","290389.434253","291156.334047","291905.715159","292672.709251","293439.387986","294205.436316","294972.569226","298839.29579","299606.002969","300372.558343","301139.184209","287339.744864","288088.996742","288856.293823","289622.792928","300381.61248","Mapping"
"Blocked","m150","ball","3","m150ball.wav","None","725.212425226","101","298089.53594","290389.434253","291156.334047","291905.715159","292672.709251","293439.387986","294205.436316","294972.569226","298839.29579","299606.002969","300372.558343","301139.184209","301905.659817","288088.996742","288856.293823","289622.792928","301148.865659","Mapping"
"Blocked","m150","ball","3","m150jaw.wav","space","527.11248002","101","298089.53594","290389.434253","291156.334047","291905.715159","292672.709251","293439.387986","294205.436316","294972.569226","298839.29579","299606.002969","300372.558343","301139.184209","301905.659817","302656.21146","288856.293823","289622.792928","301914.484548","Mapping"
"Blocked","m150","ball","3","m150ball.wav","None","735.861586872","101","298089.53594","290389.434253","291156.334047","291905.715159","292672.709251","293439.387986","294205.436316","294972.569226","298839.29579","299606.002969","300372.558343","301139.184209","301905.659817","302656.21146","303422.474047","289622.792928","302665.45512","Mapping"
"Blocked","m150","ball","3","m150cling.wav","space","353.71299996","101","298089.53594","290389.434253","291156.334047","291905.715159","292672.709251","293439.387986","294205.436316","294972.569226","298839.29579","299606.002969","300372.558343","301139.184209","301905.659817","302656.21146","303422.474047","304188.702007","303431.876932","Mapping"
"Blocked","m150","ball","3","m150cad.wav","None","730.935530271","101","298089.53594","304955.522962","291156.334047","291905.715159","292672.709251","293439.387986","294205.436316","294972.569226","298839.29579","299606.002969","300372.558343","301139.184209","301905.659817","302656.21146","303422.474047","304188.702007","304197.408943","Mapping"
"Blocked","m150","ball","3","m150greet.wav","None","727.783200331","101","298089.53594","304955.522962","305722.887443","291905.715159","292672.709251","293439.387986","294205.436316","294972.569226","298839.29579","299606.002969","300372.558343","301139.184209","301905.659817","302656.21146","303422.474047","304188.702007","304964.26638","Mapping"
"Blocked","m150","ball","3","m150ball.wav","None","723.801049404","101","298089.53594","304955.522962","305722.887443","306489.414992","292672.709251","293439.387986","294205.436316","294972.569226","298839.29579","299606.002969","300372.558343","301139.184209","301905.659817","302656.21146","303422.474047","304188.702007","305732.325573","Mapping"
"Blocked","m150","ball","3","m150bluff.wav","space","454.522322863","101","298089.53594","304955.522962","305722.887443","306489.414992","307238.625441","293439.387986","294205.436316","294972.569226","298839.29579","299606.002969","300372.558343","301139.184209","301905.659817","302656.21146","303422.474047","304188.702007","306498.99225","Mapping"
"Blocked","m150","ball","3","m150knife.wav","None","735.998859862","101","298089.53594","304955.522962","305722.887443","306489.414992","307238.625441","308005.307885","294205.436316","294972.569226","298839.29579","299606.002969","300372.558343","301139.184209","301905.659817","302656.21146","303422.474047","304188.702007","307247.436258","Mapping"
"Blocked","m150","ball","3","m150ball.wav","None","733.100051759","101","298089.53594","304955.522962","305722.887443","306489.414992","307238.625441","308005.307885","308771.980128","294972.569226","298839.29579","299606.002969","300372.558343","301139.184209","301905.659817","302656.21146","303422.474047","304188.702007","308014.175591","Mapping"
"Blocked","m150","ball","3","m150tile.wav","None","730.372834951","101","298089.53594","304955.522962","305722.887443","306489.414992","307238.625441","308005.307885","308771.980128","309539.005136","298839.29579","299606.002969","300372.558343","301139.184209","301905.659817","302656.21146","303422.474047","304188.702007","308780.843196","Mapping"
"Blocked","m150","tile","15","m150jolt.wav","None","726.586390985","101","312655.77367","304955.522962","305722.887443","306489.414992","307238.625441","308005.307885","308771.980128","309539.005136","298839.29579","299606.002969","300372.558343","301139.184209","301905.659817","302656.21146","303422.474047","304188.702007","309548.805617","Mapping"
"Blocked","m150","tile","15","m150park.wav","None","719.690900994","101","312655.77367","304955.522962","305722.887443","306489.414992","307238.625441","308005.307885","308771.980128","309539.005136","313405.113354","299606.002969","300372.558343","301139.184209","301905.659817","302656.21146","303422.474047","304188.702007","312665.811287","Mapping"
"Blocked","m150","tile","15","m150cling.wav","None","735.499235801","101","312655.77367","304955.522962","305722.887443","306489.414992","307238.625441","308005.307885","308771.980128","309539.005136","313405.113354","314172.008201","300372.558343","301139.184209","301905.659817","302656.21146","303422.474047","304188.702007","313414.033001","Mapping"
"Blocked","m150","tile","15","m150tile.wav","None","732.648040634","101","312655.77367","304955.522962","305722.887443","306489.414992","307238.625441","308005.307885","308771.980128","309539.005136","313405.113354","314172.008201","314938.971065","301139.184209","301905.659817","302656.21146","303422.474047","304188.702007","314180.976078","Mapping"
"Blocked","m150","tile","15","m150gnash.wav","None","729.01772894","101","312655.77367","304955.522962","305722.887443","306489.414992","307238.625441","308005.307885","308771.980128","309539.005136","313405.113354","314172.008201","314938.971065","315705.473881","301905.659817","302656.21146","303422.474047","304188.702007","314948.68807","Mapping"
"Blocked","m150","tile","15","m150park.wav","None","727.115695365","101","312655.77367","304955.522962","305722.887443","306489.414992","307238.625441","308005.307885","308771.980128","309539.005136","313405.113354","314172.008201","314938.971065","315705.473881","316472.719021","302656.21146","303422.474047","304188.702007","315714.610258","Mapping"
"Blocked","m150","tile","15","m150tile.wav","None","723.532996373","101","312655.77367","304955.522962","305722.887443","306489.414992","307238.625441","308005.307885","308771.980128","309539.005136","313405.113354","314172.008201","314938.971065","315705.473881","316472.719021","317239.350143","303422.474047","304188.702007","316482.199198","Mapping"
"Blocked","m150","tile","15","m150jaw.wav","None","713.289469946","101","312655.77367","304955.522962","305722.887443","306489.414992","307238.625441","308005.307885","308771.980128","309539.005136","313405.113354","314172.008201","314938.971065","315705.473881","316472.719021","317239.350143","317988.938092","304188.702007","317256.613447","Mapping"
"Blocked","m150","tile","15","m150greet.wav","space","570.826787967","101","312655.77367","304955.522962","305722.887443","306489.414992","307238.625441","308005.307885","308771.980128","309539.005136","313405.113354","314172.008201","314938.971065","315705.473881","316472.719021","317239.350143","317988.938092","318755.515109","317998.479177","Mapping"
"Blocked","m150","tile","15","m150cling.wav","None","732.220454141","101","312655.77367","319521.936612","305722.887443","306489.414992","307238.625441","308005.307885","308771.980128","309539.005136","313405.113354","314172.008201","314938.971065","315705.473881","316472.719021","317239.350143","317988.938092","318755.515109","318764.798962","Mapping"
"Blocked","m150","tile","15","m150tile.wav","None","729.801482987","101","312655.77367","319521.936612","320288.869177","306489.414992","307238.625441","308005.307885","308771.980128","309539.005136","313405.113354","314172.008201","314938.971065","315705.473881","316472.719021","317239.350143","317988.938092","318755.515109","319531.221392","Mapping"
"Blocked","m150","tile","15","m150dime.wav","space","502.912566299","101","312655.77367","319521.936612","320288.869177","321055.842245","307238.625441","308005.307885","308771.980128","309539.005136","313405.113354","314172.008201","314938.971065","315705.473881","316472.719021","317239.350143","317988.938092","318755.515109","320298.379345","Mapping"
"Blocked","m150","tile","15","m150park.wav","None","722.113272874","101","312655.77367","319521.936612","320288.869177","321055.842245","321822.508613","308005.307885","308771.980128","309539.005136","313405.113354","314172.008201","314938.971065","315705.473881","316472.719021","317239.350143","317988.938092","318755.515109","321066.292608","Mapping"
"Blocked","m150","tile","15","m150tile.wav","None","719.407698372","101","312655.77367","319521.936612","320288.869177","321055.842245","321822.508613","322572.002883","308771.980128","309539.005136","313405.113354","314172.008201","314938.971065","315705.473881","316472.719021","317239.350143","317988.938092","318755.515109","321833.0508","Mapping"
"Blocked","m150","tile","15","m150depth.wav","space","451.945673442","101","312655.77367","319521.936612","320288.869177","321055.842245","321822.508613","322572.002883","323338.429023","309539.005136","313405.113354","314172.008201","314938.971065","315705.473881","316472.719021","317239.350143","317988.938092","318755.515109","322581.293228","Mapping"
"Blocked","m150","tile","15","m150gnash.wav","None","732.24889813","101","312655.77367","319521.936612","320288.869177","321055.842245","321822.508613","322572.002883","323338.429023","324105.477529","313405.113354","314172.008201","314938.971065","315705.473881","316472.719021","317239.350143","317988.938092","318755.515109","323347.466465","Mapping"
"Blocked","m150","ball","2","m150tile.wav","None","728.946000803","101","327239.139287","319521.936612","320288.869177","321055.842245","321822.508613","322572.002883","323338.429023","324105.477529","313405.113354","314172.008201","314938.971065","315705.473881","316472.719021","317239.350143","317988.938092","318755.515109","324114.757671","Mapping"
"Blocked","m150","ball","2","m150ball.wav","None","719.243836356","101","327239.139287","319521.936612","320288.869177","321055.842245","321822.508613","322572.002883","323338.429023","324105.477529","327988.249254","314172.008201","314938.971065","315705.473881","316472.719021","317239.350143","317988.938092","318755.515109","327249.033447","Mapping"
"Blocked","m150","ball","2","m150depth.wav","space","636.01070107","101","327239.139287","319521.936612","320288.869177","321055.842245","321822.508613","322572.002883","323338.429023","324105.477529","327988.249254","328755.059697","314938.971065","315705.473881","316472.719021","317239.350143","317988.938092","318755.515109","327997.117269","Mapping"
"Blocked","m150","ball","2","m150ball.wav","None","731.282731751","101","327239.139287","319521.936612","320288.869177","321055.842245","321822.508613","322572.002883","323338.429023","324105.477529","327988.249254","328755.059697","329522.024107","315705.473881","316472.719021","317239.350143","317988.938092","318755.515109","328764.038705","Mapping"
"Blocked","m150","ball","2","m150cave.wav","space","605.93835148","101","327239.139287","319521.936612","320288.869177","321055.842245","321822.508613","322572.002883","323338.429023","324105.477529","327988.249254","328755.059697","329522.024107","330289.184225","316472.719021","317239.350143","317988.938092","318755.515109","329531.204078","Mapping"
"Blocked","m150","ball","2","m150ball.wav","None","723.810633877","101","327239.139287","319521.936612","320288.869177","321055.842245","321822.508613","322572.002883","323338.429023","324105.477529","327988.249254","328755.059697","329522.024107","330289.184225","331055.719194","317239.350143","317988.938092","318755.515109","330298.729329","Mapping"
"Blocked","m150","ball","2","m150jaw.wav","space","383.401974803","101","327239.139287","319521.936612","320288.869177","321055.842245","321822.508613","322572.002883","323338.429023","324105.477529","327988.249254","328755.059697","329522.024107","330289.184225","331055.719194","331805.026105","317988.938092","318755.515109","331065.686629","Mapping"
"Blocked","m150","ball","2","m150gnash.wav","None","734.837605152","101","327239.139287","319521.936612","320288.869177","321055.842245","321822.508613","322572.002883","323338.429023","324105.477529","327988.249254","328755.059697","329522.024107","330289.184225","331055.719194","331805.026105","332571.960835","318755.515109","331814.983028","Mapping"
"Blocked","m150","ball","2","m150ball.wav","None","732.569201384","101","327239.139287","319521.936612","320288.869177","321055.842245","321822.508613","322572.002883","323338.429023","324105.477529","327988.249254","328755.059697","329522.024107","330289.184225","331055.719194","331805.026105","332571.960835","333338.280929","332581.337131","Mapping"
"Blocked","m150","ball","2","m150cling.wav","space","365.71974121","101","327239.139287","334105.262963","320288.869177","321055.842245","321822.508613","322572.002883","323338.429023","324105.477529","327988.249254","328755.059697","329522.024107","330289.184225","331055.719194","331805.026105","332571.960835","333338.280929","333347.331974","Mapping"
"Blocked","m150","ball","2","m150lash.wav","None","726.410471369","101","327239.139287","334105.262963","334872.286735","321055.842245","321822.508613","322572.002883","323338.429023","324105.477529","327988.249254","328755.059697","329522.024107","330289.184225","331055.719194","331805.026105","332571.960835","333338.280929","334114.90051","Mapping"
"Blocked","m150","ball","2","m150priest.wav","None","722.865800606","101","327239.139287","334105.262963","334872.286735","335639.013082","321822.508613","322572.002883","323338.429023","324105.477529","327988.249254","328755.059697","329522.024107","330289.184225","331055.719194","331805.026105","332571.960835","333338.280929","334882.466881","Mapping"
"Blocked","m150","ball","2","m150cad.wav","None","719.523020089","101","327239.139287","334105.262963","334872.286735","335639.013082","336388.449537","322572.002883","323338.429023","324105.477529","327988.249254","328755.059697","329522.024107","330289.184225","331055.719194","331805.026105","332571.960835","333338.280929","335649.978528","Mapping"
"Blocked","m150","ball","2","m150greet.wav","None","735.652276548","101","327239.139287","334105.262963","334872.286735","335639.013082","336388.449537","337154.808895","323338.429023","324105.477529","327988.249254","328755.059697","329522.024107","330289.184225","331055.719194","331805.026105","332571.960835","333338.280929","336397.921985","Mapping"
"Blocked","m150","ball","2","m150gnash.wav","None","733.667075401","101","327239.139287","334105.262963","334872.286735","335639.013082","336388.449537","337154.808895","337921.551938","324105.477529","327988.249254","328755.059697","329522.024107","330289.184225","331055.719194","331805.026105","332571.960835","333338.280929","337163.984847","Mapping"
"Blocked","m150","ball","2","m150depth.wav","None","730.986234499","101","327239.139287","334105.262963","334872.286735","335639.013082","336388.449537","337154.808895","337921.551938","338688.587768","327988.249254","328755.059697","329522.024107","330289.184225","331055.719194","331805.026105","332571.960835","333338.280929","337930.804255","Mapping"
"Blocked","m150","done","19","m150cad.wav","None","728.140604682","101","341822.307341","334105.262963","334872.286735","335639.013082","336388.449537","337154.808895","337921.551938","338688.587768","327988.249254","328755.059697","329522.024107","330289.184225","331055.719194","331805.026105","332571.960835","333338.280929","338697.88677","Mapping"
"Blocked","m150","done","19","m150done.wav","None","719.705122989","101","341822.307341","334105.262963","334872.286735","335639.013082","336388.449537","337154.808895","337921.551938","338688.587768","342571.593228","328755.059697","329522.024107","330289.184225","331055.719194","331805.026105","332571.960835","333338.280929","341832.171203","Mapping"
"Blocked","m150","done","19","m150priest.wav","space","636.034198338","101","341822.307341","334105.262963","334872.286735","335639.013082","336388.449537","337154.808895","337921.551938","338688.587768","342571.593228","343338.553001","329522.024107","330289.184225","331055.719194","331805.026105","332571.960835","333338.280929","342580.863168","Mapping"
"Blocked","m150","done","19","m150done.wav","None","730.271117063","101","341822.307341","334105.262963","334872.286735","335639.013082","336388.449537","337154.808895","337921.551938","338688.587768","342571.593228","343338.553001","344104.694702","330289.184225","331055.719194","331805.026105","332571.960835","333338.280929","343348.730365","Mapping"
"Blocked","m150","done","19","m150cling.wav","space","343.146387488","101","341822.307341","334105.262963","334872.286735","335639.013082","336388.449537","337154.808895","337921.551938","338688.587768","342571.593228","343338.553001","344104.694702","344871.43589","331055.719194","331805.026105","332571.960835","333338.280929","344113.733381","Mapping"
"Blocked","m150","done","19","m150ball.wav","None","725.402875803","101","341822.307341","334105.262963","334872.286735","335639.013082","336388.449537","337154.808895","337921.551938","338688.587768","342571.593228","343338.553001","344104.694702","344871.43589","345638.13503","331805.026105","332571.960835","333338.280929","344880.682333","Mapping"
"Blocked","m150","done","19","m150cave.wav","None","722.770266235","101","341822.307341","334105.262963","334872.286735","335639.013082","336388.449537","337154.808895","337921.551938","338688.587768","342571.593228","343338.553001","344104.694702","344871.43589","345638.13503","346405.421908","332571.960835","333338.280929","345647.379618","Mapping"
"Blocked","m150","done","19","m150park.wav","None","718.946720939","101","341822.307341","334105.262963","334872.286735","335639.013082","336388.449537","337154.808895","337921.551938","338688.587768","342571.593228","343338.553001","344104.694702","344871.43589","345638.13503","346405.421908","347154.82219","333338.280929","346415.192091","Mapping"
"Blocked","m150","done","19","m150knife.wav","None","734.183704015","101","341822.307341","334105.262963","334872.286735","335639.013082","336388.449537","337154.808895","337921.551938","338688.587768","342571.593228","343338.553001","344104.694702","344871.43589","345638.13503","346405.421908","347154.82219","347921.674371","347164.117173","Mapping"
"Blocked","m150","done","19","m150done.wav","None","731.537181186","101","341822.307341","348688.369492","334872.286735","335639.013082","336388.449537","337154.808895","337921.551938","338688.587768","342571.593228","343338.553001","344104.694702","344871.43589","345638.13503","346405.421908","347154.82219","347921.674371","347930.887423","Mapping"
"Blocked","m150","done","19","m150park.wav","space","550.485973945","101","341822.307341","348688.369492","349455.052555","335639.013082","336388.449537","337154.808895","337921.551938","338688.587768","342571.593228","343338.553001","344104.694702","344871.43589","345638.13503","346405.421908","347154.82219","347921.674371","348698.265198","Mapping"
"Blocked","m150","done","19","m150jolt.wav","None","725.065258797","101","341822.307341","348688.369492","349455.052555","350222.132905","336388.449537","337154.808895","337921.551938","338688.587768","342571.593228","343338.553001","344104.694702","344871.43589","345638.13503","346405.421908","347154.82219","347921.674371","349464.402571","Mapping"
"Blocked","m150","done","19","m150park.wav","None","720.960675506","101","341822.307341","348688.369492","349455.052555","350222.132905","350988.698174","337154.808895","337921.551938","338688.587768","342571.593228","343338.553001","344104.694702","344871.43589","345638.13503","346405.421908","347154.82219","347921.674371","350232.435484","Mapping"
"Blocked","m150","done","19","m150done.wav","None","718.969909009","101","341822.307341","348688.369492","349455.052555","350222.132905","350988.698174","351738.197081","337921.551938","338688.587768","342571.593228","343338.553001","344104.694702","344871.43589","345638.13503","346405.421908","347154.82219","347921.674371","350998.579968","Mapping"
"Blocked","m150","done","19","m150ball.wav","space","396.538125817","101","341822.307341","348688.369492","349455.052555","350222.132905","350988.698174","351738.197081","352504.966713","338688.587768","342571.593228","343338.553001","344104.694702","344871.43589","345638.13503","346405.421908","347154.82219","347921.674371","351748.182139","Mapping"
"Blocked","m150","done","19","m150dime.wav","None","730.338825844","101","341822.307341","348688.369492","349455.052555","350222.132905","350988.698174","351738.197081","352504.966713","353271.599072","342571.593228","343338.553001","344104.694702","344871.43589","345638.13503","346405.421908","347154.82219","347921.674371","352514.356303","Mapping"
"Blocked","m150","cave","9","m150dime.wav","space","431.919597555","101","356388.558675","348688.369492","349455.052555","350222.132905","350988.698174","351738.197081","352504.966713","353271.599072","342571.593228","343338.553001","344104.694702","344871.43589","345638.13503","346405.421908","347154.82219","347921.674371","353280.765748","Mapping"
"Blocked","m150","cave","9","m150cave.wav","None","718.579423381","101","356388.558675","348688.369492","349455.052555","350222.132905","350988.698174","351738.197081","352504.966713","353271.599072","357138.201657","343338.553001","344104.694702","344871.43589","345638.13503","346405.421908","347154.82219","347921.674371","356398.940711","Mapping"
"Blocked","m150","cave","9","m150reek.wav","space","652.612065198","101","356388.558675","348688.369492","349455.052555","350222.132905","350988.698174","351738.197081","352504.966713","353271.599072","357138.201657","357904.381077","344104.694702","344871.43589","345638.13503","346405.421908","347154.82219","347921.674371","357147.966583","Mapping"
"Blocked","m150","cave","9","m150cad.wav","None","732.885176549","101","356388.558675","348688.369492","349455.052555","350222.132905","350988.698174","351738.197081","352504.966713","353271.599072","357138.201657","357904.381077","358671.545214","344871.43589","345638.13503","346405.421908","347154.82219","347921.674371","357913.364723","Mapping"
"Blocked","m150","cave","9","m150jaw.wav","None","729.487363016","101","356388.558675","348688.369492","349455.052555","350222.132905","350988.698174","351738.197081","352504.966713","353271.599072","357138.201657","357904.381077","358671.545214","359438.170461","345638.13503","346405.421908","347154.82219","347921.674371","358680.827521","Mapping"
"Blocked","m150","cave","9","m150depth.wav","None","726.776532363","101","356388.558675","348688.369492","349455.052555","350222.132905","350988.698174","351738.197081","352504.966713","353271.599072","357138.201657","357904.381077","358671.545214","359438.170461","360204.38018","346405.421908","347154.82219","347921.674371","359447.757613","Mapping"
"Blocked","m150","cave","9","m150ball.wav","None","725.514796562","101","356388.558675","348688.369492","349455.052555","350222.132905","350988.698174","351738.197081","352504.966713","353271.599072","357138.201657","357904.381077","358671.545214","359438.170461","360204.38018","360972.107012","347154.82219","347921.674371","360213.506973","Mapping"
"Blocked","m150","cave","9","m150cave.wav","None","720.856792992","101","356388.558675","348688.369492","349455.052555","350222.132905","350988.698174","351738.197081","352504.966713","353271.599072","357138.201657","357904.381077","358671.545214","359438.170461","360204.38018","360972.107012","361738.662078","347921.674371","360982.434943","Mapping"
"Blocked","m150","cave","9","m150greet.wav","space","596.017911099","101","356388.558675","348688.369492","349455.052555","350222.132905","350988.698174","351738.197081","352504.966713","353271.599072","357138.201657","357904.381077","358671.545214","359438.170461","360204.38018","360972.107012","361738.662078","362488.225293","361748.508626","Mapping"
"Blocked","m150","cave","9","m150park.wav","None","732.459445018","101","356388.558675","363254.725326","349455.052555","350222.132905","350988.698174","351738.197081","352504.966713","353271.599072","357138.201657","357904.381077","358671.545214","359438.170461","360204.38018","360972.107012","361738.662078","362488.225293","362497.88912","Mapping"
"Blocked","m150","cave","9","m150cave.wav","None","730.011102278","101","356388.558675","363254.725326","364021.396331","350222.132905","350988.698174","351738.197081","352504.966713","353271.599072","357138.201657","357904.381077","358671.545214","359438.170461","360204.38018","360972.107012","361738.662078","362488.225293","363264.564454","Mapping"
"Blocked","m150","cave","9","m150cad.wav","space","689.812712139","101","356388.558675","363254.725326","364021.396331","364787.631402","350988.698174","351738.197081","352504.966713","353271.599072","357138.201657","357904.381077","358671.545214","359438.170461","360204.38018","360972.107012","361738.662078","362488.225293","364030.709556","Mapping"
"Blocked","m150","cave","9","m150ball.wav","None","725.313524716","101","356388.558675","363254.725326","364021.396331","364787.631402","365554.508008","351738.197081","352504.966713","353271.599072","357138.201657","357904.381077","358671.545214","359438.170461","360204.38018","360972.107012","361738.662078","362488.225293","364796.746756","Mapping"
"Blocked","m150","cave","9","m150cave.wav","None","722.475005779","101","356388.558675","363254.725326","364021.396331","364787.631402","365554.508008","366321.843736","352504.966713","353271.599072","357138.201657","357904.381077","358671.545214","359438.170461","360204.38018","360972.107012","361738.662078","362488.225293","365563.835454","Mapping"
"Blocked","m150","cave","9","m150cad.wav","space","668.816141784","101","356388.558675","363254.725326","364021.396331","364787.631402","365554.508008","366321.843736","367071.329658","353271.599072","357138.201657","357904.381077","358671.545214","359438.170461","360204.38018","360972.107012","361738.662078","362488.225293","366331.649473","Mapping"
"Blocked","m150","cave","9","m150jolt.wav","None","732.95288533","101","356388.558675","363254.725326","364021.396331","364787.631402","365554.508008","366321.843736","367071.329658","367837.622854","357138.201657","357904.381077","358671.545214","359438.170461","360204.38018","360972.107012","361738.662078","362488.225293","367080.700079","Mapping"
"Blocked","m150","ball","6","m150reek.wav","None","731.487095356","101","370971.693957","363254.725326","364021.396331","364787.631402","365554.508008","366321.843736","367071.329658","367837.622854","357138.201657","357904.381077","358671.545214","359438.170461","360204.38018","360972.107012","361738.662078","362488.225293","367846.502617","Mapping"
"Blocked","m150","ball","6","m150jaw.wav","None","719.515290577","101","370971.693957","363254.725326","364021.396331","364787.631402","365554.508008","366321.843736","367071.329658","367837.622854","371720.845045","357904.381077","358671.545214","359438.170461","360204.38018","360972.107012","361738.662078","362488.225293","370981.870393","Mapping"
"Blocked","m150","ball","6","m150ball.wav","None","735.657532699","101","370971.693957","363254.725326","364021.396331","364787.631402","365554.508008","366321.843736","367071.329658","367837.622854","371720.845045","372487.967443","358671.545214","359438.170461","360204.38018","360972.107012","361738.662078","362488.225293","371730.047585","Mapping"
"Blocked","m150","ball","6","m150depth.wav","space","558.912180364","101","370971.693957","363254.725326","364021.396331","364787.631402","365554.508008","366321.843736","367071.329658","367837.622854","371720.845045","372487.967443","373254.502721","359438.170461","360204.38018","360972.107012","361738.662078","362488.225293","372497.440819","Mapping"
"Blocked","m150","ball","6","m150jolt.wav","None","728.652904509","101","370971.693957","363254.725326","364021.396331","364787.631402","365554.508008","366321.843736","367071.329658","367837.622854","371720.845045","372487.967443","373254.502721","374021.245145","360204.38018","360972.107012","361738.662078","362488.225293","373264.335666","Mapping"
"Blocked","m150","ball","6","m150park.wav","None","726.865883451","101","370971.693957","363254.725326","364021.396331","364787.631402","365554.508008","366321.843736","367071.329658","367837.622854","371720.845045","372487.967443","373254.502721","374021.245145","374788.281285","360972.107012","361738.662078","362488.225293","374030.507975","Mapping"
"Blocked","m150","ball","6","m150depth.wav","None","723.42014825","101","370971.693957","363254.725326","364021.396331","364787.631402","365554.508008","366321.843736","367071.329658","367837.622854","371720.845045","372487.967443","373254.502721","374021.245145","374788.281285","375554.459777","361738.662078","362488.225293","374798.180392","Mapping"
"Blocked","m150","ball","6","m150ball.wav","None","722.131514223","101","370971.693957","363254.725326","364021.396331","364787.631402","365554.508008","366321.843736","367071.329658","367837.622854","371720.845045","372487.967443","373254.502721","374021.245145","374788.281285","375554.459777","376321.535799","362488.225293","375564.184202","Mapping"
"Blocked","m150","ball","6","m150knife.wav","None","719.109964557","101","370971.693957","363254.725326","364021.396331","364787.631402","365554.508008","366321.843736","367071.329658","367837.622854","371720.845045","372487.967443","373254.502721","374021.245145","374788.281285","375554.459777","376321.535799","377070.664008","376331.536625","Mapping"
"Blocked","m150","ball","6","m150bluff.wav","space","104.372543981","101","370971.693957","377837.824744","364021.396331","364787.631402","365554.508008","366321.843736","367071.329658","367837.622854","371720.845045","372487.967443","373254.502721","374021.245145","374788.281285","375554.459777","376321.535799","377070.664008","377079.922818","Mapping"
"Blocked","m150","ball","6","m150romp.wav","None","730.920380913","101","370971.693957","377837.824744","378604.104954","364787.631402","365554.508008","366321.843736","367071.329658","367837.622854","371720.845045","372487.967443","373254.502721","374021.245145","374788.281285","375554.459777","376321.535799","377070.664008","377847.314197","Mapping"
"Blocked","m150","ball","6","m150ball.wav","None","729.545487557","101","370971.693957","377837.824744","378604.104954","379371.128108","365554.508008","366321.843736","367071.329658","367837.622854","371720.845045","372487.967443","373254.502721","374021.245145","374788.281285","375554.459777","376321.535799","377070.664008","378613.045007","Mapping"
"Blocked","m150","ball","6","m150knife.wav","space","667.903462658","101","370971.693957","377837.824744","378604.104954","379371.128108","380137.580528","366321.843736","367071.329658","367837.622854","371720.845045","372487.967443","373254.502721","374021.245145","374788.281285","375554.459777","376321.535799","377070.664008","379380.313953","Mapping"
"Blocked","m150","ball","6","m150bluff.wav","None","723.524030298","101","370971.693957","377837.824744","378604.104954","379371.128108","380137.580528","380904.672937","367071.329658","367837.622854","371720.845045","372487.967443","373254.502721","374021.245145","374788.281285","375554.459777","376321.535799","377070.664008","380146.894989","Mapping"
"Blocked","m150","ball","6","m150ball.wav","None","720.408492023","101","370971.693957","377837.824744","378604.104954","379371.128108","380137.580528","380904.672937","381654.157931","367837.622854","371720.845045","372487.967443","373254.502721","374021.245145","374788.281285","375554.459777","376321.535799","377070.664008","380914.533706","Mapping"
"Blocked","m150","ball","6","m150dime.wav","space","696.669246303","101","370971.693957","377837.824744","378604.104954","379371.128108","380137.580528","380904.672937","381654.157931","382420.782561","371720.845045","372487.967443","373254.502721","374021.245145","374788.281285","375554.459777","376321.535799","377070.664008","381663.502691","Mapping"
"Blocked","m150","tile","18","m150done.wav","None","732.175314799","101","385554.552838","377837.824744","378604.104954","379371.128108","380137.580528","380904.672937","381654.157931","382420.782561","371720.845045","372487.967443","373254.502721","374021.245145","374788.281285","375554.459777","376321.535799","377070.664008","382430.073524","Mapping"
"Blocked","m150","tile","18","m150done.wav","None","719.866511412","101","385554.552838","377837.824744","378604.104954","379371.128108","380137.580528","380904.672937","381654.157931","382420.782561","386303.773181","372487.967443","373254.502721","374021.245145","374788.281285","375554.459777","376321.535799","377070.664008","385564.276335","Mapping"
"Blocked","m150","tile","18","m150tile.wav","None","735.441729659","101","385554.552838","377837.824744","378604.104954","379371.128108","380137.580528","380904.672937","381654.157931","382420.782561","386303.773181","387071.033161","373254.502721","374021.245145","374788.281285","375554.459777","376321.535799","377070.664008","386313.039411","Mapping"
"Blocked","m150","tile","18","m150knife.wav","space","591.778837144","101","385554.552838","377837.824744","378604.104954","379371.128108","380137.580528","380904.672937","381654.157931","382420.782561","386303.773181","387071.033161","387837.677268","374021.245145","374788.281285","375554.459777","376321.535799","377070.664008","387080.297227","Mapping"
"Blocked","m150","tile","18","m150depth.wav","None","728.376503801","101","385554.552838","377837.824744","378604.104954","379371.128108","380137.580528","380904.672937","381654.157931","382420.782561","386303.773181","387071.033161","387837.677268","388604.30097","374788.281285","375554.459777","376321.535799","377070.664008","387847.798362","Mapping"
"Blocked","m150","tile","18","m150cave.wav","None","726.896800799","101","385554.552838","377837.824744","378604.104954","379371.128108","380137.580528","380904.672937","381654.157931","382420.782561","386303.773181","387071.033161","387837.677268","388604.30097","389370.977232","375554.459777","376321.535799","377070.664008","388613.646348","Mapping"
"Blocked","m150","tile","18","m150tile.wav","None","724.751448026","101","385554.552838","377837.824744","378604.104954","379371.128108","380137.580528","380904.672937","381654.157931","382420.782561","386303.773181","387071.033161","387837.677268","388604.30097","389370.977232","390137.362252","376321.535799","377070.664008","389380.280871","Mapping"
"Blocked","m150","tile","18","m150dime.wav","space","517.555318074","101","385554.552838","377837.824744","378604.104954","379371.128108","380137.580528","380904.672937","381654.157931","382420.782561","386303.773181","387071.033161","387837.677268","388604.30097","389370.977232","390137.362252","390904.434873","377070.664008","390146.459364","Mapping"
"Blocked","m150","tile","18","m150done.wav","None","718.643731438","101","385554.552838","377837.824744","378604.104954","379371.128108","380137.580528","380904.672937","381654.157931","382420.782561","386303.773181","387071.033161","387837.677268","388604.30097","389370.977232","390137.362252","390904.434873","391653.712722","390914.541127","Mapping"
"Blocked","m150","tile","18","m150park.wav","None","734.368898673","101","385554.552838","392420.501522","378604.104954","379371.128108","380137.580528","380904.672937","381654.157931","382420.782561","386303.773181","387071.033161","387837.677268","388604.30097","389370.977232","390137.362252","390904.434873","391653.712722","391663.235565","Mapping"
"Blocked","m150","tile","18","m150tile.wav","None","732.695344137","101","385554.552838","392420.501522","393187.549719","379371.128108","380137.580528","380904.672937","381654.157931","382420.782561","386303.773181","387071.033161","387837.677268","388604.30097","389370.977232","390137.362252","390904.434873","391653.712722","392429.578229","Mapping"
"Blocked","m150","tile","18","m150reek.wav","space","371.059471741","101","385554.552838","392420.501522","393187.549719","393954.142194","380137.580528","380904.672937","381654.157931","382420.782561","386303.773181","387071.033161","387837.677268","388604.30097","389370.977232","390137.362252","390904.434873","391653.712722","393196.922923","Mapping"
"Blocked","m150","tile","18","m150ball.wav","None","726.404906251","101","385554.552838","392420.501522","393187.549719","393954.142194","394721.07847","380904.672937","381654.157931","382420.782561","386303.773181","387071.033161","387837.677268","388604.30097","389370.977232","390137.362252","390904.434873","391653.712722","393963.465312","Mapping"
"Blocked","m150","tile","18","m150jolt.wav","None","722.960716812","101","385554.552838","392420.501522","393187.549719","393954.142194","394721.07847","395487.308904","381654.157931","382420.782561","386303.773181","387071.033161","387837.677268","388604.30097","389370.977232","390137.362252","390904.434873","391653.712722","394731.284896","Mapping"
"Blocked","m150","tile","18","m150tile.wav","None","722.701011458","101","385554.552838","392420.501522","393187.549719","393954.142194","394721.07847","395487.308904","396254.50705","382420.782561","386303.773181","387071.033161","387837.677268","388604.30097","389370.977232","390137.362252","390904.434873","391653.712722","395496.540197","Mapping"
"Blocked","m150","tile","18","m150knife.wav","space","311.536828987","101","385554.552838","392420.501522","393187.549719","393954.142194","394721.07847","395487.308904","396254.50705","397003.675142","386303.773181","387071.033161","387837.677268","388604.30097","389370.977232","390137.362252","390904.434873","391653.712722","396264.396264","Mapping"
"Blocked","m150","done","24","m150tile.wav","None","733.591327909","101","400137.742535","392420.501522","393187.549719","393954.142194","394721.07847","395487.308904","396254.50705","397003.675142","386303.773181","387071.033161","387837.677268","388604.30097","389370.977232","390137.362252","390904.434873","391653.712722","397013.285482","Mapping"
"Blocked","m150","done","24","m150gnash.wav","None","719.910104759","101","400137.742535","392420.501522","393187.549719","393954.142194","394721.07847","395487.308904","396254.50705","397003.675142","400887.251336","387071.033161","387837.677268","388604.30097","389370.977232","390137.362252","390904.434873","391653.712722","400147.367097","Mapping"
"Blocked","m150","done","24","m150cling.wav","None","735.239221249","101","400137.742535","392420.501522","393187.549719","393954.142194","394721.07847","395487.308904","396254.50705","397003.675142","400887.251336","401653.625844","387837.677268","388604.30097","389370.977232","390137.362252","390904.434873","391653.712722","400896.469026","Mapping"
"Blocked","m150","done","24","m150jaw.wav","None","733.466422185","101","400137.742535","392420.501522","393187.549719","393954.142194","394721.07847","395487.308904","396254.50705","397003.675142","400887.251336","401653.625844","402420.717325","388604.30097","389370.977232","390137.362252","390904.434873","391653.712722","401662.696677","Mapping"
"Blocked","m150","done","24","m150done.wav","None","730.238035554","101","400137.742535","392420.501522","393187.549719","393954.142194","394721.07847","395487.308904","396254.50705","397003.675142","400887.251336","401653.625844","402420.717325","403187.347829","389370.977232","390137.362252","390904.434873","391653.712722","402430.286854","Mapping"
"Blocked","m150","done","24","m150reek.wav","space","578.86621845","101","400137.742535","392420.501522","393187.549719","393954.142194","394721.07847","395487.308904","396254.50705","397003.675142","400887.251336","401653.625844","402420.717325","403187.347829","403953.853117","390137.362252","390904.434873","391653.712722","403196.919213","Mapping"
"Blocked","m150","done","24","m150done.wav","None","724.739390193","101","400137.742535","392420.501522","393187.549719","393954.142194","394721.07847","395487.308904","396254.50705","397003.675142","400887.251336","401653.625844","402420.717325","403187.347829","403953.853117","404721.06363","390904.434873","391653.712722","403963.188911","Mapping"
"Blocked","m150","done","24","m150dime.wav","space","613.091073465","101","400137.742535","392420.501522","393187.549719","393954.142194","394721.07847","395487.308904","396254.50705","397003.675142","400887.251336","401653.625844","402420.717325","403187.347829","403953.853117","404721.06363","405470.1467","391653.712722","404730.686028","Mapping"
"Blocked","m150","done","24","m150ball.wav","None","736.49817449","101","400137.742535","392420.501522","393187.549719","393954.142194","394721.07847","395487.308904","396254.50705","397003.675142","400887.251336","401653.625844","402420.717325","403187.347829","403953.853117","404721.06363","405470.1467","406236.894689","405479.05367","Mapping"
"Blocked","m150","done","24","m150done.wav","None","734.268726548","101","400137.742535","407003.977204","393187.549719","393954.142194","394721.07847","395487.308904","396254.50705","397003.675142","400887.251336","401653.625844","402420.717325","403187.347829","403953.853117","404721.06363","405470.1467","406236.894689","406245.79022","Mapping"
"Blocked","m150","done","24","m150reek.wav","space","434.157083975","101","400137.742535","407003.977204","407770.258342","393954.142194","394721.07847","395487.308904","396254.50705","397003.675142","400887.251336","401653.625844","402420.717325","403187.347829","403953.853117","404721.06363","405470.1467","406236.894689","407013.611041","Mapping"
"Blocked","m150","done","24","m150reek.wav","None","728.149879724","101","400137.742535","407003.977204","407770.258342","408537.351987","394721.07847","395487.308904","396254.50705","397003.675142","400887.251336","401653.625844","402420.717325","403187.347829","403953.853117","404721.06363","405470.1467","406236.894689","407779.411105","Mapping"
"Blocked","m150","done","24","m150depth.wav","None","724.186588544","101","400137.742535","407003.977204","407770.258342","408537.351987","409304.149444","395487.308904","396254.50705","397003.675142","400887.251336","401653.625844","402420.717325","403187.347829","403953.853117","404721.06363","405470.1467","406236.894689","408547.749482","Mapping"
"Blocked","m150","done","24","m150cad.wav","None","722.933200421","101","400137.742535","407003.977204","407770.258342","408537.351987","409304.149444","410070.971945","396254.50705","397003.675142","400887.251336","401653.625844","402420.717325","403187.347829","403953.853117","404721.06363","405470.1467","406236.894689","409313.733195","Mapping"
"Blocked","m150","done","24","m150done.wav","None","726.001744391","101","400137.742535","407003.977204","407770.258342","408537.351987","409304.149444","410070.971945","410820.814962","397003.675142","400887.251336","401653.625844","402420.717325","403187.347829","403953.853117","404721.06363","405470.1467","406236.894689","410075.337161","Mapping"
"Blocked","m150","done","24","m150park.wav","space","497.238310287","101","400137.742535","407003.977204","407770.258342","408537.351987","409304.149444","410070.971945","410820.814962","411587.2006","400887.251336","401653.625844","402420.717325","403187.347829","403953.853117","404721.06363","405470.1467","406236.894689","410830.417263","Mapping"
"Blocked","m150","tile","17","m150lash.wav","None","731.991047505","101","414720.87658","407003.977204","407770.258342","408537.351987","409304.149444","410070.971945","410820.814962","411587.2006","400887.251336","401653.625844","402420.717325","403187.347829","403953.853117","404721.06363","405470.1467","406236.894689","411597.018396","Mapping"
"Blocked","m150","tile","17","m150lash.wav","None","720.184341539","101","414720.87658","407003.977204","407770.258342","408537.351987","409304.149444","410070.971945","410820.814962","411587.2006","415469.875555","401653.625844","402420.717325","403187.347829","403953.853117","404721.06363","405470.1467","406236.894689","414730.542571","Mapping"
"Blocked","m150","tile","17","m150priest.wav","None","736.466329545","101","414720.87658","407003.977204","407770.258342","408537.351987","409304.149444","410070.971945","410820.814962","411587.2006","415469.875555","416236.695272","402420.717325","403187.347829","403953.853117","404721.06363","405470.1467","406236.894689","415478.923199","Mapping"
"Blocked","m150","tile","17","m150lash.wav","None","734.271199908","101","414720.87658","407003.977204","407770.258342","408537.351987","409304.149444","410070.971945","410820.814962","411587.2006","415469.875555","416236.695272","417003.460266","403187.347829","403953.853117","404721.06363","405470.1467","406236.894689","416245.784655","Mapping"
"Blocked","m150","tile","17","m150romp.wav","None","732.090601232","101","414720.87658","407003.977204","407770.258342","408537.351987","409304.149444","410070.971945","410820.814962","411587.2006","415469.875555","416236.695272","417003.460266","417770.504135","403953.853117","404721.06363","405470.1467","406236.894689","417012.507293","Mapping"
"Blocked","m150","tile","17","m150tile.wav","None","728.99948759","101","414720.87658","407003.977204","407770.258342","408537.351987","409304.149444","410070.971945","410820.814962","411587.2006","415469.875555","416236.695272","417003.460266","417770.504135","418537.14886","404721.06363","405470.1467","406236.894689","417780.257003","Mapping"
"Blocked","m150","tile","17","m150done.wav","space","597.065080656","101","414720.87658","407003.977204","407770.258342","408537.351987","409304.149444","410070.971945","410820.814962","411587.2006","415469.875555","416236.695272","417003.460266","417770.504135","418537.14886","419304.100286","405470.1467","406236.894689","418546.423438","Mapping"
"Blocked","m150","tile","17","m150tile.wav","None","723.037082702","101","414720.87658","407003.977204","407770.258342","408537.351987","409304.149444","410070.971945","410820.814962","411587.2006","415469.875555","416236.695272","417003.460266","417770.504135","418537.14886","419304.100286","420070.933607","406236.894689","419313.891492","Mapping"
"Blocked","m150","tile","17","m150dime.wav","None","721.097639063","101","414720.87658","407003.977204","407770.258342","408537.351987","409304.149444","410070.971945","410820.814962","411587.2006","415469.875555","416236.695272","417003.460266","417770.504135","418537.14886","419304.100286","420070.933607","420836.904335","420080.528797","Mapping"
"Blocked","m150","tile","17","m150gnash.wav","space","17.3804804217","101","414720.87658","421587.055289","407770.258342","408537.351987","409304.149444","410070.971945","410820.814962","411587.2006","415469.875555","416236.695272","417003.460266","417770.504135","418537.14886","419304.100286","420070.933607","420836.904335","420846.109658","Mapping"
"Blocked","m150","tile","17","m150cad.wav","None","733.119220473","101","414720.87658","421587.055289","422353.459169","408537.351987","409304.149444","410070.971945","410820.814962","411587.2006","415469.875555","416236.695272","417003.460266","417770.504135","418537.14886","419304.100286","420070.933607","420836.904335","421596.41829","Mapping"
"Blocked","m150","tile","17","m150tile.wav","None","731.178849703","101","414720.87658","421587.055289","422353.459169","423120.277341","409304.149444","410070.971945","410820.814962","411587.2006","415469.875555","416236.695272","417003.460266","417770.504135","418537.14886","419304.100286","420070.933607","420836.904335","422362.842885","Mapping"
"Blocked","m150","tile","17","m150ball.wav","None","729.240024462","101","414720.87658","421587.055289","422353.459169","423120.277341","423887.14127","410070.971945","410820.814962","411587.2006","415469.875555","416236.695272","417003.460266","417770.504135","418537.14886","419304.100286","420070.933607","420836.904335","423130.227462","Mapping"
"Blocked","m150","tile","17","m150romp.wav","space","31.0137821361","101","414720.87658","421587.055289","422353.459169","423120.277341","423887.14127","424654.085275","410820.814962","411587.2006","415469.875555","416236.695272","417003.460266","417770.504135","418537.14886","419304.100286","420070.933607","420836.904335","423896.397916","Mapping"
"Blocked","m150","tile","17","m150tile.wav","None","722.735947696","101","414720.87658","421587.055289","422353.459169","423120.277341","423887.14127","424654.085275","425420.67064","411587.2006","415469.875555","416236.695272","417003.460266","417770.504135","418537.14886","419304.100286","420070.933607","420836.904335","424664.377342","Mapping"
"Blocked","m150","tile","17","m150lash.wav","space","461.926093325","101","414720.87658","421587.055289","422353.459169","423120.277341","423887.14127","424654.085275","425420.67064","426170.002903","415469.875555","416236.695272","417003.460266","417770.504135","418537.14886","419304.100286","420070.933607","420836.904335","425425.418613","Mapping"
"Blocked","m150","ball","4","m150cave.wav","None","735.391643597","101","429303.853256","421587.055289","422353.459169","423120.277341","423887.14127","424654.085275","425420.67064","426170.002903","415469.875555","416236.695272","417003.460266","417770.504135","418537.14886","419304.100286","420070.933607","420836.904335","426179.366523","Mapping"
"Blocked","m150","ball","4","m150cling.wav","None","719.612061745","101","429303.853256","421587.055289","422353.459169","423120.277341","423887.14127","424654.085275","425420.67064","426170.002903","430053.264977","416236.695272","417003.460266","417770.504135","418537.14886","419304.100286","420070.933607","420836.904335","429313.593449","Mapping"
"Blocked","m150","ball","4","m150tile.wav","None","735.47419277","101","429303.853256","421587.055289","422353.459169","423120.277341","423887.14127","424654.085275","425420.67064","426170.002903","430053.264977","430820.196925","417003.460266","417770.504135","418537.14886","419304.100286","420070.933607","420836.904335","430062.471846","Mapping"
"Blocked","m150","ball","4","m150ball.wav","None","732.608157443","101","429303.853256","421587.055289","422353.459169","423120.277341","423887.14127","424654.085275","425420.67064","426170.002903","430053.264977","430820.196925","431586.636669","417770.504135","418537.14886","419304.100286","420070.933607","420836.904335","430830.087375","Mapping"
"Blocked","m150","ball","4","m150reek.wav","space","539.100361755","101","429303.853256","421587.055289","422353.459169","423120.277341","423887.14127","424654.085275","425420.67064","426170.002903","430053.264977","430820.196925","431586.636669","432353.337664","418537.14886","419304.100286","420070.933607","420836.904335","431596.193212","Mapping"
"Blocked","m150","ball","4","m150priest.wav","None","727.769905934","101","429303.853256","421587.055289","422353.459169","423120.277341","423887.14127","424654.085275","425420.67064","426170.002903","430053.264977","430820.196925","431586.636669","432353.337664","433119.744635","419304.100286","420070.933607","420836.904335","432362.461674","Mapping"
"Blocked","m150","ball","4","m150dime.wav","None","726.372133708","101","429303.853256","421587.055289","422353.459169","423120.277341","423887.14127","424654.085275","425420.67064","426170.002903","430053.264977","430820.196925","431586.636669","432353.337664","433119.744635","433886.605164","420070.933607","420836.904335","433128.892761","Mapping"
"Blocked","m150","ball","4","m150ball.wav","None","724.156907992","101","429303.853256","421587.055289","422353.459169","423120.277341","423887.14127","424654.085275","425420.67064","426170.002903","430053.264977","430820.196925","431586.636669","432353.337664","433119.744635","433886.605164","434653.198567","420836.904335","433895.687127","Mapping"
"Blocked","m150","ball","4","m150bluff.wav","space","440.970952157","101","429303.853256","421587.055289","422353.459169","423120.277341","423887.14127","424654.085275","425420.67064","426170.002903","430053.264977","430820.196925","431586.636669","432353.337664","433119.744635","433886.605164","434653.198567","435403.161852","434662.281148","Mapping"
"Blocked","m150","ball","4","m150ball.wav","None","735.29950995","101","429303.853256","436169.737323","422353.459169","423120.277341","423887.14127","424654.085275","425420.67064","426170.002903","430053.264977","430820.196925","431586.636669","432353.337664","433119.744635","433886.605164","434653.198567","435403.161852","435412.273496","Mapping"
"Blocked","m150","ball","4","m150dime.wav","space","668.374642497","101","429303.853256","436169.737323","436936.730487","423120.277341","423887.14127","424654.085275","425420.67064","426170.002903","430053.264977","430820.196925","431586.636669","432353.337664","433119.744635","433886.605164","434653.198567","435403.161852","436178.82516","Mapping"
"Blocked","m150","ball","4","m150dime.wav","None","728.618277237","101","429303.853256","436169.737323","436936.730487","437703.385107","423887.14127","424654.085275","425420.67064","426170.002903","430053.264977","430820.196925","431586.636669","432353.337664","433119.744635","433886.605164","434653.198567","435403.161852","436946.654019","Mapping"
"Blocked","m150","ball","4","m150ball.wav","None","726.20239784","101","429303.853256","436169.737323","436936.730487","437703.385107","438469.8063","424654.085275","425420.67064","426170.002903","430053.264977","430820.196925","431586.636669","432353.337664","433119.744635","433886.605164","434653.198567","435403.161852","437713.6747","Mapping"
