"Condition","Talker","Target","Trial","current_stimulus","response_response","response_time_response","subject_nr","time_Audio1","time_Audio10","time_Audio11","time_Audio12","time_Audio13","time_Audio14","time_Audio15","time_Audio16","time_Audio2","time_Audio3","time_Audio4","time_Audio5","time_Audio6","time_Audio7","time_Audio8","time_Audio9","time_response","title"
"Mixed","Both","ball","6","m150dime.wav","NA","NA","139","136266.855118","NA","NA","NA","NA","NA","NA","NA","NA","NA","NA","NA","NA","NA","NA","NA","NA","Mapping"
"Mixed","Both","ball","6","m160greet.wav","space","551.188106183","139","136266.855118","NA","NA","NA","NA","NA","NA","NA","137032.925091","NA","NA","NA","NA","NA","NA","NA","136280.832838","Mapping"
"Mixed","Both","ball","6","m160ball.wav","None","725.159247406","139","136266.855118","NA","NA","NA","NA","NA","NA","NA","137032.925091","137799.178713","NA","NA","NA","NA","NA","NA","137042.092694","Mapping"
"Mixed","Both","ball","6","m160cad.wav","space","463.462065905","139","136266.855118","NA","NA","NA","NA","NA","NA","NA","137032.925091","137799.178713","138565.982044","NA","NA","NA","NA","NA","137808.514506","Mapping"
"Mixed","Both","ball","6","m160depth.wav","None","725.360519253","139","136266.855118","NA","NA","NA","NA","NA","NA","NA","137032.925091","137799.178713","138565.982044","139332.624296","NA","NA","NA","NA","138575.869094","Mapping"
"Mixed","Both","ball","6","m160depth.wav","None","726.563511882","139","136266.855118","NA","NA","NA","NA","NA","NA","NA","137032.925091","137799.178713","138565.982044","139332.624296","140099.985067","NA","NA","NA","139341.831783","Mapping"
"Mixed","Both","ball","6","m150ball.wav","None","722.548897844","139","136266.855118","NA","NA","NA","NA","NA","NA","NA","137032.925091","137799.178713","138565.982044","139332.624296","140099.985067","140866.226012","NA","NA","140109.690323","Mapping"
"Mixed","Both","ball","6","m150gnash.wav","space","428.011648357","139","136266.855118","NA","NA","NA","NA","NA","NA","NA","137032.925091","137799.178713","138565.982044","139332.624296","140099.985067","140866.226012","141632.534358","NA","140875.939925","Mapping"
"Mixed","Both","ball","6","m160ball.wav","None","724.700434599","139","136266.855118","NA","NA","NA","NA","NA","NA","NA","137032.925091","137799.178713","138565.982044","139332.624296","140099.985067","140866.226012","141632.534358","142399.78228","141641.906943","Mapping"
"Mixed","Both","ball","6","m150priest.wav","space","510.146909859","139","136266.855118","143166.615602","NA","NA","NA","NA","NA","NA","137032.925091","137799.178713","138565.982044","139332.624296","140099.985067","140866.226012","141632.534358","142399.78228","142409.748169","Mapping"
"Mixed","Both","ball","6","m150ball.wav","None","720.592759084","139","136266.855118","143166.615602","143916.250236","NA","NA","NA","NA","NA","137032.925091","137799.178713","138565.982044","139332.624296","140099.985067","140866.226012","141632.534358","142399.78228","143176.76112","Mapping"
"Mixed","Both","ball","6","m150lash.wav","space","386.553686112","139","136266.855118","143166.615602","143916.250236","144682.913203","NA","NA","NA","NA","137032.925091","137799.178713","138565.982044","139332.624296","140099.985067","140866.226012","141632.534358","142399.78228","143925.340547","Mapping"
"Mixed","Both","ball","6","m150bluff.wav","None","736.208170187","139","136266.855118","143166.615602","143916.250236","144682.913203","145449.132815","NA","NA","NA","137032.925091","137799.178713","138565.982044","139332.624296","140099.985067","140866.226012","141632.534358","142399.78228","144691.936732","Mapping"
"Mixed","Both","ball","6","m160jaw.wav","None","737.298623659","139","136266.855118","143166.615602","143916.250236","144682.913203","145449.132815","146232.705702","NA","NA","137032.925091","137799.178713","138565.982044","139332.624296","140099.985067","140866.226012","141632.534358","142399.78228","145457.820583","Mapping"
"Mixed","Both","ball","6","m160greet.wav","None","720.419313293","139","136266.855118","143166.615602","143916.250236","144682.913203","145449.132815","146232.705702","146982.747826","NA","137032.925091","137799.178713","138565.982044","139332.624296","140099.985067","140866.226012","141632.534358","142399.78228","146241.791992","Mapping"
"Mixed","Both","ball","6","m150cad.wav","None","733.535985928","139","136266.855118","143166.615602","143916.250236","144682.913203","145449.132815","146232.705702","146982.747826","147749.458406","137032.925091","137799.178713","138565.982044","139332.624296","140099.985067","140866.226012","141632.534358","142399.78228","146992.234806","Mapping"
"Mixed","Both","done","45","m160reek.wav","None","734.203182161","139","150949.436887","143166.615602","143916.250236","144682.913203","145449.132815","146232.705702","146982.747826","147749.458406","137032.925091","137799.178713","138565.982044","139332.624296","140099.985067","140866.226012","141632.534358","142399.78228","147758.643323","Mapping"
"Mixed","Both","done","45","m160lash.wav","None","724.534717388","139","150949.436887","143166.615602","143916.250236","144682.913203","145449.132815","146232.705702","146982.747826","147749.458406","151716.133554","137799.178713","138565.982044","139332.624296","140099.985067","140866.226012","141632.534358","142399.78228","150959.148327","Mapping"
"Mixed","Both","done","45","m150knife.wav","None","726.036990061","139","150949.436887","143166.615602","143916.250236","144682.913203","145449.132815","146232.705702","146982.747826","147749.458406","151716.133554","152482.470653","138565.982044","139332.624296","140099.985067","140866.226012","141632.534358","142399.78228","151725.683914","Mapping"
"Mixed","Both","done","45","m150cad.wav","None","727.777635213","139","150949.436887","143166.615602","143916.250236","144682.913203","145449.132815","146232.705702","146982.747826","147749.458406","151716.133554","152482.470653","153250.447297","139332.624296","140099.985067","140866.226012","141632.534358","142399.78228","152491.419052","Mapping"
"Mixed","Both","done","45","m150greet.wav","None","723.268653266","139","150949.436887","143166.615602","143916.250236","144682.913203","145449.132815","146232.705702","146982.747826","147749.458406","151716.133554","152482.470653","153250.447297","154016.155227","140099.985067","140866.226012","141632.534358","142399.78228","153259.684464","Mapping"
"Mixed","Both","done","45","m160depth.wav","None","725.068969186","139","150949.436887","143166.615602","143916.250236","144682.913203","145449.132815","146232.705702","146982.747826","147749.458406","151716.133554","152482.470653","153250.447297","154016.155227","154782.885594","140866.226012","141632.534358","142399.78228","154025.583464","Mapping"
"Mixed","Both","done","45","m160cling.wav","None","721.718768124","139","150949.436887","143166.615602","143916.250236","144682.913203","145449.132815","146232.705702","146982.747826","147749.458406","151716.133554","152482.470653","153250.447297","154016.155227","154782.885594","155549.658626","141632.534358","142399.78228","154792.530252","Mapping"
"Mixed","Both","done","45","m150done.wav","None","721.847384237","139","150949.436887","143166.615602","143916.250236","144682.913203","145449.132815","146232.705702","146982.747826","147749.458406","151716.133554","152482.470653","153250.447297","154016.155227","154782.885594","155549.658626","156316.422693","142399.78228","155559.683567","Mapping"
"Mixed","Both","done","45","m150ball.wav","space","425.334208179","139","150949.436887","143166.615602","143916.250236","144682.913203","145449.132815","146232.705702","146982.747826","147749.458406","151716.133554","152482.470653","153250.447297","154016.155227","154782.885594","155549.658626","156316.422693","157083.099263","156326.336641","Mapping"
"Mixed","Both","done","45","m160done.wav","None","719.464586116","139","150949.436887","157849.585692","143916.250236","144682.913203","145449.132815","146232.705702","146982.747826","147749.458406","151716.133554","152482.470653","153250.447297","154016.155227","154782.885594","155549.658626","156316.422693","157083.099263","157092.657662","Mapping"
"Mixed","Both","done","45","m150gnash.wav","space","524.374751374","139","150949.436887","157849.585692","158599.098822","144682.913203","145449.132815","146232.705702","146982.747826","147749.458406","151716.133554","152482.470653","153250.447297","154016.155227","154782.885594","155549.658626","156316.422693","157083.099263","157859.263432","Mapping"
"Mixed","Both","done","45","m150knife.wav","None","733.949350659","139","150949.436887","157849.585692","158599.098822","159365.980993","145449.132815","146232.705702","146982.747826","147749.458406","151716.133554","152482.470653","153250.447297","154016.155227","154782.885594","155549.658626","156316.422693","157083.099263","158608.743171","Mapping"
"Mixed","Both","done","45","m160done.wav","None","730.731476098","139","150949.436887","157849.585692","158599.098822","159365.980993","160132.017266","146232.705702","146982.747826","147749.458406","151716.133554","152482.470653","153250.447297","154016.155227","154782.885594","155549.658626","156316.422693","157083.099263","159375.612356","Mapping"
"Mixed","Both","done","45","m160jolt.wav","space","426.938508172","139","150949.436887","157849.585692","158599.098822","159365.980993","160132.017266","160899.237672","146982.747826","147749.458406","151716.133554","152482.470653","153250.447297","154016.155227","154782.885594","155549.658626","156316.422693","157083.099263","160140.647526","Mapping"
"Mixed","Both","done","45","m150done.wav","None","731.023953762","139","150949.436887","157849.585692","158599.098822","159365.980993","160132.017266","160899.237672","161665.494385","147749.458406","151716.133554","152482.470653","153250.447297","154016.155227","154782.885594","155549.658626","156316.422693","157083.099263","160908.416715","Mapping"
"Mixed","Both","done","45","m160romp.wav","space","349.242664874","139","150949.436887","157849.585692","158599.098822","159365.980993","160132.017266","160899.237672","161665.494385","162432.445811","151716.133554","152482.470653","153250.447297","154016.155227","154782.885594","155549.658626","156316.422693","157083.099263","161674.320971","Mapping"
"Mixed","Both","cave","19","m160dime.wav","None","728.785539512","139","165566.413959","157849.585692","158599.098822","159365.980993","160132.017266","160899.237672","161665.494385","162432.445811","151716.133554","152482.470653","153250.447297","154016.155227","154782.885594","155549.658626","156316.422693","157083.099263","162441.557454","Mapping"
"Mixed","Both","cave","19","m150depth.wav","None","723.013276234","139","165566.413959","157849.585692","158599.098822","159365.980993","160132.017266","160899.237672","161665.494385","162432.445811","166332.437865","152482.470653","153250.447297","154016.155227","154782.885594","155549.658626","156316.422693","157083.099263","165576.164354","Mapping"
"Mixed","Both","cave","19","m150dime.wav","None","725.007134024","139","165566.413959","157849.585692","158599.098822","159365.980993","160132.017266","160899.237672","161665.494385","162432.445811","166332.437865","167099.629208","153250.447297","154016.155227","154782.885594","155549.658626","156316.422693","157083.099263","166341.486746","Mapping"
"Mixed","Both","cave","19","m160lash.wav","None","721.15854593","139","165566.413959","157849.585692","158599.098822","159365.980993","160132.017266","160899.237672","161665.494385","162432.445811","166332.437865","167099.629208","167848.58088","154016.155227","154782.885594","155549.658626","156316.422693","157083.099263","167109.22409","Mapping"
"Mixed","Both","cave","19","m150cave.wav","None","736.666055396","139","165566.413959","157849.585692","158599.098822","159365.980993","160132.017266","160899.237672","161665.494385","162432.445811","166332.437865","167099.629208","167848.58088","168615.93454","154782.885594","155549.658626","156316.422693","157083.099263","167857.399736","Mapping"
"Mixed","Both","cave","19","m160jaw.wav","space","558.074320666","139","165566.413959","157849.585692","158599.098822","159365.980993","160132.017266","160899.237672","161665.494385","162432.445811","166332.437865","167099.629208","167848.58088","168615.93454","169382.029864","155549.658626","156316.422693","157083.099263","168625.378853","Mapping"
"Mixed","Both","cave","19","m150park.wav","None","733.406751882","139","165566.413959","157849.585692","158599.098822","159365.980993","160132.017266","160899.237672","161665.494385","162432.445811","166332.437865","167099.629208","167848.58088","168615.93454","169382.029864","170149.057656","156316.422693","157083.099263","169391.116155","Mapping"
"Mixed","Both","cave","19","m150jaw.wav","None","733.480953146","139","165566.413959","157849.585692","158599.098822","159365.980993","160132.017266","160899.237672","161665.494385","162432.445811","166332.437865","167099.629208","167848.58088","168615.93454","169382.029864","170149.057656","170915.580567","157083.099263","170158.290804","Mapping"
"Mixed","Both","cave","19","m150cave.wav","None","734.417748172","139","165566.413959","157849.585692","158599.098822","159365.980993","160132.017266","160899.237672","161665.494385","162432.445811","166332.437865","167099.629208","167848.58088","168615.93454","169382.029864","170149.057656","170915.580567","171682.352363","170925.01004","Mapping"
"Mixed","Both","cave","19","m160dime.wav","space","388.013911434","139","165566.413959","172448.976683","158599.098822","159365.980993","160132.017266","160899.237672","161665.494385","162432.445811","166332.437865","167099.629208","167848.58088","168615.93454","169382.029864","170149.057656","170915.580567","171682.352363","171691.402481","Mapping"
"Mixed","Both","cave","19","m160cave.wav","None","727.946443949","139","165566.413959","172448.976683","173215.312545","159365.980993","160132.017266","160899.237672","161665.494385","162432.445811","166332.437865","167099.629208","167848.58088","168615.93454","169382.029864","170149.057656","170915.580567","171682.352363","172458.595061","Mapping"
"Mixed","Both","cave","19","m150reek.wav","space","519.181259908","139","165566.413959","172448.976683","173215.312545","173981.870702","160132.017266","160899.237672","161665.494385","162432.445811","166332.437865","167099.629208","167848.58088","168615.93454","169382.029864","170149.057656","170915.580567","171682.352363","173224.158608","Mapping"
"Mixed","Both","cave","19","m160cave.wav","None","729.948958848","139","165566.413959","172448.976683","173215.312545","173981.870702","174748.973622","160899.237672","161665.494385","162432.445811","166332.437865","167099.629208","167848.58088","168615.93454","169382.029864","170149.057656","170915.580567","171682.352363","173990.747374","Mapping"
"Mixed","Both","cave","19","m160greet.wav","space","409.104470164","139","165566.413959","172448.976683","173215.312545","173981.870702","174748.973622","175516.040988","161665.494385","162432.445811","166332.437865","167099.629208","167848.58088","168615.93454","169382.029864","170149.057656","170915.580567","171682.352363","174766.258569","Mapping"
"Mixed","Both","cave","19","m160tile.wav","None","721.37033008","139","165566.413959","172448.976683","173215.312545","173981.870702","174748.973622","175516.040988","176282.697771","162432.445811","166332.437865","167099.629208","167848.58088","168615.93454","169382.029864","170149.057656","170915.580567","171682.352363","175526.325016","Mapping"
"Mixed","Both","cave","19","m150depth.wav","None","722.54673345","139","165566.413959","172448.976683","173215.312545","173981.870702","174748.973622","175516.040988","176282.697771","177049.073516","166332.437865","167099.629208","167848.58088","168615.93454","169382.029864","170149.057656","170915.580567","171682.352363","176292.24504","Mapping"
"Mixed","Both","cave","17","m160reek.wav","None","720.263489988","139","180165.937276","172448.976683","173215.312545","173981.870702","174748.973622","175516.040988","176282.697771","177049.073516","166332.437865","167099.629208","167848.58088","168615.93454","169382.029864","170149.057656","170915.580567","171682.352363","177058.430643","Mapping"
"Mixed","Both","cave","17","m150cling.wav","None","719.211682677","139","180165.937276","172448.976683","173215.312545","173981.870702","174748.973622","175516.040988","176282.697771","177049.073516","180932.105875","167099.629208","167848.58088","168615.93454","169382.029864","170149.057656","170915.580567","171682.352363","180176.239545","Mapping"
"Mixed","Both","cave","17","m150bluff.wav","None","720.687366556","139","180165.937276","172448.976683","173215.312545","173981.870702","174748.973622","175516.040988","176282.697771","177049.073516","180932.105875","181682.07318","167848.58088","168615.93454","169382.029864","170149.057656","170915.580567","171682.352363","180942.076401","Mapping"
"Mixed","Both","cave","17","m160greet.wav","None","734.954472631","139","180165.937276","172448.976683","173215.312545","173981.870702","174748.973622","175516.040988","176282.697771","177049.073516","180932.105875","181682.07318","182448.781904","168615.93454","169382.029864","170149.057656","170915.580567","171682.352363","181691.561087","Mapping"
"Mixed","Both","cave","17","m150cave.wav","None","732.051954605","139","180165.937276","172448.976683","173215.312545","173981.870702","174748.973622","175516.040988","176282.697771","177049.073516","180932.105875","181682.07318","182448.781904","183215.584617","169382.029864","170149.057656","170915.580567","171682.352363","182458.279705","Mapping"
"Mixed","Both","cave","17","m160ball.wav","space","581.999379676","139","180165.937276","172448.976683","173215.312545","173981.870702","174748.973622","175516.040988","176282.697771","177049.073516","180932.105875","181682.07318","182448.781904","183215.584617","183982.115567","170149.057656","170915.580567","171682.352363","183225.165586","Mapping"
"Mixed","Both","cave","17","m160cave.wav","None","726.051521488","139","180165.937276","172448.976683","173215.312545","173981.870702","174748.973622","175516.040988","176282.697771","177049.073516","180932.105875","181682.07318","182448.781904","183215.584617","183982.115567","184749.169329","170915.580567","171682.352363","183991.263074","Mapping"
"Mixed","Both","cave","17","m150reek.wav","space","440.143913962","139","180165.937276","172448.976683","173215.312545","173981.870702","174748.973622","175516.040988","176282.697771","177049.073516","180932.105875","181682.07318","182448.781904","183215.584617","183982.115567","184749.169329","185516.059538","171682.352363","184759.009075","Mapping"
"Mixed","Both","cave","17","m160cave.wav","None","718.721024226","139","180165.937276","172448.976683","173215.312545","173981.870702","174748.973622","175516.040988","176282.697771","177049.073516","180932.105875","181682.07318","182448.781904","183215.584617","183982.115567","184749.169329","185516.059538","186265.383454","185526.022336","Mapping"
"Mixed","Both","cave","17","m160greet.wav","space","403.57583575","139","180165.937276","187032.036527","173215.312545","173981.870702","174748.973622","175516.040988","176282.697771","177049.073516","180932.105875","181682.07318","182448.781904","183215.584617","183982.115567","184749.169329","185516.059538","186265.383454","186275.528663","Mapping"
"Mixed","Both","cave","17","m160romp.wav","None","730.584000703","139","180165.937276","187032.036527","187798.668886","173981.870702","174748.973622","175516.040988","176282.697771","177049.073516","180932.105875","181682.07318","182448.781904","183215.584617","183982.115567","184749.169329","185516.059538","186265.383454","187041.617495","Mapping"
"Mixed","Both","cave","17","m150cave.wav","None","727.818136569","139","180165.937276","187032.036527","187798.668886","188565.106156","174748.973622","175516.040988","176282.697771","177049.073516","180932.105875","181682.07318","182448.781904","183215.584617","183982.115567","184749.169329","185516.059538","186265.383454","187808.284172","Mapping"
"Mixed","Both","cave","17","m150park.wav","space","465.028028004","139","180165.937276","187032.036527","187798.668886","188565.106156","189332.359335","175516.040988","176282.697771","177049.073516","180932.105875","181682.07318","182448.781904","183215.584617","183982.115567","184749.169329","185516.059538","186265.383454","188574.096295","Mapping"
"Mixed","Both","cave","17","m150cad.wav","None","721.447004937","139","180165.937276","187032.036527","187798.668886","188565.106156","189332.359335","190082.112692","176282.697771","177049.073516","180932.105875","181682.07318","182448.781904","183215.584617","183982.115567","184749.169329","185516.059538","186265.383454","189342.024398","Mapping"
"Mixed","Both","cave","17","m150ball.wav","None","736.06409505","139","180165.937276","187032.036527","187798.668886","188565.106156","189332.359335","190082.112692","190848.673013","177049.073516","180932.105875","181682.07318","182448.781904","183215.584617","183982.115567","184749.169329","185516.059538","186265.383454","190091.281532","Mapping"
"Mixed","Both","cave","17","m160tile.wav","None","732.526844833","139","180165.937276","187032.036527","187798.668886","188565.106156","189332.359335","190082.112692","190848.673013","191615.400907","180932.105875","181682.07318","182448.781904","183215.584617","183982.115567","184749.169329","185516.059538","186265.383454","190858.681568","Mapping"
"Mixed","Both","done","37","m150cling.wav","None","729.702547658","139","194748.941777","187032.036527","187798.668886","188565.106156","189332.359335","190082.112692","190848.673013","191615.400907","180932.105875","181682.07318","182448.781904","183215.584617","183982.115567","184749.169329","185516.059538","186265.383454","191625.365559","Mapping"
"Mixed","Both","done","37","m160depth.wav","None","719.297014643","139","194748.941777","187032.036527","187798.668886","188565.106156","189332.359335","190082.112692","190848.673013","191615.400907","195498.563427","181682.07318","182448.781904","183215.584617","183982.115567","184749.169329","185516.059538","186265.383454","194758.949405","Mapping"
"Mixed","Both","done","37","m150park.wav","None","733.74869721","139","194748.941777","187032.036527","187798.668886","188565.106156","189332.359335","190082.112692","190848.673013","191615.400907","195498.563427","196265.330585","182448.781904","183215.584617","183982.115567","184749.169329","185516.059538","186265.383454","195508.631961","Mapping"
"Mixed","Both","done","37","m150knife.wav","None","731.469163205","139","194748.941777","187032.036527","187798.668886","188565.106156","189332.359335","190082.112692","190848.673013","191615.400907","195498.563427","196265.330585","197031.912239","183215.584617","183982.115567","184749.169329","185516.059538","186265.383454","196274.828695","Mapping"
"Mixed","Both","done","37","m150done.wav","None","729.410997126","139","194748.941777","187032.036527","187798.668886","188565.106156","189332.359335","190082.112692","190848.673013","191615.400907","195498.563427","196265.330585","197031.912239","197798.554492","183982.115567","184749.169329","185516.059538","186265.383454","197040.921856","Mapping"
"Mixed","Both","done","37","m150reek.wav","space","444.002086297","139","194748.941777","187032.036527","187798.668886","188565.106156","189332.359335","190082.112692","190848.673013","191615.400907","195498.563427","196265.330585","197031.912239","197798.554492","198565.089152","184749.169329","185516.059538","186265.383454","197802.903013","Mapping"
"Mixed","Both","done","37","m160knife.wav","None","723.357385956","139","194748.941777","187032.036527","187798.668886","188565.106156","189332.359335","190082.112692","190848.673013","191615.400907","195498.563427","196265.330585","197031.912239","197798.554492","198565.089152","199331.797258","185516.059538","186265.383454","198574.285199","Mapping"
"Mixed","Both","done","37","m160gnash.wav","None","726.016584784","139","194748.941777","187032.036527","187798.668886","188565.106156","189332.359335","190082.112692","190848.673013","191615.400907","195498.563427","196265.330585","197031.912239","197798.554492","198565.089152","199331.797258","200098.447858","186265.383454","199341.136762","Mapping"
"Mixed","Both","done","37","m160done.wav","None","727.147849742","139","194748.941777","187032.036527","187798.668886","188565.106156","189332.359335","190082.112692","190848.673013","191615.400907","195498.563427","196265.330585","197031.912239","197798.554492","198565.089152","199331.797258","200098.447858","200865.543049","200107.968537","Mapping"
"Mixed","Both","done","37","m160lash.wav","space","443.395179231","139","194748.941777","201632.051738","187798.668886","188565.106156","189332.359335","190082.112692","190848.673013","191615.400907","195498.563427","196265.330585","197031.912239","197798.554492","198565.089152","199331.797258","200098.447858","200865.543049","200875.504918","Mapping"
"Mixed","Both","done","37","m160priest.wav","None","720.546074212","139","194748.941777","201632.051738","202398.978739","188565.106156","189332.359335","190082.112692","190848.673013","191615.400907","195498.563427","196265.330585","197031.912239","197798.554492","198565.089152","199331.797258","200098.447858","200865.543049","201641.968159","Mapping"
"Mixed","Both","done","37","m150done.wav","None","720.895748585","139","194748.941777","201632.051738","202398.978739","203148.514129","189332.359335","190082.112692","190848.673013","191615.400907","195498.563427","196265.330585","197031.912239","197798.554492","198565.089152","199331.797258","200098.447858","200865.543049","202409.156103","Mapping"
"Mixed","Both","done","37","m150ball.wav","space","561.033108272","139","194748.941777","201632.051738","202398.978739","203148.514129","203914.771461","190082.112692","190848.673013","191615.400907","195498.563427","196265.330585","197031.912239","197798.554492","198565.089152","199331.797258","200098.447858","200865.543049","203157.766137","Mapping"
"Mixed","Both","done","37","m160done.wav","None","733.048729133","139","194748.941777","201632.051738","202398.978739","203148.514129","203914.771461","204681.749475","190848.673013","191615.400907","195498.563427","196265.330585","197031.912239","197798.554492","198565.089152","199331.797258","200098.447858","200865.543049","203924.236798","Mapping"
"Mixed","Both","done","37","m160cad.wav","space","435.711916536","139","194748.941777","201632.051738","202398.978739","203148.514129","203914.771461","204681.749475","205448.094921","191615.400907","195498.563427","196265.330585","197031.912239","197798.554492","198565.089152","199331.797258","200098.447858","200865.543049","204691.086506","Mapping"
"Mixed","Both","done","37","m150reek.wav","None","728.031157516","139","194748.941777","201632.051738","202398.978739","203148.514129","203914.771461","204681.749475","205448.094921","206215.092723","195498.563427","196265.330585","197031.912239","197798.554492","198565.089152","199331.797258","200098.447858","200865.543049","205457.077021","Mapping"
"Mixed","Both","cave","14","m150jolt.wav","None","724.484631326","139","209331.683791","201632.051738","202398.978739","203148.514129","203914.771461","204681.749475","205448.094921","206215.092723","195498.563427","196265.330585","197031.912239","197798.554492","198565.089152","199331.797258","200098.447858","200865.543049","206224.722231","Mapping"
"Mixed","Both","cave","14","m160park.wav","None","724.397753365","139","209331.683791","201632.051738","202398.978739","203148.514129","203914.771461","204681.749475","205448.094921","206215.092723","210098.290798","196265.330585","197031.912239","197798.554492","198565.089152","199331.797258","200098.447858","200865.543049","209341.438206","Mapping"
"Mixed","Both","cave","14","m160cave.wav","None","725.255091209","139","209331.683791","201632.051738","202398.978739","203148.514129","203914.771461","204681.749475","205448.094921","206215.092723","210098.290798","210865.251807","197031.912239","197798.554492","198565.089152","199331.797258","200098.447858","200865.543049","210107.890625","Mapping"
"Mixed","Both","cave","14","m160knife.wav","space","603.62202581","139","209331.683791","201632.051738","202398.978739","203148.514129","203914.771461","204681.749475","205448.094921","206215.092723","210098.290798","210865.251807","211632.231059","197798.554492","198565.089152","199331.797258","200098.447858","200865.543049","210875.091245","Mapping"
"Mixed","Both","cave","14","m150cave.wav","None","718.909620307","139","209331.683791","201632.051738","202398.978739","203148.514129","203914.771461","204681.749475","205448.094921","206215.092723","210098.290798","210865.251807","211632.231059","212381.602278","198565.089152","199331.797258","200098.447858","200865.543049","211641.735971","Mapping"
"Mixed","Both","cave","14","m150bluff.wav","space","551.055470947","139","209331.683791","201632.051738","202398.978739","203148.514129","203914.771461","204681.749475","205448.094921","206215.092723","210098.290798","210865.251807","211632.231059","212381.602278","213147.850953","199331.797258","200098.447858","200865.543049","212391.578369","Mapping"
"Mixed","Both","cave","14","m150romp.wav","None","736.448088195","139","209331.683791","201632.051738","202398.978739","203148.514129","203914.771461","204681.749475","205448.094921","206215.092723","210098.290798","210865.251807","211632.231059","212381.602278","213147.850953","213915.043224","200098.447858","200865.543049","213151.575871","Mapping"
"Mixed","Both","cave","14","m160cad.wav","None","730.952844024","139","209331.683791","201632.051738","202398.978739","203148.514129","203914.771461","204681.749475","205448.094921","206215.092723","210098.290798","210865.251807","211632.231059","212381.602278","213147.850953","213915.043224","214681.546039","200865.543049","213924.392621","Mapping"
"Mixed","Both","cave","14","m160park.wav","None","727.876261342","139","209331.683791","201632.051738","202398.978739","203148.514129","203914.771461","204681.749475","205448.094921","206215.092723","210098.290798","210865.251807","211632.231059","212381.602278","213147.850953","213915.043224","214681.546039","215448.099559","214691.657549","Mapping"
"Mixed","Both","cave","14","m150done.wav","None","725.891988259","139","209331.683791","216214.709348","202398.978739","203148.514129","203914.771461","204681.749475","205448.094921","206215.092723","210098.290798","210865.251807","211632.231059","212381.602278","213147.850953","213915.043224","214681.546039","215448.099559","215457.716082","Mapping"
"Mixed","Both","cave","14","m150cave.wav","None","723.891636822","139","209331.683791","216214.709348","216981.515771","203148.514129","203914.771461","204681.749475","205448.094921","206215.092723","210098.290798","210865.251807","211632.231059","212381.602278","213147.850953","213915.043224","214681.546039","215448.099559","216223.84387","Mapping"
"Mixed","Both","cave","14","m160tile.wav","space","536.111893598","139","209331.683791","216214.709348","216981.515771","217731.33189","203914.771461","204681.749475","205448.094921","206215.092723","210098.290798","210865.251807","211632.231059","212381.602278","213147.850953","213915.043224","214681.546039","215448.099559","216990.45706","Mapping"
"Mixed","Both","cave","14","m160park.wav","None","734.13114436","139","209331.683791","216214.709348","216981.515771","217731.33189","218497.91169","204681.749475","205448.094921","206215.092723","210098.290798","210865.251807","211632.231059","212381.602278","213147.850953","213915.043224","214681.546039","215448.099559","217741.389913","Mapping"
"Mixed","Both","cave","14","m160cave.wav","None","732.485415414","139","209331.683791","216214.709348","216981.515771","217731.33189","218497.91169","219264.918766","205448.094921","206215.092723","210098.290798","210865.251807","211632.231059","212381.602278","213147.850953","213915.043224","214681.546039","215448.099559","218507.083313","Mapping"
"Mixed","Both","cave","14","m150park.wav","space","411.98256379","139","209331.683791","216214.709348","216981.515771","217731.33189","218497.91169","219264.918766","220031.726117","206215.092723","210098.290798","210865.251807","211632.231059","212381.602278","213147.850953","213915.043224","214681.546039","215448.099559","219274.53158","Mapping"
"Mixed","Both","cave","14","m150reek.wav","None","724.523896351","139","209331.683791","216214.709348","216981.515771","217731.33189","218497.91169","219264.918766","220031.726117","220798.599322","210098.290798","210865.251807","211632.231059","212381.602278","213147.850953","213915.043224","214681.546039","215448.099559","220042.504204","Mapping"
"Mixed","Both","ball","9","m160gnash.wav","None","722.228903789","139","223914.36768","216214.709348","216981.515771","217731.33189","218497.91169","219264.918766","220031.726117","220798.599322","210098.290798","210865.251807","211632.231059","212381.602278","213147.850953","213915.043224","214681.546039","215448.099559","220808.793071","Mapping"
"Mixed","Both","ball","9","m150ball.wav","None","724.542137701","139","223914.36768","216214.709348","216981.515771","217731.33189","218497.91169","219264.918766","220031.726117","220798.599322","224681.23161","210865.251807","211632.231059","212381.602278","213147.850953","213915.043224","214681.546039","215448.099559","223923.390591","Mapping"
"Mixed","Both","ball","9","m160dime.wav","space","523.918102495","139","223914.36768","216214.709348","216981.515771","217731.33189","218497.91169","219264.918766","220031.726117","220798.599322","224681.23161","225431.078956","211632.231059","212381.602278","213147.850953","213915.043224","214681.546039","215448.099559","224690.539888","Mapping"
"Mixed","Both","ball","9","m160cad.wav","None","735.522423871","139","223914.36768","216214.709348","216981.515771","217731.33189","218497.91169","219264.918766","220031.726117","220798.599322","224681.23161","225431.078956","226197.992044","212381.602278","213147.850953","213915.043224","214681.546039","215448.099559","225440.433918","Mapping"
"Mixed","Both","ball","9","m160ball.wav","None","732.855805196","139","223914.36768","216214.709348","216981.515771","217731.33189","218497.91169","219264.918766","220031.726117","220798.599322","224681.23161","225431.078956","226197.992044","226964.796612","213147.850953","213915.043224","214681.546039","215448.099559","226207.406058","Mapping"
"Mixed","Both","ball","9","m150bluff.wav","space","496.018931735","139","223914.36768","216214.709348","216981.515771","217731.33189","218497.91169","219264.918766","220031.726117","220798.599322","224681.23161","225431.078956","226197.992044","226964.796612","227731.065692","213915.043224","214681.546039","215448.099559","226974.394585","Mapping"
"Mixed","Both","ball","9","m150romp.wav","None","726.722427178","139","223914.36768","216214.709348","216981.515771","217731.33189","218497.91169","219264.918766","220031.726117","220798.599322","224681.23161","225431.078956","226197.992044","226964.796612","227731.065692","228497.9188","214681.546039","215448.099559","227741.351884","Mapping"
"Mixed","Both","ball","9","m150ball.wav","None","724.592841696","139","223914.36768","216214.709348","216981.515771","217731.33189","218497.91169","219264.918766","220031.726117","220798.599322","224681.23161","225431.078956","226197.992044","226964.796612","227731.065692","228497.9188","229264.907018","215448.099559","228507.774933","Mapping"
"Mixed","Both","ball","9","m160park.wav","space","419.329137076","139","223914.36768","216214.709348","216981.515771","217731.33189","218497.91169","219264.918766","220031.726117","220798.599322","224681.23161","225431.078956","226197.992044","226964.796612","227731.065692","228497.9188","229264.907018","230031.361911","229275.004615","Mapping"
"Mixed","Both","ball","9","m160lash.wav","None","728.905189782","139","223914.36768","230798.373316","216981.515771","217731.33189","218497.91169","219264.918766","220031.726117","220798.599322","224681.23161","225431.078956","226197.992044","226964.796612","227731.065692","228497.9188","229264.907018","230031.361911","230035.046946","Mapping"
"Mixed","Both","ball","9","m150reek.wav","None","720.454867929","139","223914.36768","230798.373316","231547.370436","217731.33189","218497.91169","219264.918766","220031.726117","220798.599322","224681.23161","225431.078956","226197.992044","226964.796612","227731.065692","228497.9188","229264.907018","230031.361911","230808.029723","Mapping"
"Mixed","Both","ball","9","m150park.wav","None","736.27742473","139","223914.36768","230798.373316","231547.370436","232314.686376","218497.91169","219264.918766","220031.726117","220798.599322","224681.23161","225431.078956","226197.992044","226964.796612","227731.065692","228497.9188","229264.907018","230031.361911","231556.43694","Mapping"
"Mixed","Both","ball","9","m160knife.wav","None","732.568892185","139","223914.36768","230798.373316","231547.370436","232314.686376","233081.189501","219264.918766","220031.726117","220798.599322","224681.23161","225431.078956","226197.992044","226964.796612","227731.065692","228497.9188","229264.907018","230031.361911","232324.243847","Mapping"
"Mixed","Both","ball","9","m160ball.wav","None","730.867821258","139","223914.36768","230798.373316","231547.370436","232314.686376","233081.189501","233847.936563","220031.726117","220798.599322","224681.23161","225431.078956","226197.992044","226964.796612","227731.065692","228497.9188","229264.907018","230031.361911","233090.285376","Mapping"
"Mixed","Both","ball","9","m150reek.wav","space","404.937743209","139","223914.36768","230798.373316","231547.370436","232314.686376","233081.189501","233847.936563","234614.601075","220798.599322","224681.23161","225431.078956","226197.992044","226964.796612","227731.065692","228497.9188","229264.907018","230031.361911","233857.315641","Mapping"
"Mixed","Both","ball","9","m150tile.wav","None","724.576765206","139","223914.36768","230798.373316","231547.370436","232314.686376","233081.189501","233847.936563","234614.601075","235381.169435","224681.23161","225431.078956","226197.992044","226964.796612","227731.065692","228497.9188","229264.907018","230031.361911","234624.344669","Mapping"
"Mixed","Both","tile","28","m150gnash.wav","None","726.277526934","139","238498.166139","230798.373316","231547.370436","232314.686376","233081.189501","233847.936563","234614.601075","235381.169435","224681.23161","225431.078956","226197.992044","226964.796612","227731.065692","228497.9188","229264.907018","230031.361911","235390.495336","Mapping"
"Mixed","Both","tile","28","m160greet.wav","None","720.530615188","139","238498.166139","230798.373316","231547.370436","232314.686376","233081.189501","233847.936563","234614.601075","235381.169435","239247.742031","225431.078956","226197.992044","226964.796612","227731.065692","228497.9188","229264.907018","230031.361911","238508.268992","Mapping"
"Mixed","Both","tile","28","m150done.wav","None","735.51283963","139","238498.166139","230798.373316","231547.370436","232314.686376","233081.189501","233847.936563","234614.601075","235381.169435","239247.742031","240014.567932","226197.992044","226964.796612","227731.065692","228497.9188","229264.907018","230031.361911","239257.67051","Mapping"
"Mixed","Both","tile","28","m150tile.wav","space","662.419038825","139","238498.166139","230798.373316","231547.370436","232314.686376","233081.189501","233847.936563","234614.601075","235381.169435","239247.742031","240014.567932","240780.776105","226964.796612","227731.065692","228497.9188","229264.907018","230031.361911","240023.71884","Mapping"
"Mixed","Both","tile","28","m150cave.wav","None","731.236664578","139","238498.166139","230798.373316","231547.370436","232314.686376","233081.189501","233847.936563","234614.601075","235381.169435","239247.742031","240014.567932","240780.776105","241547.384348","227731.065692","228497.9188","229264.907018","230031.361911","240789.898879","Mapping"
"Mixed","Both","tile","28","m160cling.wav","space","161.16209561","139","238498.166139","230798.373316","231547.370436","232314.686376","233081.189501","233847.936563","234614.601075","235381.169435","239247.742031","240014.567932","240780.776105","241547.384348","242314.082561","228497.9188","229264.907018","230031.361911","241556.979229","Mapping"
"Mixed","Both","tile","28","m160tile.wav","None","726.083057001","139","238498.166139","230798.373316","231547.370436","232314.686376","233081.189501","233847.936563","234614.601075","235381.169435","239247.742031","240014.567932","240780.776105","241547.384348","242314.082561","243080.803034","229264.907018","230031.361911","242323.02756","Mapping"
"Mixed","Both","tile","28","m150greet.wav","space","668.267668225","139","238498.166139","230798.373316","231547.370436","232314.686376","233081.189501","233847.936563","234614.601075","235381.169435","239247.742031","240014.567932","240780.776105","241547.384348","242314.082561","243080.803034","243848.166278","230031.361911","243089.813578","Mapping"
"Mixed","Both","tile","28","m150ball.wav","None","724.168965593","139","238498.166139","230798.373316","231547.370436","232314.686376","233081.189501","233847.936563","234614.601075","235381.169435","239247.742031","240014.567932","240780.776105","241547.384348","242314.082561","243080.803034","243848.166278","244597.627776","243852.901266","Mapping"
"Mixed","Both","tile","28","m160tile.wav","None","734.432279132","139","238498.166139","245364.425542","231547.370436","232314.686376","233081.189501","233847.936563","234614.601075","235381.169435","239247.742031","240014.567932","240780.776105","241547.384348","242314.082561","243080.803034","243848.166278","244597.627776","244607.029424","Mapping"
"Mixed","Both","tile","28","m160park.wav","space","471.986589488","139","238498.166139","245364.425542","246130.815509","232314.686376","233081.189501","233847.936563","234614.601075","235381.169435","239247.742031","240014.567932","240780.776105","241547.384348","242314.082561","243080.803034","243848.166278","244597.627776","245374.08164","Mapping"
"Mixed","Both","tile","28","m150bluff.wav","None","729.302168358","139","238498.166139","245364.425542","246130.815509","246897.264837","233081.189501","233847.936563","234614.601075","235381.169435","239247.742031","240014.567932","240780.776105","241547.384348","242314.082561","243080.803034","243848.166278","244597.627776","246140.037837","Mapping"
"Mixed","Both","tile","28","m160greet.wav","None","727.576054167","139","238498.166139","245364.425542","246130.815509","246897.264837","247664.009117","233847.936563","234614.601075","235381.169435","239247.742031","240014.567932","240780.776105","241547.384348","242314.082561","243080.803034","243848.166278","244597.627776","246906.383901","Mapping"
"Mixed","Both","tile","28","m160knife.wav","None","725.37597781","139","238498.166139","245364.425542","246130.815509","246897.264837","247664.009117","248431.453055","234614.601075","235381.169435","239247.742031","240014.567932","240780.776105","241547.384348","242314.082561","243080.803034","243848.166278","244597.627776","247672.937111","Mapping"
"Mixed","Both","tile","28","m150tile.wav","None","721.568200737","139","238498.166139","245364.425542","246130.815509","246897.264837","247664.009117","248431.453055","249198.119114","235381.169435","239247.742031","240014.567932","240780.776105","241547.384348","242314.082561","243080.803034","243848.166278","244597.627776","248440.967861","Mapping"
"Mixed","Both","tile","28","m160greet.wav","space","437.762971502","139","238498.166139","245364.425542","246130.815509","246897.264837","247664.009117","248431.453055","249198.119114","249947.243304","239247.742031","240014.567932","240780.776105","241547.384348","242314.082561","243080.803034","243848.166278","244597.627776","249208.260304","Mapping"
"Mixed","Both","cave","15","m150knife.wav","None","734.230079688","139","253081.140033","245364.425542","246130.815509","246897.264837","247664.009117","248431.453055","249198.119114","249947.243304","239247.742031","240014.567932","240780.776105","241547.384348","242314.082561","243080.803034","243848.166278","244597.627776","249956.356184","Mapping"
"Mixed","Both","cave","15","m150bluff.wav","None","711.183072999","139","253081.140033","245364.425542","246130.815509","246897.264837","247664.009117","248431.453055","249198.119114","249947.243304","253830.317091","240014.567932","240780.776105","241547.384348","242314.082561","243080.803034","243848.166278","244597.627776","253100.190358","Mapping"
"Mixed","Both","cave","15","m150cave.wav","None","736.042453442","139","253081.140033","245364.425542","246130.815509","246897.264837","247664.009117","248431.453055","249198.119114","249947.243304","253830.317091","254597.564705","240780.776105","241547.384348","242314.082561","243080.803034","243848.166278","244597.627776","253839.499844","Mapping"
"Mixed","Both","cave","15","m160done.wav","None","731.165246107","139","253081.140033","245364.425542","246130.815509","246897.264837","247664.009117","248431.453055","249198.119114","249947.243304","253830.317091","254597.564705","255364.268173","241547.384348","242314.082561","243080.803034","243848.166278","244597.627776","254608.779344","Mapping"
"Mixed","Both","cave","15","m150cave.wav","space","335.90369625","139","253081.140033","245364.425542","246130.815509","246897.264837","247664.009117","248431.453055","249198.119114","249947.243304","253830.317091","254597.564705","255364.268173","256131.177242","242314.082561","243080.803034","243848.166278","244597.627776","255373.944985","Mapping"
"Mixed","Both","cave","15","m150done.wav","space","544.075885788","139","253081.140033","245364.425542","246130.815509","246897.264837","247664.009117","248431.453055","249198.119114","249947.243304","253830.317091","254597.564705","255364.268173","256131.177242","256897.8399","243080.803034","243848.166278","244597.627776","256141.775081","Mapping"
"Mixed","Both","cave","15","m160jolt.wav","None","722.668548115","139","253081.140033","245364.425542","246130.815509","246897.264837","247664.009117","248431.453055","249198.119114","249947.243304","253830.317091","254597.564705","255364.268173","256131.177242","256897.8399","257664.519253","243848.166278","244597.627776","256908.409295","Mapping"
"Mixed","Both","cave","15","m160greet.wav","None","721.469264943","139","253081.140033","245364.425542","246130.815509","246897.264837","247664.009117","248431.453055","249198.119114","249947.243304","253830.317091","254597.564705","255364.268173","256131.177242","256897.8399","257664.519253","258430.716605","244597.627776","257674.243677","Mapping"
"Mixed","Both","cave","15","m150dime.wav","None","718.412778806","139","253081.140033","245364.425542","246130.815509","246897.264837","247664.009117","248431.453055","249198.119114","249947.243304","253830.317091","254597.564705","255364.268173","256131.177242","256897.8399","257664.519253","258430.716605","259180.676799","258441.584352","Mapping"
"Mixed","Both","cave","15","m160ball.wav","None","734.218331054","139","253081.140033","259947.409329","246130.815509","246897.264837","247664.009117","248431.453055","249198.119114","249947.243304","253830.317091","254597.564705","255364.268173","256131.177242","256897.8399","257664.519253","258430.716605","259180.676799","259190.016612","Mapping"
"Mixed","Both","cave","15","m160priest.wav","None","726.881033275","139","253081.140033","259947.409329","260713.791567","246897.264837","247664.009117","248431.453055","249198.119114","249947.243304","253830.317091","254597.564705","255364.268173","256131.177242","256897.8399","257664.519253","258430.716605","259180.676799","259961.829786","Mapping"
"Mixed","Both","cave","15","m160cave.wav","None","730.37654534","139","253081.140033","259947.409329","260713.791567","261480.439384","247664.009117","248431.453055","249198.119114","249947.243304","253830.317091","254597.564705","255364.268173","256131.177242","256897.8399","257664.519253","258430.716605","259180.676799","260722.549825","Mapping"
"Mixed","Both","cave","15","m160park.wav","space","603.774447925","139","253081.140033","259947.409329","260713.791567","261480.439384","262247.675559","248431.453055","249198.119114","249947.243304","253830.317091","254597.564705","255364.268173","256131.177242","256897.8399","257664.519253","258430.716605","259180.676799","261490.000257","Mapping"
"Mixed","Both","cave","15","m150dime.wav","None","723.500842229","139","253081.140033","259947.409329","260713.791567","261480.439384","262247.675559","263014.456011","249198.119114","249947.243304","253830.317091","254597.564705","255364.268173","256131.177242","256897.8399","257664.519253","258430.716605","259180.676799","262257.476658","Mapping"
"Mixed","Both","cave","15","m160cave.wav","None","720.091589727","139","253081.140033","259947.409329","260713.791567","261480.439384","262247.675559","263014.456011","263780.930383","249947.243304","253830.317091","254597.564705","255364.268173","256131.177242","256897.8399","257664.519253","258430.716605","259180.676799","263025.100226","Mapping"
"Mixed","Both","cave","15","m150cling.wav","space","590.466087684","139","253081.140033","259947.409329","260713.791567","261480.439384","262247.675559","263014.456011","263780.930383","264530.717439","253830.317091","254597.564705","255364.268173","256131.177242","256897.8399","257664.519253","258430.716605","259180.676799","263791.292632","Mapping"
"Mixed","Both","done","42","m150cave.wav","None","732.609084807","139","267664.460819","259947.409329","260713.791567","261480.439384","262247.675559","263014.456011","263780.930383","264530.717439","253830.317091","254597.564705","255364.268173","256131.177242","256897.8399","257664.519253","258430.716605","259180.676799","264540.333653","Mapping"
"Mixed","Both","done","42","m150priest.wav","None","719.65534566","139","267664.460819","259947.409329","260713.791567","261480.439384","262247.675559","263014.456011","263780.930383","264530.717439","268413.683635","254597.564705","255364.268173","256131.177242","256897.8399","257664.519253","258430.716605","259180.676799","267674.289744","Mapping"
"Mixed","Both","done","42","m160cling.wav","None","735.498308204","139","267664.460819","259947.409329","260713.791567","261480.439384","262247.675559","263014.456011","263780.930383","264530.717439","268413.683635","269180.557149","255364.268173","256131.177242","256897.8399","257664.519253","258430.716605","259180.676799","268423.091157","Mapping"
"Mixed","Both","done","42","m160done.wav","None","732.964324765","139","267664.460819","259947.409329","260713.791567","261480.439384","262247.675559","263014.456011","263780.930383","264530.717439","268413.683635","269180.557149","269946.823137","256131.177242","256897.8399","257664.519253","258430.716605","259180.676799","269189.926952","Mapping"
"Mixed","Both","done","42","m150reek.wav","space","441.613723058","139","267664.460819","259947.409329","260713.791567","261480.439384","262247.675559","263014.456011","263780.930383","264530.717439","268413.683635","269180.557149","269946.823137","270714.088373","256897.8399","257664.519253","258430.716605","259180.676799","269956.018876","Mapping"
"Mixed","Both","done","42","m160dime.wav","None","726.878559683","139","267664.460819","259947.409329","260713.791567","261480.439384","262247.675559","263014.456011","263780.930383","264530.717439","268413.683635","269180.557149","269946.823137","270714.088373","271480.456389","257664.519253","258430.716605","259180.676799","270724.236365","Mapping"
"Mixed","Both","done","42","m150depth.wav","None","725.977938157","139","267664.460819","259947.409329","260713.791567","261480.439384","262247.675559","263014.456011","263780.930383","264530.717439","268413.683635","269180.557149","269946.823137","270714.088373","271480.456389","272247.613105","258430.716605","259180.676799","271489.604206","Mapping"
"Mixed","Both","done","42","m160ball.wav","None","722.670402844","139","267664.460819","259947.409329","260713.791567","261480.439384","262247.675559","263014.456011","263780.930383","264530.717439","268413.683635","269180.557149","269946.823137","270714.088373","271480.456389","272247.613105","273014.394486","259180.676799","272257.652578","Mapping"
"Mixed","Both","done","42","m160done.wav","None","720.755384304","139","267664.460819","259947.409329","260713.791567","261480.439384","262247.675559","263014.456011","263780.930383","264530.717439","268413.683635","269180.557149","269946.823137","270714.088373","271480.456389","272247.613105","273014.394486","273763.708198","273024.012555","Mapping"
"Mixed","Both","done","42","m150reek.wav","space","352.446008474","139","267664.460819","274530.319225","260713.791567","261480.439384","262247.675559","263014.456011","263780.930383","264530.717439","268413.683635","269180.557149","269946.823137","270714.088373","271480.456389","272247.613105","273014.394486","273763.708198","273773.120358","Mapping"
"Mixed","Both","done","42","m160gnash.wav","None","733.09232248","139","267664.460819","274530.319225","275297.088238","261480.439384","262247.675559","263014.456011","263780.930383","264530.717439","268413.683635","269180.557149","269946.823137","270714.088373","271480.456389","272247.613105","273014.394486","273763.708198","274539.413245","Mapping"
"Mixed","Both","done","42","m150done.wav","None","730.427249335","139","267664.460819","274530.319225","275297.088238","276063.839319","262247.675559","263014.456011","263780.930383","264530.717439","268413.683635","269180.557149","269946.823137","270714.088373","271480.456389","272247.613105","273014.394486","273763.708198","275306.520803","Mapping"
"Mixed","Both","done","42","m160greet.wav","space","372.157654725","139","267664.460819","274530.319225","275297.088238","276063.839319","276830.475697","263014.456011","263780.930383","264530.717439","268413.683635","269180.557149","269946.823137","270714.088373","271480.456389","272247.613105","273014.394486","273763.708198","276073.390298","Mapping"
"Mixed","Both","done","42","m150done.wav","None","725.764299277","139","267664.460819","274530.319225","275297.088238","276063.839319","276830.475697","277597.565632","263780.930383","264530.717439","268413.683635","269180.557149","269946.823137","270714.088373","271480.456389","272247.613105","273014.394486","273763.708198","276839.790158","Mapping"
"Mixed","Both","done","42","m160tile.wav","space","453.729293775","139","267664.460819","274530.319225","275297.088238","276063.839319","276830.475697","277597.565632","278364.372983","264530.717439","268413.683635","269180.557149","269946.823137","270714.088373","271480.456389","272247.613105","273014.394486","273763.708198","277607.779169","Mapping"
"Mixed","Both","done","42","m150knife.wav","None","719.3368976","139","267664.460819","274530.319225","275297.088238","276063.839319","276830.475697","277597.565632","278364.372983","279113.147188","268413.683635","269180.557149","269946.823137","270714.088373","271480.456389","272247.613105","273014.394486","273763.708198","278374.109465","Mapping"
"Mixed","Both","tile","26","m150reek.wav","None","735.60157232","139","282247.384317","274530.319225","275297.088238","276063.839319","276830.475697","277597.565632","278364.372983","279113.147188","268413.683635","269180.557149","269946.823137","270714.088373","271480.456389","272247.613105","273014.394486","273763.708198","279122.453611","Mapping"
"Mixed","Both","tile","26","m160tile.wav","None","720.984172542","139","282247.384317","274530.319225","275297.088238","276063.839319","276830.475697","277597.565632","278364.372983","279113.147188","282996.867457","269180.557149","269946.823137","270714.088373","271480.456389","272247.613105","273014.394486","273763.708198","282256.885828","Mapping"
"Mixed","Both","tile","26","m160priest.wav","space","479.483421426","139","282247.384317","274530.319225","275297.088238","276063.839319","276830.475697","277597.565632","278364.372983","279113.147188","282996.867457","283763.669861","269946.823137","270714.088373","271480.456389","272247.613105","273014.394486","273763.708198","283005.913556","Mapping"
"Mixed","Both","tile","26","m160tile.wav","None","732.413378078","139","282247.384317","274530.319225","275297.088238","276063.839319","276830.475697","277597.565632","278364.372983","279113.147188","282996.867457","283763.669861","284530.228327","270714.088373","271480.456389","272247.613105","273014.394486","273763.708198","283773.757255","Mapping"
"Mixed","Both","tile","26","m160depth.wav","None","730.905231088","139","282247.384317","274530.319225","275297.088238","276063.839319","276830.475697","277597.565632","278364.372983","279113.147188","282996.867457","283763.669861","284530.228327","285297.046499","271480.456389","272247.613105","273014.394486","273763.708198","284539.663057","Mapping"
"Mixed","Both","tile","26","m150cave.wav","space","155.018514488","139","282247.384317","274530.319225","275297.088238","276063.839319","276830.475697","277597.565632","278364.372983","279113.147188","282996.867457","283763.669861","284530.228327","285297.046499","286063.604038","272247.613105","273014.394486","273763.708198","285306.333753","Mapping"
"Mixed","Both","tile","26","m150tile.wav","None","725.97175464","139","282247.384317","274530.319225","275297.088238","276063.839319","276830.475697","277597.565632","278364.372983","279113.147188","282996.867457","283763.669861","284530.228327","285297.046499","286063.604038","286829.977001","273014.394486","273763.708198","286073.055154","Mapping"
"Mixed","Both","tile","26","m160jolt.wav","space","462.16230141","139","282247.384317","274530.319225","275297.088238","276063.839319","276830.475697","277597.565632","278364.372983","279113.147188","282996.867457","283763.669861","284530.228327","285297.046499","286063.604038","286829.977001","287596.648624","273763.708198","286839.097301","Mapping"
"Mixed","Both","tile","26","m150greet.wav","None","721.766689792","139","282247.384317","274530.319225","275297.088238","276063.839319","276830.475697","277597.565632","278364.372983","279113.147188","282996.867457","283763.669861","284530.228327","285297.046499","286063.604038","286829.977001","287596.648624","288346.811636","287605.835088","Mapping"
"Mixed","Both","tile","26","m150tile.wav","None","736.508377362","139","282247.384317","289113.598272","275297.088238","276063.839319","276830.475697","277597.565632","278364.372983","279113.147188","282996.867457","283763.669861","284530.228327","285297.046499","286063.604038","286829.977001","287596.648624","288346.811636","288355.833001","Mapping"
"Mixed","Both","tile","26","m150priest.wav","space","434.10050543","139","282247.384317","289113.598272","289880.210844","276063.839319","276830.475697","277597.565632","278364.372983","279113.147188","282996.867457","283763.669861","284530.228327","285297.046499","286063.604038","286829.977001","287596.648624","288346.811636","289123.182641","Mapping"
"Mixed","Both","tile","26","m150gnash.wav","None","730.222577229","139","282247.384317","289113.598272","289880.210844","290646.842584","276830.475697","277597.565632","278364.372983","279113.147188","282996.867457","283763.669861","284530.228327","285297.046499","286063.604038","286829.977001","287596.648624","288346.811636","289890.281851","Mapping"
"Mixed","Both","tile","26","m150cad.wav","None","728.877364192","139","282247.384317","289113.598272","289880.210844","290646.842584","291413.190504","277597.565632","278364.372983","279113.147188","282996.867457","283763.669861","284530.228327","285297.046499","286063.604038","286829.977001","287596.648624","288346.811636","290656.273913","Mapping"
"Mixed","Both","tile","26","m160romp.wav","None","727.81628184","139","282247.384317","289113.598272","289880.210844","290646.842584","291413.190504","292179.88717","278364.372983","279113.147188","282996.867457","283763.669861","284530.228327","285297.046499","286063.604038","286829.977001","287596.648624","288346.811636","291422.241858","Mapping"
"Mixed","Both","tile","26","m160knife.wav","None","725.832008291","139","282247.384317","289113.598272","289880.210844","290646.842584","291413.190504","292179.88717","292947.002457","279113.147188","282996.867457","283763.669861","284530.228327","285297.046499","286063.604038","286829.977001","287596.648624","288346.811636","292189.007161","Mapping"
"Mixed","Both","tile","26","m160ball.wav","None","723.507334944","139","282247.384317","289113.598272","289880.210844","290646.842584","291413.190504","292179.88717","292947.002457","293713.977689","282996.867457","283763.669861","284530.228327","285297.046499","286063.604038","286829.977001","287596.648624","288346.811636","292956.109772","Mapping"
"Mixed","Both","cave","18","m160dime.wav","None","720.248340163","139","296830.306579","289113.598272","289880.210844","290646.842584","291413.190504","292179.88717","292947.002457","293713.977689","282996.867457","283763.669861","284530.228327","285297.046499","286063.604038","286829.977001","287596.648624","288346.811636","293723.837841","Mapping"
"Mixed","Both","cave","18","m160dime.wav","None","720.974897034","139","296830.306579","289113.598272","289880.210844","290646.842584","291413.190504","292179.88717","292947.002457","293713.977689","297580.281613","283763.669861","284530.228327","285297.046499","286063.604038","286829.977001","287596.648624","288346.811636","296840.1859","Mapping"
"Mixed","Both","cave","18","m150bluff.wav","None","734.525030944","139","296830.306579","289113.598272","289880.210844","290646.842584","291413.190504","292179.88717","292947.002457","293713.977689","297580.281613","298346.942416","284530.228327","285297.046499","286063.604038","286829.977001","287596.648624","288346.811636","297591.118752","Mapping"
"Mixed","Both","cave","18","m150cave.wav","None","734.085077886","139","296830.306579","289113.598272","289880.210844","290646.842584","291413.190504","292179.88717","292947.002457","293713.977689","297580.281613","298346.942416","299113.480477","285297.046499","286063.604038","286829.977001","287596.648624","288346.811636","298356.178965","Mapping"
"Mixed","Both","cave","18","m150depth.wav","space","410.102790687","139","296830.306579","289113.598272","289880.210844","290646.842584","291413.190504","292179.88717","292947.002457","293713.977689","297580.281613","298346.942416","299113.480477","299880.058112","286063.604038","286829.977001","287596.648624","288346.811636","299122.987244","Mapping"
"Mixed","Both","cave","18","m160jolt.wav","None","728.50697441","139","296830.306579","289113.598272","289880.210844","290646.842584","291413.190504","292179.88717","292947.002457","293713.977689","297580.281613","298346.942416","299113.480477","299880.058112","300646.424891","286829.977001","287596.648624","288346.811636","299889.518503","Mapping"
"Mixed","Both","cave","18","m150cave.wav","None","727.065918501","139","296830.306579","289113.598272","289880.210844","290646.842584","291413.190504","292179.88717","292947.002457","293713.977689","297580.281613","298346.942416","299113.480477","299880.058112","300646.424891","301413.83884","287596.648624","288346.811636","300655.488613","Mapping"
"Mixed","Both","cave","18","m150cling.wav","space","469.723750837","139","296830.306579","289113.598272","289880.210844","290646.842584","291413.190504","292179.88717","292947.002457","293713.977689","297580.281613","298346.942416","299113.480477","299880.058112","300646.424891","301413.83884","302180.358969","288346.811636","301423.340041","Mapping"
"Mixed","Both","cave","18","m150dime.wav","None","720.025426243","139","296830.306579","289113.598272","289880.210844","290646.842584","291413.190504","292179.88717","292947.002457","293713.977689","297580.281613","298346.942416","299113.480477","299880.058112","300646.424891","301413.83884","302180.358969","302930.055129","302190.689373","Mapping"
"Mixed","Both","cave","18","m160cave.wav","None","735.966396518","139","296830.306579","303696.624416","289880.210844","290646.842584","291413.190504","292179.88717","292947.002457","293713.977689","297580.281613","298346.942416","299113.480477","299880.058112","300646.424891","301413.83884","302180.358969","302930.055129","302939.306209","Mapping"
"Mixed","Both","cave","18","m150bluff.wav","space","466.074270196","139","296830.306579","303696.624416","304463.456501","290646.842584","291413.190504","292179.88717","292947.002457","293713.977689","297580.281613","298346.942416","299113.480477","299880.058112","300646.424891","301413.83884","302180.358969","302930.055129","303706.944927","Mapping"
"Mixed","Both","cave","18","m160dime.wav","None","729.969673324","139","296830.306579","303696.624416","304463.456501","305230.018059","291413.190504","292179.88717","292947.002457","293713.977689","297580.281613","298346.942416","299113.480477","299880.058112","300646.424891","301413.83884","302180.358969","302930.055129","304473.13424","Mapping"
"Mixed","Both","cave","18","m160cave.wav","None","727.920473088","139","296830.306579","303696.624416","304463.456501","305230.018059","305996.333206","292179.88717","292947.002457","293713.977689","297580.281613","298346.942416","299113.480477","299880.058112","300646.424891","301413.83884","302180.358969","302930.055129","305239.733518","Mapping"
"Mixed","Both","cave","18","m150gnash.wav","space","359.330059029","139","296830.306579","303696.624416","304463.456501","305230.018059","305996.333206","306763.552375","292947.002457","293713.977689","297580.281613","298346.942416","299113.480477","299880.058112","300646.424891","301413.83884","302180.358969","302930.055129","306005.641792","Mapping"
"Mixed","Both","cave","18","m160cad.wav","None","722.057621926","139","296830.306579","303696.624416","304463.456501","305230.018059","305996.333206","306763.552375","307529.83846","293713.977689","297580.281613","298346.942416","299113.480477","299880.058112","300646.424891","301413.83884","302180.358969","302930.055129","306773.960073","Mapping"
"Mixed","Both","cave","18","m160knife.wav","None","722.228285857","139","296830.306579","303696.624416","304463.456501","305230.018059","305996.333206","306763.552375","307529.83846","308280.064234","297580.281613","298346.942416","299113.480477","299880.058112","300646.424891","301413.83884","302180.358969","302930.055129","307538.760271","Mapping"
"Mixed","Both","done","48","m150dime.wav","None","735.852311365","139","311413.712079","303696.624416","304463.456501","305230.018059","305996.333206","306763.552375","307529.83846","308280.064234","297580.281613","298346.942416","299113.480477","299880.058112","300646.424891","301413.83884","302180.358969","302930.055129","308289.654787","Mapping"
"Mixed","Both","done","48","m150greet.wav","None","719.570632558","139","311413.712079","303696.624416","304463.456501","305230.018059","305996.333206","306763.552375","307529.83846","308280.064234","312162.76825","298346.942416","299113.480477","299880.058112","300646.424891","301413.83884","302180.358969","302930.055129","311423.718469","Mapping"
"Mixed","Both","done","48","m160greet.wav","None","735.979381483","139","311413.712079","303696.624416","304463.456501","305230.018059","305996.333206","306763.552375","307529.83846","308280.064234","312162.76825","312929.490888","299113.480477","299880.058112","300646.424891","301413.83884","302180.358969","302930.055129","312171.94853","Mapping"
"Mixed","Both","done","48","m150done.wav","None","733.824444469","139","311413.712079","303696.624416","304463.456501","305230.018059","305996.333206","306763.552375","307529.83846","308280.064234","312162.76825","312929.490888","313696.412632","299880.058112","300646.424891","301413.83884","302180.358969","302930.055129","312938.683535","Mapping"
"Mixed","Both","done","48","m160jolt.wav","space","402.739522047","139","311413.712079","303696.624416","304463.456501","305230.018059","305996.333206","306763.552375","307529.83846","308280.064234","312162.76825","312929.490888","313696.412632","314463.144854","300646.424891","301413.83884","302180.358969","302930.055129","313706.105212","Mapping"
"Mixed","Both","done","48","m160priest.wav","None","728.058364242","139","311413.712079","303696.624416","304463.456501","305230.018059","305996.333206","306763.552375","307529.83846","308280.064234","312162.76825","312929.490888","313696.412632","314463.144854","315229.735475","301413.83884","302180.358969","302930.055129","314472.612665","Mapping"
"Mixed","Both","done","48","m160ball.wav","None","726.343999151","139","311413.712079","303696.624416","304463.456501","305230.018059","305996.333206","306763.552375","307529.83846","308280.064234","312162.76825","312929.490888","313696.412632","314463.144854","315229.735475","315996.659074","302180.358969","302930.055129","315238.900295","Mapping"
"Mixed","Both","done","48","m150lash.wav","None","723.063980695","139","311413.712079","303696.624416","304463.456501","305230.018059","305996.333206","306763.552375","307529.83846","308280.064234","312162.76825","312929.490888","313696.412632","314463.144854","315229.735475","315996.659074","316763.403354","302930.055129","316007.026579","Mapping"
"Mixed","Both","done","48","m150done.wav","None","721.100421622","139","311413.712079","303696.624416","304463.456501","305230.018059","305996.333206","306763.552375","307529.83846","308280.064234","312162.76825","312929.490888","313696.412632","314463.144854","315229.735475","315996.659074","316763.403354","317530.030148","316773.670378","Mapping"
"Mixed","Both","done","48","m150dime.wav","space","408.811683767","139","311413.712079","318279.684569","304463.456501","305230.018059","305996.333206","306763.552375","307529.83846","308280.064234","312162.76825","312929.490888","313696.412632","314463.144854","315229.735475","315996.659074","316763.403354","317530.030148","317539.956153","Mapping"
"Mixed","Both","done","48","m160done.wav","None","734.049213585","139","311413.712079","318279.684569","319045.892742","305230.018059","305996.333206","306763.552375","307529.83846","308280.064234","312162.76825","312929.490888","313696.412632","314463.144854","315229.735475","315996.659074","316763.403354","317530.030148","318289.13754","Mapping"
"Mixed","Both","done","48","m150bluff.wav","space","541.796970181","139","311413.712079","318279.684569","319045.892742","319812.726373","305996.333206","306763.552375","307529.83846","308280.064234","312162.76825","312929.490888","313696.412632","314463.144854","315229.735475","315996.659074","316763.403354","317530.030148","319054.923691","Mapping"
"Mixed","Both","done","48","m150lash.wav","None","736.695736181","139","311413.712079","318279.684569","319045.892742","319812.726373","320579.321631","306763.552375","307529.83846","308280.064234","312162.76825","312929.490888","313696.412632","314463.144854","315229.735475","315996.659074","316763.403354","317530.030148","319816.620718","Mapping"
"Mixed","Both","done","48","m160romp.wav","None","729.713059496","139","311413.712079","318279.684569","319045.892742","319812.726373","320579.321631","321345.952753","307529.83846","308280.064234","312162.76825","312929.490888","313696.412632","314463.144854","315229.735475","315996.659074","316763.403354","317530.030148","320588.451515","Mapping"
"Mixed","Both","done","48","m160done.wav","None","728.111851495","139","311413.712079","318279.684569","319045.892742","319812.726373","320579.321631","321345.952753","322113.034649","308280.064234","312162.76825","312929.490888","313696.412632","314463.144854","315229.735475","315996.659074","316763.403354","317530.030148","321354.803454","Mapping"
"Mixed","Both","done","48","m160romp.wav","space","378.284849226","139","311413.712079","318279.684569","319045.892742","319812.726373","320579.321631","321345.952753","322113.034649","322879.904453","312162.76825","312929.490888","313696.412632","314463.144854","315229.735475","315996.659074","316763.403354","317530.030148","322122.411254","Mapping"
"Mixed","Both","tile","25","m150priest.wav","None","721.040132921","139","325996.779033","318279.684569","319045.892742","319812.726373","320579.321631","321345.952753","322113.034649","322879.904453","312162.76825","312929.490888","313696.412632","314463.144854","315229.735475","315996.659074","316763.403354","317530.030148","322890.361","Mapping"
"Mixed","Both","tile","25","m160gnash.wav","None","719.026178587","139","325996.779033","318279.684569","319045.892742","319812.726373","320579.321631","321345.952753","322113.034649","322879.904453","326745.999376","312929.490888","313696.412632","314463.144854","315229.735475","315996.659074","316763.403354","317530.030148","326006.956706","Mapping"
"Mixed","Both","tile","25","m160greet.wav","None","734.419602901","139","325996.779033","318279.684569","319045.892742","319812.726373","320579.321631","321345.952753","322113.034649","322879.904453","326745.999376","327512.47282","313696.412632","314463.144854","315229.735475","315996.659074","316763.403354","317530.030148","326756.329162","Mapping"
"Mixed","Both","tile","25","m160tile.wav","None","734.164844267","139","325996.779033","318279.684569","319045.892742","319812.726373","320579.321631","321345.952753","322113.034649","322879.904453","326745.999376","327512.47282","328279.548224","314463.144854","315229.735475","315996.659074","316763.403354","317530.030148","327521.442553","Mapping"
"Mixed","Both","tile","25","m160cad.wav","space","523.253379855","139","325996.779033","318279.684569","319045.892742","319812.726373","320579.321631","321345.952753","322113.034649","322879.904453","326745.999376","327512.47282","328279.548224","329046.118439","315229.735475","315996.659074","316763.403354","317530.030148","328289.32057","Mapping"
"Mixed","Both","tile","25","m160tile.wav","None","728.257780895","139","325996.779033","318279.684569","319045.892742","319812.726373","320579.321631","321345.952753","322113.034649","322879.904453","326745.999376","327512.47282","328279.548224","329046.118439","329812.94063","315996.659074","316763.403354","317530.030148","329055.6722","Mapping"
"Mixed","Both","tile","25","m160jolt.wav","space","678.212842904","139","325996.779033","318279.684569","319045.892742","319812.726373","320579.321631","321345.952753","322113.034649","322879.904453","326745.999376","327512.47282","328279.548224","329046.118439","329812.94063","330579.806105","316763.403354","317530.030148","329822.337949","Mapping"
"Mixed","Both","tile","25","m160greet.wav","None","722.515507136","139","325996.779033","318279.684569","319045.892742","319812.726373","320579.321631","321345.952753","322113.034649","322879.904453","326745.999376","327512.47282","328279.548224","329046.118439","329812.94063","330579.806105","331346.504936","317530.030148","330589.820534","Mapping"
"Mixed","Both","tile","25","m160jolt.wav","None","720.286677592","139","325996.779033","318279.684569","319045.892742","319812.726373","320579.321631","321345.952753","322113.034649","322879.904453","326745.999376","327512.47282","328279.548224","329046.118439","329812.94063","330579.806105","331346.504936","332113.387416","331356.909233","Mapping"
"Mixed","Both","tile","25","m150tile.wav","None","718.202850316","139","325996.779033","332862.556745","319045.892742","319812.726373","320579.321631","321345.952753","322113.034649","322879.904453","326745.999376","327512.47282","328279.548224","329046.118439","329812.94063","330579.806105","331346.504936","332113.387416","332123.838707","Mapping"
"Mixed","Both","tile","25","m150greet.wav","space","564.635285176","139","325996.779033","332862.556745","333629.046884","319812.726373","320579.321631","321345.952753","322113.034649","322879.904453","326745.999376","327512.47282","328279.548224","329046.118439","329812.94063","330579.806105","331346.504936","332113.387416","332871.861313","Mapping"
"Mixed","Both","tile","25","m150bluff.wav","None","732.278578915","139","325996.779033","332862.556745","333629.046884","334396.062927","320579.321631","321345.952753","322113.034649","322879.904453","326745.999376","327512.47282","328279.548224","329046.118439","329812.94063","330579.806105","331346.504936","332113.387416","333638.268902","Mapping"
"Mixed","Both","tile","25","m150tile.wav","None","729.676885996","139","325996.779033","332862.556745","333629.046884","334396.062927","335162.703015","321345.952753","322113.034649","322879.904453","326745.999376","327512.47282","328279.548224","329046.118439","329812.94063","330579.806105","331346.504936","332113.387416","334405.584224","Mapping"
"Mixed","Both","tile","25","m150reek.wav","space","480.067758355","139","325996.779033","332862.556745","333629.046884","334396.062927","335162.703015","335929.107513","322113.034649","322879.904453","326745.999376","327512.47282","328279.548224","329046.118439","329812.94063","330579.806105","331346.504936","332113.387416","335172.350146","Mapping"
"Mixed","Both","tile","25","m150done.wav","None","725.89786211","139","325996.779033","332862.556745","333629.046884","334396.062927","335162.703015","335929.107513","336696.463646","322879.904453","326745.999376","327512.47282","328279.548224","329046.118439","329812.94063","330579.806105","331346.504936","332113.387416","335938.077246","Mapping"
"Mixed","Both","tile","25","m150depth.wav","None","721.950029489","139","325996.779033","332862.556745","333629.046884","334396.062927","335162.703015","335929.107513","336696.463646","337463.199269","326745.999376","327512.47282","328279.548224","329046.118439","329812.94063","330579.806105","331346.504936","332113.387416","336707.247298","Mapping"
"Mixed","Both","done","43","m150reek.wav","None","720.107357483","139","340579.657084","332862.556745","333629.046884","334396.062927","335162.703015","335929.107513","336696.463646","337463.199269","326745.999376","327512.47282","328279.548224","329046.118439","329812.94063","330579.806105","331346.504936","332113.387416","337473.972409","Mapping"
"Mixed","Both","done","43","m150done.wav","None","719.8343575","139","340579.657084","332862.556745","333629.046884","334396.062927","335162.703015","335929.107513","336696.463646","337463.199269","341329.232357","327512.47282","328279.548224","329046.118439","329812.94063","330579.806105","331346.504936","332113.387416","340589.777868","Mapping"
"Mixed","Both","done","43","m150cling.wav","None","735.528916586","139","340579.657084","332862.556745","333629.046884","334396.062927","335162.703015","335929.107513","336696.463646","337463.199269","341329.232357","342095.605629","328279.548224","329046.118439","329812.94063","330579.806105","331346.504936","332113.387416","341338.850735","Mapping"
"Mixed","Both","done","43","m160done.wav","space","251.061005052","139","340579.657084","332862.556745","333629.046884","334396.062927","335162.703015","335929.107513","336696.463646","337463.199269","341329.232357","342095.605629","342862.229949","329046.118439","329812.94063","330579.806105","331346.504936","332113.387416","342105.264199","Mapping"
"Mixed","Both","done","43","m150lash.wav","space","573.316559661","139","340579.657084","332862.556745","333629.046884","334396.062927","335162.703015","335929.107513","336696.463646","337463.199269","341329.232357","342095.605629","342862.229949","343628.849632","329812.94063","330579.806105","331346.504936","332113.387416","342870.981405","Mapping"
"Mixed","Both","done","43","m160done.wav","None","728.023118805","139","340579.657084","332862.556745","333629.046884","334396.062927","335162.703015","335929.107513","336696.463646","337463.199269","341329.232357","342095.605629","342862.229949","343628.849632","344395.958735","330579.806105","331346.504936","332113.387416","343638.027129","Mapping"
"Mixed","Both","done","43","m150knife.wav","space","486.380766146","139","340579.657084","332862.556745","333629.046884","334396.062927","335162.703015","335929.107513","336696.463646","337463.199269","341329.232357","342095.605629","342862.229949","343628.849632","344395.958735","345162.88419","331346.504936","332113.387416","344405.888142","Mapping"
"Mixed","Both","done","43","m160jaw.wav","None","727.649946697","139","340579.657084","332862.556745","333629.046884","334396.062927","335162.703015","335929.107513","336696.463646","337463.199269","341329.232357","342095.605629","342862.229949","343628.849632","344395.958735","345162.88419","345929.039185","332113.387416","345166.865723","Mapping"
"Mixed","Both","done","43","m160knife.wav","None","721.333847381","139","340579.657084","332862.556745","333629.046884","334396.062927","335162.703015","335929.107513","336696.463646","337463.199269","341329.232357","342095.605629","342862.229949","343628.849632","344395.958735","345162.88419","345929.039185","346678.755132","345938.358284","Mapping"
"Mixed","Both","done","43","m160lash.wav","None","736.318235751","139","340579.657084","347445.772721","333629.046884","334396.062927","335162.703015","335929.107513","336696.463646","337463.199269","341329.232357","342095.605629","342862.229949","343628.849632","344395.958735","345162.88419","345929.039185","346678.755132","346688.23531","Mapping"
"Mixed","Both","done","43","m150cad.wav","None","734.039628878","139","340579.657084","347445.772721","348212.547299","334396.062927","335162.703015","335929.107513","336696.463646","337463.199269","341329.232357","342095.605629","342862.229949","343628.849632","344395.958735","345162.88419","345929.039185","346678.755132","347455.496837","Mapping"
"Mixed","Both","done","43","m160greet.wav","None","732.143779285","139","340579.657084","347445.772721","348212.547299","348979.078559","335162.703015","335929.107513","336696.463646","337463.199269","341329.232357","342095.605629","342862.229949","343628.849632","344395.958735","345162.88419","345929.039185","346678.755132","348222.110954","Mapping"
"Mixed","Both","done","43","m150done.wav","None","731.096300296","139","340579.657084","347445.772721","348212.547299","348979.078559","349745.728231","335929.107513","336696.463646","337463.199269","341329.232357","342095.605629","342862.229949","343628.849632","344395.958735","345162.88419","345929.039185","346678.755132","348988.278626","Mapping"
"Mixed","Both","done","43","m150bluff.wav","space","456.520199776","139","340579.657084","347445.772721","348212.547299","348979.078559","349745.728231","350512.447777","336696.463646","337463.199269","341329.232357","342095.605629","342862.229949","343628.849632","344395.958735","345162.88419","345929.039185","346678.755132","349755.665367","Mapping"
"Mixed","Both","done","43","m160reek.wav","None","725.756261032","139","340579.657084","347445.772721","348212.547299","348979.078559","349745.728231","350512.447777","351278.740045","337463.199269","341329.232357","342095.605629","342862.229949","343628.849632","344395.958735","345162.88419","345929.039185","346678.755132","350522.131081","Mapping"
"Mixed","Both","done","43","m160dime.wav","None","725.064640399","139","340579.657084","347445.772721","348212.547299","348979.078559","349745.728231","350512.447777","351278.740045","352046.002808","341329.232357","342095.605629","342862.229949","343628.849632","344395.958735","345162.88419","345929.039185","346678.755132","351287.675769","Mapping"
"Mixed","Both","cave","16","m160cling.wav","None","721.836872399","139","355163.063202","347445.772721","348212.547299","348979.078559","349745.728231","350512.447777","351278.740045","352046.002808","341329.232357","342095.605629","342862.229949","343628.849632","344395.958735","345162.88419","345929.039185","346678.755132","352055.880892","Mapping"
"Mixed","Both","cave","16","m160knife.wav","None","719.204262365","139","355163.063202","347445.772721","348212.547299","348979.078559","349745.728231","350512.447777","351278.740045","352046.002808","355912.614668","342095.605629","342862.229949","343628.849632","344395.958735","345162.88419","345929.039185","346678.755132","355173.25726","Mapping"
"Mixed","Both","cave","16","m150jolt.wav","None","735.555196647","139","355163.063202","347445.772721","348212.547299","348979.078559","349745.728231","350512.447777","351278.740045","352046.002808","355912.614668","356679.019785","342862.229949","343628.849632","344395.958735","345162.88419","345929.039185","346678.755132","355922.088353","Mapping"
"Mixed","Both","cave","16","m160cling.wav","None","733.513725456","139","355163.063202","347445.772721","348212.547299","348979.078559","349745.728231","350512.447777","351278.740045","352046.002808","355912.614668","356679.019785","357445.584744","343628.849632","344395.958735","345162.88419","345929.039185","346678.755132","356688.949191","Mapping"
"Mixed","Both","cave","16","m160cave.wav","None","732.073905878","139","355163.063202","347445.772721","348212.547299","348979.078559","349745.728231","350512.447777","351278.740045","352046.002808","355912.614668","356679.019785","357445.584744","358211.982131","344395.958735","345162.88419","345929.039185","346678.755132","357455.249189","Mapping"
"Mixed","Both","cave","16","m150tile.wav","space","687.155677471","139","355163.063202","347445.772721","348212.547299","348979.078559","349745.728231","350512.447777","351278.740045","352046.002808","355912.614668","356679.019785","357445.584744","358211.982131","358978.941595","345162.88419","345929.039185","346678.755132","358220.894358","Mapping"
"Mixed","Both","cave","16","m160cave.wav","None","727.056952659","139","355163.063202","347445.772721","348212.547299","348979.078559","349745.728231","350512.447777","351278.740045","352046.002808","355912.614668","356679.019785","357445.584744","358211.982131","358978.941595","359745.643827","345929.039185","346678.755132","358988.644377","Mapping"
"Mixed","Both","cave","16","m160tile.wav","None","725.461618509","139","355163.063202","347445.772721","348212.547299","348979.078559","349745.728231","350512.447777","351278.740045","352046.002808","355912.614668","356679.019785","357445.584744","358211.982131","358978.941595","359745.643827","360512.626788","346678.755132","359755.021669","Mapping"
"Mixed","Both","cave","16","m150cave.wav","space","57.1355167776","139","355163.063202","347445.772721","348212.547299","348979.078559","349745.728231","350512.447777","351278.740045","352046.002808","355912.614668","356679.019785","357445.584744","358211.982131","358978.941595","359745.643827","360512.626788","361279.22823","360522.877116","Mapping"
"Mixed","Both","cave","16","m150greet.wav","space","490.941380151","139","355163.063202","362028.788663","348212.547299","348979.078559","349745.728231","350512.447777","351278.740045","352046.002808","355912.614668","356679.019785","357445.584744","358211.982131","358978.941595","359745.643827","360512.626788","361279.22823","361289.060555","Mapping"
"Mixed","Both","cave","16","m150jolt.wav","None","734.338599723","139","355163.063202","362028.788663","362795.511609","348979.078559","349745.728231","350512.447777","351278.740045","352046.002808","355912.614668","356679.019785","357445.584744","358211.982131","358978.941595","359745.643827","360512.626788","361279.22823","362037.935861","Mapping"
"Mixed","Both","cave","16","m160tile.wav","None","732.00248694","139","355163.063202","362028.788663","362795.511609","363561.804805","349745.728231","350512.447777","351278.740045","352046.002808","355912.614668","356679.019785","357445.584744","358211.982131","358978.941595","359745.643827","360512.626788","361279.22823","362805.184092","Mapping"
"Mixed","Both","cave","16","m150cave.wav","space","649.048225954","139","355163.063202","362028.788663","362795.511609","363561.804805","364328.874953","350512.447777","351278.740045","352046.002808","355912.614668","356679.019785","357445.584744","358211.982131","358978.941595","359745.643827","360512.626788","361279.22823","363570.890787","Mapping"
"Mixed","Both","cave","16","m150tile.wav","space","713.883391581","139","355163.063202","362028.788663","362795.511609","363561.804805","364328.874953","365095.325517","351278.740045","352046.002808","355912.614668","356679.019785","357445.584744","358211.982131","358978.941595","359745.643827","360512.626788","361279.22823","364338.051213","Mapping"
"Mixed","Both","cave","16","m160tile.wav","None","723.75498293","139","355163.063202","362028.788663","362795.511609","363561.804805","364328.874953","365095.325517","365862.813359","352046.002808","355912.614668","356679.019785","357445.584744","358211.982131","358978.941595","359745.643827","360512.626788","361279.22823","365104.876496","Mapping"
"Mixed","Both","cave","16","m150lash.wav","None","721.314060502","139","355163.063202","362028.788663","362795.511609","363561.804805","364328.874953","365095.325517","365862.813359","366628.743276","355912.614668","356679.019785","357445.584744","358211.982131","358978.941595","359745.643827","360512.626788","361279.22823","365872.312087","Mapping"
"Mixed","Both","tile","34","m150cave.wav","None","720.855556428","139","369746.073578","362028.788663","362795.511609","363561.804805","364328.874953","365095.325517","365862.813359","366628.743276","355912.614668","356679.019785","357445.584744","358211.982131","358978.941595","359745.643827","360512.626788","361279.22823","366637.79865","Mapping"
"Mixed","Both","tile","34","m160cad.wav","None","719.380800612","139","369746.073578","362028.788663","362795.511609","363561.804805","364328.874953","365095.325517","365862.813359","366628.743276","370495.217863","356679.019785","357445.584744","358211.982131","358978.941595","359745.643827","360512.626788","361279.22823","369755.930019","Mapping"
"Mixed","Both","tile","34","m150cad.wav","None","735.700507648","139","369746.073578","362028.788663","362795.511609","363561.804805","364328.874953","365095.325517","365862.813359","366628.743276","370495.217863","371262.215665","357445.584744","358211.982131","358978.941595","359745.643827","360512.626788","361279.22823","370504.691239","Mapping"
"Mixed","Both","tile","34","m150tile.wav","None","733.407061081","139","369746.073578","362028.788663","362795.511609","363561.804805","364328.874953","365095.325517","365862.813359","366628.743276","370495.217863","371262.215665","372028.738267","358211.982131","358978.941595","359745.643827","360512.626788","361279.22823","371271.998832","Mapping"
"Mixed","Both","tile","34","m160reek.wav","space","442.915033083","139","369746.073578","362028.788663","362795.511609","363561.804805","364328.874953","365095.325517","365862.813359","366628.743276","370495.217863","371262.215665","372028.738267","372794.962517","358978.941595","359745.643827","360512.626788","361279.22823","372032.892318","Mapping"
"Mixed","Both","tile","34","m160tile.wav","None","729.828071781","139","369746.073578","362028.788663","362795.511609","363561.804805","364328.874953","365095.325517","365862.813359","366628.743276","370495.217863","371262.215665","372028.738267","372794.962517","373561.678662","359745.643827","360512.626788","361279.22823","372804.289654","Mapping"
"Mixed","Both","tile","34","m150gnash.wav","space","473.335202783","139","369746.073578","362028.788663","362795.511609","363561.804805","364328.874953","365095.325517","365862.813359","366628.743276","370495.217863","371262.215665","372028.738267","372794.962517","373561.678662","374328.236819","360512.626788","361279.22823","373570.408477","Mapping"
"Mixed","Both","tile","34","m160cling.wav","None","725.68793362","139","369746.073578","362028.788663","362795.511609","363561.804805","364328.874953","365095.325517","365862.813359","366628.743276","370495.217863","371262.215665","372028.738267","372794.962517","373561.678662","374328.236819","375095.902126","361279.22823","374337.381853","Mapping"
"Mixed","Both","tile","34","m160ball.wav","None","722.64721524","139","369746.073578","362028.788663","362795.511609","363561.804805","364328.874953","365095.325517","365862.813359","366628.743276","370495.217863","371262.215665","372028.738267","372794.962517","373561.678662","374328.236819","375095.902126","375861.741455","375105.562551","Mapping"
"Mixed","Both","tile","34","m150greet.wav","None","722.492628265","139","369746.073578","376628.602293","362795.511609","363561.804805","364328.874953","365095.325517","365862.813359","366628.743276","370495.217863","371262.215665","372028.738267","372794.962517","373561.678662","374328.236819","375095.902126","375861.741455","375870.74798","Mapping"
"Mixed","Both","tile","34","m160done.wav","None","720.513610635","139","369746.073578","376628.602293","377378.487976","363561.804805","364328.874953","365095.325517","365862.813359","366628.743276","370495.217863","371262.215665","372028.738267","372794.962517","373561.678662","374328.236819","375095.902126","375861.741455","376637.694768","Mapping"
"Mixed","Both","tile","34","m150knife.wav","None","735.53757323","139","369746.073578","376628.602293","377378.487976","378145.207831","364328.874953","365095.325517","365862.813359","366628.743276","370495.217863","371262.215665","372028.738267","372794.962517","373561.678662","374328.236819","375095.902126","375861.741455","377387.783887","Mapping"
"Mixed","Both","tile","34","m150tile.wav","None","733.712833375","139","369746.073578","376628.602293","377378.487976","378145.207831","378911.882546","365095.325517","365862.813359","366628.743276","370495.217863","371262.215665","372028.738267","372794.962517","373561.678662","374328.236819","375095.902126","375861.741455","378154.715834","Mapping"
"Mixed","Both","tile","34","m150lash.wav","space","482.193324249","139","369746.073578","376628.602293","377378.487976","378145.207831","378911.882546","379678.16894","365862.813359","366628.743276","370495.217863","371262.215665","372028.738267","372794.962517","373561.678662","374328.236819","375095.902126","375861.741455","378921.52875","Mapping"
"Mixed","Both","tile","34","m160tile.wav","None","730.433124118","139","369746.073578","376628.602293","377378.487976","378145.207831","378911.882546","379678.16894","380445.271861","366628.743276","370495.217863","371262.215665","372028.738267","372794.962517","373561.678662","374328.236819","375095.902126","375861.741455","379687.267598","Mapping"
"Mixed","Both","tile","34","m160cad.wav","space","580.661896616","139","369746.073578","376628.602293","377378.487976","378145.207831","378911.882546","379678.16894","380445.271861","381212.093743","370495.217863","371262.215665","372028.738267","372794.962517","373561.678662","374328.236819","375095.902126","375861.741455","380455.015145","Mapping"
"Mixed","Both","ball","1","m160reek.wav","None","725.174087565","139","384345.74437","376628.602293","377378.487976","378145.207831","378911.882546","379678.16894","380445.271861","381212.093743","370495.217863","371262.215665","372028.738267","372794.962517","373561.678662","374328.236819","375095.902126","375861.741455","381221.473439","Mapping"
"Mixed","Both","ball","1","m150bluff.wav","None","719.490556978","139","384345.74437","376628.602293","377378.487976","378145.207831","378911.882546","379678.16894","380445.271861","381212.093743","385095.14527","371262.215665","372028.738267","372794.962517","373561.678662","374328.236819","375095.902126","375861.741455","384355.572368","Mapping"
"Mixed","Both","ball","1","m150greet.wav","None","735.318369232","139","384345.74437","376628.602293","377378.487976","378145.207831","378911.882546","379678.16894","380445.271861","381212.093743","385095.14527","385861.718267","372028.738267","372794.962517","373561.678662","374328.236819","375095.902126","375861.741455","385105.11456","Mapping"
"Mixed","Both","ball","1","m160ball.wav","None","734.462887514","139","384345.74437","376628.602293","377378.487976","378145.207831","378911.882546","379678.16894","380445.271861","381212.093743","385095.14527","385861.718267","386628.419881","372794.962517","373561.678662","374328.236819","375095.902126","375861.741455","385871.090543","Mapping"
"Mixed","Both","ball","1","m150reek.wav","space","493.835859001","139","384345.74437","376628.602293","377378.487976","378145.207831","378911.882546","379678.16894","380445.271861","381212.093743","385095.14527","385861.718267","386628.419881","387394.687724","373561.678662","374328.236819","375095.902126","375861.741455","386637.695386","Mapping"
"Mixed","Both","ball","1","m150ball.wav","None","730.668713804","139","384345.74437","376628.602293","377378.487976","378145.207831","378911.882546","379678.16894","380445.271861","381212.093743","385095.14527","385861.718267","386628.419881","387394.687724","388161.392739","374328.236819","375095.902126","375861.741455","387403.545846","Mapping"
"Mixed","Both","ball","1","m160depth.wav","space","713.188061025","139","384345.74437","376628.602293","377378.487976","378145.207831","378911.882546","379678.16894","380445.271861","381212.093743","385095.14527","385861.718267","386628.419881","387394.687724","388161.392739","388928.010257","375095.902126","375861.741455","388170.343303","Mapping"
"Mixed","Both","ball","1","m160reek.wav","None","726.124795154","139","384345.74437","376628.602293","377378.487976","378145.207831","378911.882546","379678.16894","380445.271861","381212.093743","385095.14527","385861.718267","386628.419881","387394.687724","388161.392739","388928.010257","389695.486659","375861.741455","388937.102732","Mapping"
"Mixed","Both","ball","1","m150ball.wav","None","722.942784894","139","384345.74437","376628.602293","377378.487976","378145.207831","378911.882546","379678.16894","380445.271861","381212.093743","385095.14527","385861.718267","386628.419881","387394.687724","388161.392739","388928.010257","389695.486659","390462.384597","389705.349593","Mapping"
"Mixed","Both","ball","1","m150lash.wav","space","386.44640334","139","384345.74437","391211.961726","377378.487976","378145.207831","378911.882546","379678.16894","380445.271861","381212.093743","385095.14527","385861.718267","386628.419881","387394.687724","388161.392739","388928.010257","389695.486659","390462.384597","390473.050145","Mapping"
"Mixed","Both","ball","1","m160romp.wav","None","735.544993542","139","384345.74437","391211.961726","391978.166807","378145.207831","378911.882546","379678.16894","380445.271861","381212.093743","385095.14527","385861.718267","386628.419881","387394.687724","388161.392739","388928.010257","389695.486659","390462.384597","391221.527235","Mapping"
"Mixed","Both","ball","1","m150jolt.wav","None","734.731868375","139","384345.74437","391211.961726","391978.166807","392744.972303","378911.882546","379678.16894","380445.271861","381212.093743","385095.14527","385861.718267","386628.419881","387394.687724","388161.392739","388928.010257","389695.486659","390462.384597","391987.448805","Mapping"
"Mixed","Both","ball","1","m160priest.wav","None","732.627635356","139","384345.74437","391211.961726","391978.166807","392744.972303","393511.807479","379678.16894","380445.271861","381212.093743","385095.14527","385861.718267","386628.419881","387394.687724","388161.392739","388928.010257","389695.486659","390462.384597","392754.859043","Mapping"
"Mixed","Both","ball","1","m150depth.wav","None","731.246249285","139","384345.74437","391211.961726","391978.166807","392744.972303","393511.807479","394278.314004","380445.271861","381212.093743","385095.14527","385861.718267","386628.419881","387394.687724","388161.392739","388928.010257","389695.486659","390462.384597","393521.441007","Mapping"
