Condition,Talker,Target,Trial,current_stimulus,response_response,response_time_response,subject_nr,time_Audio1,time_Audio10,time_Audio11,time_Audio12,time_Audio13,time_Audio14,time_Audio15,time_Audio16,time_Audio2,time_Audio3,time_Audio4,time_Audio5,time_Audio6,time_Audio7,time_Audio8,time_Audio9,time_response,title
Mixed,Both,tile,27,m160dime.wav,NA,NA,231,112730.9288,NA,NA,NA,NA,NA,NA,NA,NA,NA,NA,NA,NA,NA,NA,NA,NA,Mapping
Mixed,Both,tile,27,m150lash.wav,None,715.3331526,231,112730.9288,NA,NA,NA,NA,NA,NA,NA,113480.0733,NA,NA,NA,NA,NA,NA,NA,112745.9581,Mapping
Mixed,Both,tile,27,m160romp.wav,space,0.020096544,231,112730.9288,NA,NA,NA,NA,NA,NA,NA,113480.0733,114246.7748,NA,NA,NA,NA,NA,NA,113489.0034,Mapping
Mixed,Both,tile,27,m160knife.wav,None,734.1092988,231,112730.9288,NA,NA,NA,NA,NA,NA,NA,113480.0733,114246.7748,115013.228,NA,NA,NA,NA,NA,114256.0166,Mapping
Mixed,Both,tile,27,m150tile.wav,None,735.0068316,231,112730.9288,NA,NA,NA,NA,NA,NA,NA,113480.0733,114246.7748,115013.228,115780.4023,NA,NA,NA,NA,115022.1842,Mapping
Mixed,Both,tile,27,m160done.wav,space,668.1528669,231,112730.9288,NA,NA,NA,NA,NA,NA,NA,113480.0733,114246.7748,115013.228,115780.4023,116547.1773,NA,NA,NA,115789.9857,Mapping
Mixed,Both,tile,27,m150done.wav,None,729.3956294,231,112730.9288,NA,NA,NA,NA,NA,NA,NA,113480.0733,114246.7748,115013.228,115780.4023,116547.1773,117313.2321,NA,NA,116556.5274,Mapping
Mixed,Both,tile,27,m150gnash.wav,None,728.2455019,231,112730.9288,NA,NA,NA,NA,NA,NA,NA,113480.0733,114246.7748,115013.228,115780.4023,116547.1773,117313.2321,118080.3448,NA,117322.0692,Mapping
Mixed,Both,tile,27,m150tile.wav,None,725.0368921,231,112730.9288,NA,NA,NA,NA,NA,NA,NA,113480.0733,114246.7748,115013.228,115780.4023,116547.1773,117313.2321,118080.3448,118847.6538,118089.7279,Mapping
Mixed,Both,tile,27,m160dime.wav,None,722.2772036,231,112730.9288,119613.9475,NA,NA,NA,NA,NA,NA,113480.0733,114246.7748,115013.228,115780.4023,116547.1773,117313.2321,118080.3448,118847.6538,118857.3235,Mapping
Mixed,Both,tile,27,m160cling.wav,space,409.9173173,231,112730.9288,119613.9475,120363.6939,NA,NA,NA,NA,NA,113480.0733,114246.7748,115013.228,115780.4023,116547.1773,117313.2321,118080.3448,118847.6538,119624.1605,Mapping
Mixed,Both,tile,27,m150done.wav,None,734.793501,231,112730.9288,119613.9475,120363.6939,121131.0472,NA,NA,NA,NA,113480.0733,114246.7748,115013.228,115780.4023,116547.1773,117313.2321,118080.3448,118847.6538,120373.4298,Mapping
Mixed,Both,tile,27,m160tile.wav,None,731.9741417,231,112730.9288,119613.9475,120363.6939,121131.0472,121897.2348,NA,NA,NA,113480.0733,114246.7748,115013.228,115780.4023,116547.1773,117313.2321,118080.3448,118847.6538,121140.4751,Mapping
Mixed,Both,tile,27,m150jolt.wav,space,559.4732044,231,112730.9288,119613.9475,120363.6939,121131.0472,121897.2348,122663.834,NA,NA,113480.0733,114246.7748,115013.228,115780.4023,116547.1773,117313.2321,118080.3448,118847.6538,121906.5762,Mapping
Mixed,Both,tile,27,m160tile.wav,None,727.5105948,231,112730.9288,119613.9475,120363.6939,121131.0472,121897.2348,122663.834,123430.1982,NA,113480.0733,114246.7748,115013.228,115780.4023,116547.1773,117313.2321,118080.3448,118847.6538,122673.3958,Mapping
Mixed,Both,tile,27,m150greet.wav,None,726.2040246,231,112730.9288,119613.9475,120363.6939,121131.0472,121897.2348,122663.834,123430.1982,124196.8969,113480.0733,114246.7748,115013.228,115780.4023,116547.1773,117313.2321,118080.3448,118847.6538,123439.044,Mapping
Mixed,Both,ball,9,m150depth.wav,None,724.125756,231,127380.7013,119613.9475,120363.6939,121131.0472,121897.2348,122663.834,123430.1982,124196.8969,113480.0733,114246.7748,115013.228,115780.4023,116547.1773,117313.2321,118080.3448,118847.6538,124205.8058,Mapping
Mixed,Both,ball,9,m160park.wav,space,0.038337428,231,127380.7013,119613.9475,120363.6939,121131.0472,121897.2348,122663.834,123430.1982,124196.8969,128147.2838,114246.7748,115013.228,115780.4023,116547.1773,117313.2321,118080.3448,118847.6538,127390.8357,Mapping
Mixed,Both,ball,9,m160bluff.wav,None,719.428164,231,127380.7013,119613.9475,120363.6939,121131.0472,121897.2348,122663.834,123430.1982,124196.8969,128147.2838,128897.1235,115013.228,115780.4023,116547.1773,117313.2321,118080.3448,118847.6538,128156.9263,Mapping
Mixed,Both,ball,9,m160ball.wav,None,734.305006,231,127380.7013,119613.9475,120363.6939,121131.0472,121897.2348,122663.834,123430.1982,124196.8969,128147.2838,128897.1235,129664.1129,115780.4023,116547.1773,117313.2321,118080.3448,118847.6538,128906.5082,Mapping
Mixed,Both,ball,9,m160greet.wav,space,433.0518921,231,127380.7013,119613.9475,120363.6939,121131.0472,121897.2348,122663.834,123430.1982,124196.8969,128147.2838,128897.1235,129664.1129,130430.3655,116547.1773,117313.2321,118080.3448,118847.6538,129672.8455,Mapping
Mixed,Both,ball,9,m150ball.wav,None,730.2514235,231,127380.7013,119613.9475,120363.6939,121131.0472,121897.2348,122663.834,123430.1982,124196.8969,128147.2838,128897.1235,129664.1129,130430.3655,131197.079,117313.2321,118080.3448,118847.6538,130439.7925,Mapping
Mixed,Both,ball,9,m160bluff.wav,None,727.7347455,231,127380.7013,119613.9475,120363.6939,121131.0472,121897.2348,122663.834,123430.1982,124196.8969,128147.2838,128897.1235,129664.1129,130430.3655,131197.079,131963.3718,118080.3448,118847.6538,131206.6845,Mapping
Mixed,Both,ball,9,m150cave.wav,None,726.4018962,231,127380.7013,119613.9475,120363.6939,121131.0472,121897.2348,122663.834,123430.1982,124196.8969,128147.2838,128897.1235,129664.1129,130430.3655,131197.079,131963.3718,132730.7684,118847.6538,131972.3846,Mapping
Mixed,Both,ball,9,m150park.wav,None,722.5239249,231,127380.7013,119613.9475,120363.6939,121131.0472,121897.2348,122663.834,123430.1982,124196.8969,128147.2838,128897.1235,129664.1129,130430.3655,131197.079,131963.3718,132730.7684,133497.5611,132740.6075,Mapping
Mixed,Both,ball,9,m150gnash.wav,None,720.587567,231,127380.7013,134246.7037,120363.6939,121131.0472,121897.2348,122663.834,123430.1982,124196.8969,128147.2838,128897.1235,129664.1129,130430.3655,131197.079,131963.3718,132730.7684,133497.5611,133506.8882,Mapping
Mixed,Both,ball,9,m150ball.wav,None,735.5927164,231,127380.7013,134246.7037,135013.6572,121131.0472,121897.2348,122663.834,123430.1982,124196.8969,128147.2838,128897.1235,129664.1129,130430.3655,131197.079,131963.3718,132730.7684,133497.5611,134256.3443,Mapping
Mixed,Both,ball,9,m160cad.wav,space,491.1049046,231,127380.7013,134246.7037,135013.6572,135779.9249,121897.2348,122663.834,123430.1982,124196.8969,128147.2838,128897.1235,129664.1129,130430.3655,131197.079,131963.3718,132730.7684,133497.5611,135022.7141,Mapping
Mixed,Both,ball,9,m160ball.wav,None,731.603133,231,127380.7013,134246.7037,135013.6572,135779.9249,136546.6889,122663.834,123430.1982,124196.8969,128147.2838,128897.1235,129664.1129,130430.3655,131197.079,131963.3718,132730.7684,133497.5611,135788.8569,Mapping
Mixed,Both,ball,9,m150greet.wav,None,729.4027405,231,127380.7013,134246.7037,135013.6572,135779.9249,136546.6889,137313.6256,123430.1982,124196.8969,128147.2838,128897.1235,129664.1129,130430.3655,131197.079,131963.3718,132730.7684,133497.5611,136555.5841,Mapping
Mixed,Both,ball,9,m160romp.wav,None,726.0976685,231,127380.7013,134246.7037,135013.6572,135779.9249,136546.6889,137313.6256,138080.6725,124196.8969,128147.2838,128897.1235,129664.1129,130430.3655,131197.079,131963.3718,132730.7684,133497.5611,137323.2904,Mapping
Mixed,Both,ball,9,m150park.wav,None,723.3930128,231,127380.7013,134246.7037,135013.6572,135779.9249,136546.6889,137313.6256,138080.6725,138847.1202,128147.2838,128897.1235,129664.1129,130430.3655,131197.079,131963.3718,132730.7684,133497.5611,138090.5169,Mapping
Mixed,Both,done,44,m160dime.wav,None,722.2261899,231,141963.8934,134246.7037,135013.6572,135779.9249,136546.6889,137313.6256,138080.6725,138847.1202,128147.2838,128897.1235,129664.1129,130430.3655,131197.079,131963.3718,132730.7684,133497.5611,138856.6449,Mapping
Mixed,Both,done,44,m160jolt.wav,space,0.038028229,231,141963.8934,134246.7037,135013.6572,135779.9249,136546.6889,137313.6256,138080.6725,138847.1202,142713.8915,128897.1235,129664.1129,130430.3655,131197.079,131963.3718,132730.7684,133497.5611,141973.6797,Mapping
Mixed,Both,done,44,m160cad.wav,space,198.4963007,231,141963.8934,134246.7037,135013.6572,135779.9249,136546.6889,137313.6256,138080.6725,138847.1202,142713.8915,143480.2353,129664.1129,130430.3655,131197.079,131963.3718,132730.7684,133497.5611,142723.2363,Mapping
Mixed,Both,done,44,m150knife.wav,None,733.3468753,231,141963.8934,134246.7037,135013.6572,135779.9249,136546.6889,137313.6256,138080.6725,138847.1202,142713.8915,143480.2353,144246.435,130430.3655,131197.079,131963.3718,132730.7684,133497.5611,143489.602,Mapping
Mixed,Both,done,44,m160dime.wav,None,732.1760328,231,141963.8934,134246.7037,135013.6572,135779.9249,136546.6889,137313.6256,138080.6725,138847.1202,142713.8915,143480.2353,144246.435,145013.5449,131197.079,131963.3718,132730.7684,133497.5611,144255.223,Mapping
Mixed,Both,done,44,m150lash.wav,None,728.7309049,231,141963.8934,134246.7037,135013.6572,135779.9249,136546.6889,137313.6256,138080.6725,138847.1202,142713.8915,143480.2353,144246.435,145013.5449,145780.1583,131963.3718,132730.7684,133497.5611,145023.0768,Mapping
Mixed,Both,done,44,m150done.wav,None,726.5737969,231,141963.8934,134246.7037,135013.6572,135779.9249,136546.6889,137313.6256,138080.6725,138847.1202,142713.8915,143480.2353,144246.435,145013.5449,145780.1583,146546.2894,132730.7684,133497.5611,145789.6636,Mapping
Mixed,Both,done,44,m150ball.wav,None,729.6231817,231,141963.8934,134246.7037,135013.6572,135779.9249,136546.6889,137313.6256,138080.6725,138847.1202,142713.8915,143480.2353,144246.435,145013.5449,145780.1583,146546.2894,147313.1229,133497.5611,146554.9339,Mapping
Mixed,Both,done,44,m160done.wav,space,39.63890951,231,141963.8934,134246.7037,135013.6572,135779.9249,136546.6889,137313.6256,138080.6725,138847.1202,142713.8915,143480.2353,144246.435,145013.5449,145780.1583,146546.2894,147313.1229,148079.9419,147322.0182,Mapping
Mixed,Both,done,44,m160ball.wav,space,680.4242982,231,141963.8934,148846.5151,135013.6572,135779.9249,136546.6889,137313.6256,138080.6725,138847.1202,142713.8915,143480.2353,144246.435,145013.5449,145780.1583,146546.2894,147313.1229,148079.9419,148089.1757,Mapping
Mixed,Both,done,44,m160reek.wav,None,722.3198693,231,141963.8934,148846.5151,149596.4674,135779.9249,136546.6889,137313.6256,138080.6725,138847.1202,142713.8915,143480.2353,144246.435,145013.5449,145780.1583,146546.2894,147313.1229,148079.9419,148855.4163,Mapping
Mixed,Both,done,44,m160done.wav,None,736.6912123,231,141963.8934,148846.5151,149596.4674,150363.3019,136546.6889,137313.6256,138080.6725,138847.1202,142713.8915,143480.2353,144246.435,145013.5449,145780.1583,146546.2894,147313.1229,148079.9419,149605.4978,Mapping
Mixed,Both,done,44,m150cad.wav,space,556.6461161,231,141963.8934,148846.5151,149596.4674,150363.3019,151130.0822,137313.6256,138080.6725,138847.1202,142713.8915,143480.2353,144246.435,145013.5449,145780.1583,146546.2894,147313.1229,148079.9419,150372.962,Mapping
Mixed,Both,done,44,m150bluff.wav,None,730.9000711,231,141963.8934,148846.5151,149596.4674,150363.3019,151130.0822,151896.5624,138080.6725,138847.1202,142713.8915,143480.2353,144246.435,145013.5449,145780.1583,146546.2894,147313.1229,148079.9419,151139.9183,Mapping
Mixed,Both,done,44,m150done.wav,None,729.4769422,231,141963.8934,148846.5151,149596.4674,150363.3019,151130.0822,151896.5624,152663.3999,138847.1202,142713.8915,143480.2353,144246.435,145013.5449,145780.1583,146546.2894,147313.1229,148079.9419,151905.896,Mapping
Mixed,Both,done,44,m150cave.wav,space,560.7222682,231,141963.8934,148846.5151,149596.4674,150363.3019,151130.0822,151896.5624,152663.3999,153430.0668,142713.8915,143480.2353,144246.435,145013.5449,145780.1583,146546.2894,147313.1229,148079.9419,152672.8443,Mapping
Mixed,Both,tile,34,m160jolt.wav,None,724.3254827,231,156547.0976,148846.5151,149596.4674,150363.3019,151130.0822,151896.5624,152663.3999,153430.0668,142713.8915,143480.2353,144246.435,145013.5449,145780.1583,146546.2894,147313.1229,148079.9419,153439.667,Mapping
Mixed,Both,tile,34,m150tile.wav,space,0.034009106,231,156547.0976,148846.5151,149596.4674,150363.3019,151130.0822,151896.5624,152663.3999,153430.0668,157296.3354,143480.2353,144246.435,145013.5449,145780.1583,146546.2894,147313.1229,148079.9419,156556.5459,Mapping
Mixed,Both,tile,34,m150cad.wav,None,736.3990424,231,156547.0976,148846.5151,149596.4674,150363.3019,151130.0822,151896.5624,152663.3999,153430.0668,157296.3354,158063.3235,144246.435,145013.5449,145780.1583,146546.2894,147313.1229,148079.9419,157305.3905,Mapping
Mixed,Both,tile,34,m150jaw.wav,space,113.0847759,231,156547.0976,148846.5151,149596.4674,150363.3019,151130.0822,151896.5624,152663.3999,153430.0668,157296.3354,158063.3235,158829.9357,145013.5449,145780.1583,146546.2894,147313.1229,148079.9419,158072.4231,Mapping
Mixed,Both,tile,34,m160knife.wav,None,731.2785001,231,156547.0976,148846.5151,149596.4674,150363.3019,151130.0822,151896.5624,152663.3999,153430.0668,157296.3354,158063.3235,158829.9357,159596.2711,145780.1583,146546.2894,147313.1229,148079.9419,158839.5108,Mapping
Mixed,Both,tile,34,m160tile.wav,None,730.1787678,231,156547.0976,148846.5151,149596.4674,150363.3019,151130.0822,151896.5624,152663.3999,153430.0668,157296.3354,158063.3235,158829.9357,159596.2711,160362.9572,146546.2894,147313.1229,148079.9419,159605.2903,Mapping
Mixed,Both,tile,34,m160reek.wav,None,727.9119026,231,156547.0976,148846.5151,149596.4674,150363.3019,151130.0822,151896.5624,152663.3999,153430.0668,157296.3354,158063.3235,158829.9357,159596.2711,160362.9572,161129.958,147313.1229,148079.9419,160372.075,Mapping
Mixed,Both,tile,34,m160tile.wav,None,725.5819659,231,156547.0976,148846.5151,149596.4674,150363.3019,151130.0822,151896.5624,152663.3999,153430.0668,157296.3354,158063.3235,158829.9357,159596.2711,160362.9572,161129.958,161897.0558,148079.9419,161139.3207,Mapping
Mixed,Both,tile,34,m160priest.wav,None,722.4027282,231,156547.0976,148846.5151,149596.4674,150363.3019,151130.0822,151896.5624,152663.3999,153430.0668,157296.3354,158063.3235,158829.9357,159596.2711,160362.9572,161129.958,161897.0558,162663.7035,161907.0026,Mapping
Mixed,Both,tile,34,m150romp.wav,None,720.3856758,231,156547.0976,163413.4261,149596.4674,150363.3019,151130.0822,151896.5624,152663.3999,153430.0668,157296.3354,158063.3235,158829.9357,159596.2711,160362.9572,161129.958,161897.0558,162663.7035,162673.6865,Mapping
Mixed,Both,tile,34,m150done.wav,None,735.8276886,231,156547.0976,163413.4261,164179.7894,150363.3019,151130.0822,151896.5624,152663.3999,153430.0668,157296.3354,158063.3235,158829.9357,159596.2711,160362.9572,161129.958,161897.0558,162663.7035,163422.8717,Mapping
Mixed,Both,tile,34,m150tile.wav,None,733.9763539,231,156547.0976,163413.4261,164179.7894,164946.4569,151130.0822,151896.5624,152663.3999,153430.0668,157296.3354,158063.3235,158829.9357,159596.2711,160362.9572,161129.958,161897.0558,162663.7035,164189.2934,Mapping
Mixed,Both,tile,34,m160depth.wav,None,731.6294126,231,156547.0976,163413.4261,164179.7894,164946.4569,165712.8576,151896.5624,152663.3999,153430.0668,157296.3354,158063.3235,158829.9357,159596.2711,160362.9572,161129.958,161897.0558,162663.7035,164956.1696,Mapping
Mixed,Both,tile,34,m150cad.wav,None,730.2007191,231,156547.0976,163413.4261,164179.7894,164946.4569,165712.8576,166479.7356,152663.3999,153430.0668,157296.3354,158063.3235,158829.9357,159596.2711,160362.9572,161129.958,161897.0558,162663.7035,165722.0586,Mapping
Mixed,Both,tile,34,m150jaw.wav,None,727.721761,231,156547.0976,163413.4261,164179.7894,164946.4569,165712.8576,166479.7356,167246.55,153430.0668,157296.3354,158063.3235,158829.9357,159596.2711,160362.9572,161129.958,161897.0558,162663.7035,166489.1806,Mapping
Mixed,Both,tile,34,m160lash.wav,None,725.5606335,231,156547.0976,163413.4261,164179.7894,164946.4569,165712.8576,166479.7356,167246.55,168013.6791,157296.3354,158063.3235,158829.9357,159596.2711,160362.9572,161129.958,161897.0558,162663.7035,167255.9174,Mapping
Mixed,Both,ball,10,m160dime.wav,None,722.5430938,231,171129.5934,163413.4261,164179.7894,164946.4569,165712.8576,166479.7356,167246.55,168013.6791,157296.3354,158063.3235,158829.9357,159596.2711,160362.9572,161129.958,161897.0558,162663.7035,168023.6793,Mapping
Mixed,Both,ball,10,m150depth.wav,space,0.025661197,231,171129.5934,163413.4261,164179.7894,164946.4569,165712.8576,166479.7356,167246.55,168013.6791,171879.5838,158063.3235,158829.9357,159596.2711,160362.9572,161129.958,161897.0558,162663.7035,171138.5462,Mapping
Mixed,Both,ball,10,m150ball.wav,None,735.057536,231,171129.5934,163413.4261,164179.7894,164946.4569,165712.8576,166479.7356,167246.55,168013.6791,171879.5838,172646.1554,158829.9357,159596.2711,160362.9572,161129.958,161897.0558,162663.7035,171889.1775,Mapping
Mixed,Both,ball,10,m150bluff.wav,None,733.5360898,231,171129.5934,163413.4261,164179.7894,164946.4569,165712.8576,166479.7356,167246.55,168013.6791,171879.5838,172646.1554,173413.0956,159596.2711,160362.9572,161129.958,161897.0558,162663.7035,172655.3824,Mapping
Mixed,Both,ball,10,m150ball.wav,None,730.8382364,231,171129.5934,163413.4261,164179.7894,164946.4569,165712.8576,166479.7356,167246.55,168013.6791,171879.5838,172646.1554,173413.0956,174179.7576,160362.9572,161129.958,161897.0558,162663.7035,173422.5857,Mapping
Mixed,Both,ball,10,m160park.wav,None,728.7336877,231,171129.5934,163413.4261,164179.7894,164946.4569,165712.8576,166479.7356,167246.55,168013.6791,171879.5838,172646.1554,173413.0956,174179.7576,174946.4529,161129.958,161897.0558,162663.7035,174189.278,Mapping
Mixed,Both,ball,10,m150tile.wav,None,726.529276,231,171129.5934,163413.4261,164179.7894,164946.4569,165712.8576,166479.7356,167246.55,168013.6791,171879.5838,172646.1554,173413.0956,174179.7576,174946.4529,175712.8115,161897.0558,162663.7035,174955.9928,Mapping
Mixed,Both,ball,10,m160cling.wav,None,725.020506,231,171129.5934,163413.4261,164179.7894,164946.4569,165712.8576,166479.7356,167246.55,168013.6791,171879.5838,172646.1554,173413.0956,174179.7576,174946.4529,175712.8115,176479.9521,162663.7035,175722.0676,Mapping
Mixed,Both,ball,10,m150reek.wav,None,721.5453885,231,171129.5934,163413.4261,164179.7894,164946.4569,165712.8576,166479.7356,167246.55,168013.6791,171879.5838,172646.1554,173413.0956,174179.7576,174946.4529,175712.8115,176479.9521,177246.7293,176490.1023,Mapping
Mixed,Both,ball,10,m160done.wav,None,720.1537956,231,171129.5934,177995.9875,164179.7894,164946.4569,165712.8576,166479.7356,167246.55,168013.6791,171879.5838,172646.1554,173413.0956,174179.7576,174946.4529,175712.8115,176479.9521,177246.7293,177256.1542,Mapping
Mixed,Both,ball,10,m160ball.wav,None,735.9730005,231,171129.5934,177995.9875,178762.6207,164946.4569,165712.8576,166479.7356,167246.55,168013.6791,171879.5838,172646.1554,173413.0956,174179.7576,174946.4529,175712.8115,176479.9521,177246.7293,178005.0225,Mapping
Mixed,Both,ball,10,m150jaw.wav,None,734.0282947,231,171129.5934,177995.9875,178762.6207,179529.2647,165712.8576,166479.7356,167246.55,168013.6791,171879.5838,172646.1554,173413.0956,174179.7576,174946.4529,175712.8115,176479.9521,177246.7293,178771.6634,Mapping
Mixed,Both,ball,10,m160ball.wav,None,732.2499254,231,171129.5934,177995.9875,178762.6207,179529.2647,180296.3682,166479.7356,167246.55,168013.6791,171879.5838,172646.1554,173413.0956,174179.7576,174946.4529,175712.8115,176479.9521,177246.7293,179538.2169,Mapping
Mixed,Both,ball,10,m160done.wav,None,729.2076517,231,171129.5934,177995.9875,178762.6207,179529.2647,180296.3682,181062.9284,167246.55,168013.6791,171879.5838,172646.1554,173413.0956,174179.7576,174946.4529,175712.8115,176479.9521,177246.7293,180305.9393,Mapping
Mixed,Both,ball,10,m150done.wav,None,727.7684459,231,171129.5934,177995.9875,178762.6207,179529.2647,180296.3682,181062.9284,181829.1711,168013.6791,171879.5838,172646.1554,173413.0956,174179.7576,174946.4529,175712.8115,176479.9521,177246.7293,181071.9513,Mapping
Mixed,Both,ball,10,m160jolt.wav,None,726.3545925,231,171129.5934,177995.9875,178762.6207,179529.2647,180296.3682,181062.9284,181829.1711,182596.6579,171879.5838,172646.1554,173413.0956,174179.7576,174946.4529,175712.8115,176479.9521,177246.7293,181838.0181,Mapping
Mixed,Both,ball,3,m160knife.wav,None,722.7675538,231,185713.1556,177995.9875,178762.6207,179529.2647,180296.3682,181062.9284,181829.1711,182596.6579,171879.5838,172646.1554,173413.0956,174179.7576,174946.4529,175712.8115,176479.9521,177246.7293,182606.3224,Mapping
Mixed,Both,ball,3,m150ball.wav,space,0.038955826,231,185713.1556,177995.9875,178762.6207,179529.2647,180296.3682,181062.9284,181829.1711,182596.6579,186463.1531,172646.1554,173413.0956,174179.7576,174946.4529,175712.8115,176479.9521,177246.7293,185722.8804,Mapping
Mixed,Both,ball,3,m150jaw.wav,None,735.521297,231,185713.1556,177995.9875,178762.6207,179529.2647,180296.3682,181062.9284,181829.1711,182596.6579,186463.1531,187229.1293,173413.0956,174179.7576,174946.4529,175712.8115,176479.9521,177246.7293,186472.765,Mapping
Mixed,Both,ball,3,m160ball.wav,None,735.3892797,231,185713.1556,177995.9875,178762.6207,179529.2647,180296.3682,181062.9284,181829.1711,182596.6579,186463.1531,187229.1293,187996.2445,174179.7576,174946.4529,175712.8115,176479.9521,177246.7293,187237.938,Mapping
Mixed,Both,ball,3,m160park.wav,None,732.54024,231,185713.1556,177995.9875,178762.6207,179529.2647,180296.3682,181062.9284,181829.1711,182596.6579,186463.1531,187229.1293,187996.2445,188762.5663,174946.4529,175712.8115,176479.9521,177246.7293,188005.5596,Mapping
Mixed,Both,ball,3,m150ball.wav,None,730.8839941,231,185713.1556,177995.9875,178762.6207,179529.2647,180296.3682,181062.9284,181829.1711,182596.6579,186463.1531,187229.1293,187996.2445,188762.5663,189529.4926,175712.8115,176479.9521,177246.7293,188771.8558,Mapping
Mixed,Both,ball,3,m150depth.wav,None,733.657286,231,185713.1556,177995.9875,178762.6207,179529.2647,180296.3682,181062.9284,181829.1711,182596.6579,186463.1531,187229.1293,187996.2445,188762.5663,189529.4926,190295.7807,176479.9521,177246.7293,189533.8053,Mapping
Mixed,Both,ball,3,m150bluff.wav,None,727.6249891,231,185713.1556,177995.9875,178762.6207,179529.2647,180296.3682,181062.9284,181829.1711,182596.6579,186463.1531,187229.1293,187996.2445,188762.5663,189529.4926,190295.7807,191062.8659,177246.7293,190304.5455,Mapping
Mixed,Both,ball,3,m160knife.wav,None,723.7191917,231,185713.1556,177995.9875,178762.6207,179529.2647,180296.3682,181062.9284,181829.1711,182596.6579,186463.1531,187229.1293,187996.2445,188762.5663,189529.4926,190295.7807,191062.8659,191829.6342,191073.2839,Mapping
Mixed,Both,ball,3,m160ball.wav,None,722.7004631,231,185713.1556,192596.5432,178762.6207,179529.2647,180296.3682,181062.9284,181829.1711,182596.6579,186463.1531,187229.1293,187996.2445,188762.5663,189529.4926,190295.7807,191062.8659,191829.6342,191838.8343,Mapping
Mixed,Both,ball,3,m160bluff.wav,space,450.9484381,231,185713.1556,192596.5432,193345.8892,179529.2647,180296.3682,181062.9284,181829.1711,182596.6579,186463.1531,187229.1293,187996.2445,188762.5663,189529.4926,190295.7807,191062.8659,191829.6342,192606.0256,Mapping
Mixed,Both,ball,3,m160cad.wav,None,734.9688029,231,185713.1556,192596.5432,193345.8892,194112.5446,180296.3682,181062.9284,181829.1711,182596.6579,186463.1531,187229.1293,187996.2445,188762.5663,189529.4926,190295.7807,191062.8659,191829.6342,193355.3895,Mapping
Mixed,Both,ball,3,m150greet.wav,None,733.3784108,231,185713.1556,192596.5432,193345.8892,194112.5446,194879.1794,181062.9284,181829.1711,182596.6579,186463.1531,187229.1293,187996.2445,188762.5663,189529.4926,190295.7807,191062.8659,191829.6342,194121.741,Mapping
Mixed,Both,ball,3,m150lash.wav,None,731.4677145,231,185713.1556,192596.5432,193345.8892,194112.5446,194879.1794,195646.1397,181829.1711,182596.6579,186463.1531,187229.1293,187996.2445,188762.5663,189529.4926,190295.7807,191062.8659,191829.6342,194888.4249,Mapping
Mixed,Both,ball,3,m150greet.wav,None,729.1071699,231,185713.1556,192596.5432,193345.8892,194112.5446,194879.1794,195646.1397,196412.425,182596.6579,186463.1531,187229.1293,187996.2445,188762.5663,189529.4926,190295.7807,191062.8659,191829.6342,195655.5246,Mapping
Mixed,Both,ball,3,m160jaw.wav,None,727.5415119,231,185713.1556,192596.5432,193345.8892,194112.5446,194879.1794,195646.1397,196412.425,197179.4419,186463.1531,187229.1293,187996.2445,188762.5663,189529.4926,190295.7807,191062.8659,191829.6342,196421.8038,Mapping
Mixed,Both,done,43,m160ball.wav,None,725.4428375,231,200312.891,192596.5432,193345.8892,194112.5446,194879.1794,195646.1397,196412.425,197179.4419,186463.1531,187229.1293,187996.2445,188762.5663,189529.4926,190295.7807,191062.8659,191829.6342,197188.8173,Mapping
Mixed,Both,done,43,m150cave.wav,space,0.034627505,231,200312.891,192596.5432,193345.8892,194112.5446,194879.1794,195646.1397,196412.425,197179.4419,201062.8567,187229.1293,187996.2445,188762.5663,189529.4926,190295.7807,191062.8659,191829.6342,200323.0202,Mapping
Mixed,Both,done,43,m150jaw.wav,None,735.5531421,231,200312.891,192596.5432,193345.8892,194112.5446,194879.1794,195646.1397,196412.425,197179.4419,201062.8567,201828.9587,187996.2445,188762.5663,189529.4926,190295.7807,191062.8659,191829.6342,201072.3845,Mapping
Mixed,Both,done,43,m160done.wav,None,734.8899632,231,200312.891,192596.5432,193345.8892,194112.5446,194879.1794,195646.1397,196412.425,197179.4419,201062.8567,201828.9587,202595.9471,188762.5663,189529.4926,190295.7807,191062.8659,191829.6342,201838.1888,Mapping
Mixed,Both,done,43,m160tile.wav,space,435.2226038,231,200312.891,192596.5432,193345.8892,194112.5446,194879.1794,195646.1397,196412.425,197179.4419,201062.8567,201828.9587,202595.9471,203362.4118,189529.4926,190295.7807,191062.8659,191829.6342,202605.597,Mapping
Mixed,Both,done,43,m150done.wav,None,730.217414,231,200312.891,192596.5432,193345.8892,194112.5446,194879.1794,195646.1397,196412.425,197179.4419,201062.8567,201828.9587,202595.9471,203362.4118,204129.0759,190295.7807,191062.8659,191829.6342,203371.6672,Mapping
Mixed,Both,done,43,m160greet.wav,space,630.444441,231,200312.891,192596.5432,193345.8892,194112.5446,194879.1794,195646.1397,196412.425,197179.4419,201062.8567,201828.9587,202595.9471,203362.4118,204129.0759,204895.8556,191062.8659,191829.6342,204138.348,Mapping
Mixed,Both,done,43,m160done.wav,None,725.5733092,231,200312.891,192596.5432,193345.8892,194112.5446,194879.1794,195646.1397,196412.425,197179.4419,201062.8567,201828.9587,202595.9471,203362.4118,204129.0759,204895.8556,205662.9417,191829.6342,204905.3099,Mapping
Mixed,Both,done,43,m150lash.wav,space,455.6679819,231,200312.891,192596.5432,193345.8892,194112.5446,194879.1794,195646.1397,196412.425,197179.4419,201062.8567,201828.9587,202595.9471,203362.4118,204129.0759,204895.8556,205662.9417,206429.5375,205673.1105,Mapping
Mixed,Both,done,43,m160priest.wav,None,720.2097559,231,200312.891,207179.5099,193345.8892,194112.5446,194879.1794,195646.1397,196412.425,197179.4419,201062.8567,201828.9587,202595.9471,203362.4118,204129.0759,204895.8556,205662.9417,206429.5375,206439.6642,Mapping
Mixed,Both,done,43,m150priest.wav,None,735.44895,231,200312.891,207179.5099,207945.6209,194112.5446,194879.1794,195646.1397,196412.425,197179.4419,201062.8567,201828.9587,202595.9471,203362.4118,204129.0759,204895.8556,205662.9417,206429.5375,207189.2381,Mapping
Mixed,Both,done,43,m150jaw.wav,None,734.4973125,231,200312.891,207179.5099,207945.6209,208712.5812,194879.1794,195646.1397,196412.425,197179.4419,201062.8567,201828.9587,202595.9471,203362.4118,204129.0759,204895.8556,205662.9417,206429.5375,207955.0693,Mapping
Mixed,Both,done,43,m150done.wav,None,732.0412328,231,200312.891,207179.5099,207945.6209,208712.5812,209479.2063,195646.1397,196412.425,197179.4419,201062.8567,201828.9587,202595.9471,203362.4118,204129.0759,204895.8556,205662.9417,206429.5375,208722.2902,Mapping
Mixed,Both,done,43,m150romp.wav,space,528.037922,231,200312.891,207179.5099,207945.6209,208712.5812,209479.2063,210245.2614,196412.425,197179.4419,201062.8567,201828.9587,202595.9471,203362.4118,204129.0759,204895.8556,205662.9417,206429.5375,209488.6272,Mapping
Mixed,Both,done,43,m160cad.wav,None,732.4069859,231,200312.891,207179.5099,207945.6209,208712.5812,209479.2063,210245.2614,211012.5206,197179.4419,201062.8567,201828.9587,202595.9471,203362.4118,204129.0759,204895.8556,205662.9417,206429.5375,210254.1501,Mapping
Mixed,Both,done,43,m160lash.wav,None,729.5483612,231,200312.891,207179.5099,207945.6209,208712.5812,209479.2063,210245.2614,211012.5206,211779.2113,201062.8567,201828.9587,202595.9471,203362.4118,204129.0759,204895.8556,205662.9417,206429.5375,211021.7436,Mapping
Mixed,Both,cave,18,m150cling.wav,None,727.4465957,231,214912.7347,207179.5099,207945.6209,208712.5812,209479.2063,210245.2614,211012.5206,211779.2113,201062.8567,201828.9587,202595.9471,203362.4118,204129.0759,204895.8556,205662.9417,206429.5375,211788.7314,Mapping
Mixed,Both,cave,18,m160cave.wav,space,0.038028229,231,214912.7347,207179.5099,207945.6209,208712.5812,209479.2063,210245.2614,211012.5206,211779.2113,215662.6499,201828.9587,202595.9471,203362.4118,204129.0759,204895.8556,205662.9417,206429.5375,214922.7222,Mapping
Mixed,Both,cave,18,m160cling.wav,None,735.6471308,231,214912.7347,207179.5099,207945.6209,208712.5812,209479.2063,210245.2614,211012.5206,211779.2113,215662.6499,216429.245,202595.9471,203362.4118,204129.0759,204895.8556,205662.9417,206429.5375,215672.1044,Mapping
Mixed,Both,cave,18,m150cave.wav,None,734.0292227,231,214912.7347,207179.5099,207945.6209,208712.5812,209479.2063,210245.2614,211012.5206,211779.2113,215662.6499,216429.245,217195.4723,203362.4118,204129.0759,204895.8556,205662.9417,206429.5375,216438.5422,Mapping
Mixed,Both,cave,18,m160romp.wav,space,412.0447449,231,214912.7347,207179.5099,207945.6209,208712.5812,209479.2063,210245.2614,211012.5206,211779.2113,215662.6499,216429.245,217195.4723,217962.4162,204129.0759,204895.8556,205662.9417,206429.5375,217204.5676,Mapping
Mixed,Both,cave,18,m160cave.wav,None,729.5069322,231,214912.7347,207179.5099,207945.6209,208712.5812,209479.2063,210245.2614,211012.5206,211779.2113,215662.6499,216429.245,217195.4723,217962.4162,218729.0475,204895.8556,205662.9417,206429.5375,217971.8565,Mapping
Mixed,Both,cave,18,m150tile.wav,None,727.0075679,231,214912.7347,207179.5099,207945.6209,208712.5812,209479.2063,210245.2614,211012.5206,211779.2113,215662.6499,216429.245,217195.4723,217962.4162,218729.0475,219495.7481,205662.9417,206429.5375,218739.1043,Mapping
Mixed,Both,cave,18,m150cad.wav,space,0.034009572,231,214912.7347,207179.5099,207945.6209,208712.5812,209479.2063,210245.2614,211012.5206,211779.2113,215662.6499,216429.245,217195.4723,217962.4162,218729.0475,219495.7481,220262.7115,206429.5375,219505.3789,Mapping
Mixed,Both,cave,18,m150done.wav,None,722.0920082,231,214912.7347,207179.5099,207945.6209,208712.5812,209479.2063,210245.2614,211012.5206,211779.2113,215662.6499,216429.245,217195.4723,217962.4162,218729.0475,219495.7481,220262.7115,221029.3728,220273.3588,Mapping
Mixed,Both,cave,18,m150dime.wav,None,720.6503293,231,214912.7347,221796.1173,207945.6209,208712.5812,209479.2063,210245.2614,211012.5206,211779.2113,215662.6499,216429.245,217195.4723,217962.4162,218729.0475,219495.7481,220262.7115,221029.3728,221039.5811,Mapping
Mixed,Both,cave,18,m150tile.wav,None,719.168148,231,214912.7347,221796.1173,222545.4144,208712.5812,209479.2063,210245.2614,211012.5206,211779.2113,215662.6499,216429.245,217195.4723,217962.4162,218729.0475,219495.7481,220262.7115,221029.3728,221805.8334,Mapping
Mixed,Both,cave,18,m160jolt.wav,None,734.9069682,231,214912.7347,221796.1173,222545.4144,223312.3197,209479.2063,210245.2614,211012.5206,211779.2113,215662.6499,216429.245,217195.4723,217962.4162,218729.0475,219495.7481,220262.7115,221029.3728,222554.916,Mapping
Mixed,Both,cave,18,m150cave.wav,None,733.2977164,231,214912.7347,221796.1173,222545.4144,223312.3197,224078.9897,210245.2614,211012.5206,211779.2113,215662.6499,216429.245,217195.4723,217962.4162,218729.0475,219495.7481,220262.7115,221029.3728,223321.3204,Mapping
Mixed,Both,cave,18,m160depth.wav,space,447.8134122,231,214912.7347,221796.1173,222545.4144,223312.3197,224078.9897,224845.3162,211012.5206,211779.2113,215662.6499,216429.245,217195.4723,217962.4162,218729.0475,219495.7481,220262.7115,221029.3728,224088.6999,Mapping
Mixed,Both,cave,18,m160romp.wav,None,729.6469882,231,214912.7347,221796.1173,222545.4144,223312.3197,224078.9897,224845.3162,225612.282,211779.2113,215662.6499,216429.245,217195.4723,217962.4162,218729.0475,219495.7481,220262.7115,221029.3728,224854.3004,Mapping
Mixed,Both,cave,18,m160bluff.wav,None,727.0539445,231,214912.7347,221796.1173,222545.4144,223312.3197,224078.9897,224845.3162,225612.282,226378.935,215662.6499,216429.245,217195.4723,217962.4162,218729.0475,219495.7481,220262.7115,221029.3728,225621.7526,Mapping
Mixed,Both,cave,21,m150tile.wav,None,725.4981799,231,229512.3956,221796.1173,222545.4144,223312.3197,224078.9897,224845.3162,225612.282,226378.935,215662.6499,216429.245,217195.4723,217962.4162,218729.0475,219495.7481,220262.7115,221029.3728,226388.2853,Mapping
Mixed,Both,cave,21,m150jaw.wav,space,0.038337894,231,229512.3956,221796.1173,222545.4144,223312.3197,224078.9897,224845.3162,225612.282,226378.935,230261.8254,216429.245,217195.4723,217962.4162,218729.0475,219495.7481,220262.7115,221029.3728,229522.709,Mapping
Mixed,Both,cave,21,m160jaw.wav,None,736.4287232,231,229512.3956,221796.1173,222545.4144,223312.3197,224078.9897,224845.3162,225612.282,226378.935,230261.8254,231028.8101,217195.4723,217962.4162,218729.0475,219495.7481,220262.7115,221029.3728,230270.9871,Mapping
Mixed,Both,cave,21,m160park.wav,None,733.9887205,231,229512.3956,221796.1173,222545.4144,223312.3197,224078.9897,224845.3162,225612.282,226378.935,230261.8254,231028.8101,231795.5141,217962.4162,218729.0475,219495.7481,220262.7115,221029.3728,231038.3172,Mapping
Mixed,Both,cave,21,m150reek.wav,None,731.9781613,231,229512.3956,221796.1173,222545.4144,223312.3197,224078.9897,224845.3162,225612.282,226378.935,230261.8254,231028.8101,231795.5141,232562.2106,218729.0475,219495.7481,220262.7115,221029.3728,231805.2246,Mapping
Mixed,Both,cave,21,m160jolt.wav,None,730.4183776,231,229512.3956,221796.1173,222545.4144,223312.3197,224078.9897,224845.3162,225612.282,226378.935,230261.8254,231028.8101,231795.5141,232562.2106,233328.4685,219495.7481,220262.7115,221029.3728,232571.6312,Mapping
Mixed,Both,cave,21,m150cave.wav,None,729.565057,231,229512.3956,221796.1173,222545.4144,223312.3197,224078.9897,224845.3162,225612.282,226378.935,230261.8254,231028.8101,231795.5141,232562.2106,233328.4685,234095.08,220262.7115,221029.3728,233337.3984,Mapping
Mixed,Both,cave,21,m150gnash.wav,space,520.4888168,231,229512.3956,221796.1173,222545.4144,223312.3197,224078.9897,224845.3162,225612.282,226378.935,230261.8254,231028.8101,231795.5141,232562.2106,233328.4685,234095.08,234862.5393,221029.3728,234103.8782,Mapping
Mixed,Both,cave,21,m150cave.wav,None,723.4251676,231,229512.3956,221796.1173,222545.4144,223312.3197,224078.9897,224845.3162,225612.282,226378.935,230261.8254,231028.8101,231795.5141,232562.2106,233328.4685,234095.08,234862.5393,235629.0952,234872.5757,Mapping
Mixed,Both,cave,21,m150romp.wav,None,727.1024846,231,229512.3956,236396.0128,222545.4144,223312.3197,224078.9897,224845.3162,225612.282,226378.935,230261.8254,231028.8101,231795.5141,232562.2106,233328.4685,234095.08,234862.5393,235629.0952,235633.7653,Mapping
Mixed,Both,cave,21,m160cave.wav,space,210.9226282,231,229512.3956,236396.0128,237145.1446,223312.3197,224078.9897,224845.3162,225612.282,226378.935,230261.8254,231028.8101,231795.5141,232562.2106,233328.4685,234095.08,234862.5393,235629.0952,236405.4065,Mapping
Mixed,Both,cave,21,m160cad.wav,None,735.7040192,231,229512.3956,236396.0128,237145.1446,237912.1642,224078.9897,224845.3162,225612.282,226378.935,230261.8254,231028.8101,231795.5141,232562.2106,233328.4685,234095.08,234862.5393,235629.0952,237154.14,Mapping
Mixed,Both,cave,21,m160ball.wav,space,142.8659763,231,229512.3956,236396.0128,237145.1446,237912.1642,238678.7711,224845.3162,225612.282,226378.935,230261.8254,231028.8101,231795.5141,232562.2106,233328.4685,234095.08,234862.5393,235629.0952,237921.4435,Mapping
Mixed,Both,cave,21,m160bluff.wav,None,729.8770137,231,229512.3956,236396.0128,237145.1446,237912.1642,238678.7711,239445.4798,225612.282,226378.935,230261.8254,231028.8101,231795.5141,232562.2106,233328.4685,234095.08,234862.5393,235629.0952,238688.8666,Mapping
Mixed,Both,cave,21,m160cave.wav,None,728.9284673,231,229512.3956,236396.0128,237145.1446,237912.1642,238678.7711,239445.4798,240212.0932,226378.935,230261.8254,231028.8101,231795.5141,232562.2106,233328.4685,234095.08,234862.5393,235629.0952,239454.7677,Mapping
Mixed,Both,cave,21,m150cling.wav,space,491.1911646,231,229512.3956,236396.0128,237145.1446,237912.1642,238678.7711,239445.4798,240212.0932,240978.7579,230261.8254,231028.8101,231795.5141,232562.2106,233328.4685,234095.08,234862.5393,235629.0952,240221.0713,Mapping
Mixed,Both,tile,36,m160knife.wav,None,724.2825073,231,244112.4293,236396.0128,237145.1446,237912.1642,238678.7711,239445.4798,240212.0932,240978.7579,230261.8254,231028.8101,231795.5141,232562.2106,233328.4685,234095.08,234862.5393,235629.0952,240988.534,Mapping
Mixed,Both,tile,36,m150romp.wav,None,721.1678866,231,244112.4293,236396.0128,237145.1446,237912.1642,238678.7711,239445.4798,240212.0932,240978.7579,244878.9447,231028.8101,231795.5141,232562.2106,233328.4685,234095.08,234862.5393,235629.0952,244122.1281,Mapping
Mixed,Both,tile,36,m160reek.wav,None,719.225964,231,244112.4293,236396.0128,237145.1446,237912.1642,238678.7711,239445.4798,240212.0932,240978.7579,244878.9447,245628.5239,231795.5141,232562.2106,233328.4685,234095.08,234862.5393,235629.0952,244889.1725,Mapping
Mixed,Both,tile,36,m160greet.wav,None,735.3710383,231,244112.4293,236396.0128,237145.1446,237912.1642,238678.7711,239445.4798,240212.0932,240978.7579,244878.9447,245628.5239,246394.8145,232562.2106,233328.4685,234095.08,234862.5393,235629.0952,245638.0492,Mapping
Mixed,Both,tile,36,m160tile.wav,None,734.3588024,231,244112.4293,236396.0128,237145.1446,237912.1642,238678.7711,239445.4798,240212.0932,240978.7579,244878.9447,245628.5239,246394.8145,247161.7411,233328.4685,234095.08,234862.5393,235629.0952,246404.06,Mapping
Mixed,Both,tile,36,m150depth.wav,space,405.3944089,231,244112.4293,236396.0128,237145.1446,237912.1642,238678.7711,239445.4798,240212.0932,240978.7579,244878.9447,245628.5239,246394.8145,247161.7411,247928.6018,234095.08,234862.5393,235629.0952,247170.7646,Mapping
Mixed,Both,tile,36,m160tile.wav,None,730.0897255,231,244112.4293,236396.0128,237145.1446,237912.1642,238678.7711,239445.4798,240212.0932,240978.7579,244878.9447,245628.5239,246394.8145,247161.7411,247928.6018,248695.2007,234862.5393,235629.0952,247938.0477,Mapping
Mixed,Both,tile,36,m150cad.wav,space,479.4722274,231,244112.4293,236396.0128,237145.1446,237912.1642,238678.7711,239445.4798,240212.0932,240978.7579,244878.9447,245628.5239,246394.8145,247161.7411,247928.6018,248695.2007,249461.9767,235629.0952,248704.6935,Mapping
Mixed,Both,tile,36,m150priest.wav,None,725.8660975,231,244112.4293,236396.0128,237145.1446,237912.1642,238678.7711,239445.4798,240212.0932,240978.7579,244878.9447,245628.5239,246394.8145,247161.7411,247928.6018,248695.2007,249461.9767,250228.2095,249471.5512,Mapping
Mixed,Both,tile,36,m150tile.wav,None,725.5847487,231,244112.4293,250995.5677,237145.1446,237912.1642,238678.7711,239445.4798,240212.0932,240978.7579,244878.9447,245628.5239,246394.8145,247161.7411,247928.6018,248695.2007,249461.9767,250228.2095,250237.0036,Mapping
Mixed,Both,tile,36,m150cave.wav,space,514.5149538,231,244112.4293,250995.5677,251762.2902,237912.1642,238678.7711,239445.4798,240212.0932,240978.7579,244878.9447,245628.5239,246394.8145,247161.7411,247928.6018,248695.2007,249461.9767,250228.2095,251005.5812,Mapping
Mixed,Both,tile,36,m160romp.wav,None,719.4779413,231,244112.4293,250995.5677,251762.2902,252512.2564,238678.7711,239445.4798,240212.0932,240978.7579,244878.9447,245628.5239,246394.8145,247161.7411,247928.6018,248695.2007,249461.9767,250228.2095,251772.484,Mapping
Mixed,Both,tile,36,m150dime.wav,None,735.2863248,231,244112.4293,250995.5677,251762.2902,252512.2564,253278.4614,239445.4798,240212.0932,240978.7579,244878.9447,245628.5239,246394.8145,247161.7411,247928.6018,248695.2007,249461.9767,250228.2095,252521.9855,Mapping
Mixed,Both,tile,36,m150tile.wav,None,734.4960752,231,244112.4293,250995.5677,251762.2902,252512.2564,253278.4614,254044.8915,240212.0932,240978.7579,244878.9447,245628.5239,246394.8145,247161.7411,247928.6018,248695.2007,249461.9767,250228.2095,253287.9191,Mapping
Mixed,Both,tile,36,m160reek.wav,space,482.2248048,231,244112.4293,250995.5677,251762.2902,252512.2564,253278.4614,254044.8915,254811.8629,240978.7579,244878.9447,245628.5239,246394.8145,247161.7411,247928.6018,248695.2007,249461.9767,250228.2095,254053.8241,Mapping
Mixed,Both,tile,36,m160cad.wav,None,730.5018548,231,244112.4293,250995.5677,251762.2902,252512.2564,253278.4614,254044.8915,254811.8629,255578.5375,244878.9447,245628.5239,246394.8145,247161.7411,247928.6018,248695.2007,249461.9767,250228.2095,254821.1214,Mapping
Mixed,Both,tile,25,m160done.wav,None,728.6690702,231,258712.1885,250995.5677,251762.2902,252512.2564,253278.4614,254044.8915,254811.8629,255578.5375,244878.9447,245628.5239,246394.8145,247161.7411,247928.6018,248695.2007,249461.9767,250228.2095,255588.3544,Mapping
Mixed,Both,tile,25,m160tile.wav,None,721.2111712,231,258712.1885,250995.5677,251762.2902,252512.2564,253278.4614,254044.8915,254811.8629,255578.5375,259478.6742,245628.5239,246394.8145,247161.7411,247928.6018,248695.2007,249461.9767,250228.2095,258721.9149,Mapping
Mixed,Both,tile,25,m160dime.wav,space,511.0874488,231,258712.1885,250995.5677,251762.2902,252512.2564,253278.4614,254044.8915,254811.8629,255578.5375,259478.6742,260227.9659,246394.8145,247161.7411,247928.6018,248695.2007,249461.9767,250228.2095,259488.8612,Mapping
Mixed,Both,tile,25,m150tile.wav,None,735.8357268,231,258712.1885,250995.5677,251762.2902,252512.2564,253278.4614,254044.8915,254811.8629,255578.5375,259478.6742,260227.9659,260994.7106,247161.7411,247928.6018,248695.2007,249461.9767,250228.2095,260236.7313,Mapping
Mixed,Both,tile,25,m150romp.wav,space,404.1886297,231,258712.1885,250995.5677,251762.2902,252512.2564,253278.4614,254044.8915,254811.8629,255578.5375,259478.6742,260227.9659,260994.7106,261761.956,247928.6018,248695.2007,249461.9767,250228.2095,261003.7831,Mapping
Mixed,Both,tile,25,m150knife.wav,None,723.8725424,231,258712.1885,250995.5677,251762.2902,252512.2564,253278.4614,254044.8915,254811.8629,255578.5375,259478.6742,260227.9659,260994.7106,261761.956,262528.4173,248695.2007,249461.9767,250228.2095,261778.1496,Mapping
Mixed,Both,tile,25,m150cave.wav,None,729.3486348,231,258712.1885,250995.5677,251762.2902,252512.2564,253278.4614,254044.8915,254811.8629,255578.5375,259478.6742,260227.9659,260994.7106,261761.956,262528.4173,263295.0359,249461.9767,250228.2095,262537.8836,Mapping
Mixed,Both,tile,25,m150romp.wav,None,727.9032455,231,258712.1885,250995.5677,251762.2902,252512.2564,253278.4614,254044.8915,254811.8629,255578.5375,259478.6742,260227.9659,260994.7106,261761.956,262528.4173,263295.0359,264061.6781,250228.2095,263304.7307,Mapping
Mixed,Both,tile,25,m150tile.wav,None,726.8706043,231,258712.1885,250995.5677,251762.2902,252512.2564,253278.4614,254044.8915,254811.8629,255578.5375,259478.6742,260227.9659,260994.7106,261761.956,262528.4173,263295.0359,264061.6781,264828.3351,264070.8738,Mapping
Mixed,Both,tile,25,m150depth.wav,space,450.2339368,231,258712.1885,265595.4821,251762.2902,252512.2564,253278.4614,254044.8915,254811.8629,255578.5375,259478.6742,260227.9659,260994.7106,261761.956,262528.4173,263295.0359,264061.6781,264828.3351,264837.6864,Mapping
Mixed,Both,tile,25,m160cave.wav,None,721.57847,231,258712.1885,265595.4821,266362.098,252512.2564,253278.4614,254044.8915,254811.8629,255578.5375,259478.6742,260227.9659,260994.7106,261761.956,262528.4173,263295.0359,264061.6781,264828.3351,265605.4601,Mapping
Mixed,Both,tile,25,m160tile.wav,None,725.2910333,231,258712.1885,265595.4821,266362.098,267128.7454,253278.4614,254044.8915,254811.8629,255578.5375,259478.6742,260227.9659,260994.7106,261761.956,262528.4173,263295.0359,264061.6781,264828.3351,266367.1088,Mapping
Mixed,Both,tile,25,m160cling.wav,space,645.2925298,231,258712.1885,265595.4821,266362.098,267128.7454,267878.3236,254044.8915,254811.8629,255578.5375,259478.6742,260227.9659,260994.7106,261761.956,262528.4173,263295.0359,264061.6781,264828.3351,267138.5827,Mapping
Mixed,Both,tile,25,m160reek.wav,None,734.0861103,231,258712.1885,265595.4821,266362.098,267128.7454,267878.3236,268644.8643,254811.8629,255578.5375,259478.6742,260227.9659,260994.7106,261761.956,262528.4173,263295.0359,264061.6781,264828.3351,267887.7259,Mapping
Mixed,Both,tile,25,m160ball.wav,None,733.0114213,231,258712.1885,265595.4821,266362.098,267128.7454,267878.3236,268644.8643,269411.6638,255578.5375,259478.6742,260227.9659,260994.7106,261761.956,262528.4173,263295.0359,264061.6781,264828.3351,268654.2694,Mapping
Mixed,Both,tile,25,m150cad.wav,None,731.6828999,231,258712.1885,265595.4821,266362.098,267128.7454,267878.3236,268644.8643,269411.6638,270178.2621,259478.6742,260227.9659,260994.7106,261761.956,262528.4173,263295.0359,264061.6781,264828.3351,269420.8052,Mapping
Mixed,Both,tile,33,m160greet.wav,None,730.0368566,231,273311.9345,265595.4821,266362.098,267128.7454,267878.3236,268644.8643,269411.6638,270178.2621,259478.6742,260227.9659,260994.7106,261761.956,262528.4173,263295.0359,264061.6781,264828.3351,270187.7197,Mapping
Mixed,Both,tile,33,m150ball.wav,None,721.21148,231,273311.9345,265595.4821,266362.098,267128.7454,267878.3236,268644.8643,269411.6638,270178.2621,274078.7148,260227.9659,260994.7106,261761.956,262528.4173,263295.0359,264061.6781,264828.3351,273321.6397,Mapping
Mixed,Both,tile,33,m160tile.wav,None,719.3919905,231,273311.9345,265595.4821,266362.098,267128.7454,267878.3236,268644.8643,269411.6638,270178.2621,274078.7148,274844.7485,260994.7106,261761.956,262528.4173,263295.0359,264061.6781,264828.3351,274088.6609,Mapping
Mixed,Both,tile,33,m160jolt.wav,space,529.7229216,231,273311.9345,265595.4821,266362.098,267128.7454,267878.3236,268644.8643,269411.6638,270178.2621,274078.7148,274844.7485,275594.7215,261761.956,262528.4173,263295.0359,264061.6781,264828.3351,274854.0271,Mapping
Mixed,Both,tile,33,m150tile.wav,None,733.901843,231,273311.9345,265595.4821,266362.098,267128.7454,267878.3236,268644.8643,269411.6638,270178.2621,274078.7148,274844.7485,275594.7215,276361.5922,262528.4173,263295.0359,264061.6781,264828.3351,275604.1535,Mapping
Mixed,Both,tile,33,m150greet.wav,space,684.9264922,231,273311.9345,265595.4821,266362.098,267128.7454,267878.3236,268644.8643,269411.6638,270178.2621,274078.7148,274844.7485,275594.7215,276361.5922,277128.2223,263295.0359,264061.6781,264828.3351,276370.8099,Mapping
Mixed,Both,tile,33,m160romp.wav,None,729.9830602,231,273311.9345,265595.4821,266362.098,267128.7454,267878.3236,268644.8643,269411.6638,270178.2621,274078.7148,274844.7485,275594.7215,276361.5922,277128.2223,277894.4071,264061.6781,264828.3351,277137.6502,Mapping
Mixed,Both,tile,33,m150depth.wav,None,729.2917469,231,273311.9345,265595.4821,266362.098,267128.7454,267878.3236,268644.8643,269411.6638,270178.2621,274078.7148,274844.7485,275594.7215,276361.5922,277128.2223,277894.4071,278661.5214,264828.3351,277903.4805,Mapping
Mixed,Both,tile,33,m160tile.wav,None,726.9046134,231,273311.9345,265595.4821,266362.098,267128.7454,267878.3236,268644.8643,269411.6638,270178.2621,274078.7148,274844.7485,275594.7215,276361.5922,277128.2223,277894.4071,278661.5214,279428.1805,278671.0777,Mapping
Mixed,Both,tile,33,m160reek.wav,space,498.0947142,231,273311.9345,280195.2784,266362.098,267128.7454,267878.3236,268644.8643,269411.6638,270178.2621,274078.7148,274844.7485,275594.7215,276361.5922,277128.2223,277894.4071,278661.5214,279428.1805,279437.5757,Mapping
Mixed,Both,tile,33,m160done.wav,None,722.5718466,231,273311.9345,280195.2784,280961.7446,267128.7454,267878.3236,268644.8643,269411.6638,270178.2621,274078.7148,274844.7485,275594.7215,276361.5922,277128.2223,277894.4071,278661.5214,279428.1805,280205.0409,Mapping
Mixed,Both,tile,33,m150priest.wav,None,721.3533912,231,273311.9345,280195.2784,280961.7446,281728.4329,267878.3236,268644.8643,269411.6638,270178.2621,274078.7148,274844.7485,275594.7215,276361.5922,277128.2223,277894.4071,278661.5214,279428.1805,280971.5516,Mapping
Mixed,Both,tile,33,m150jaw.wav,None,720.5687072,231,273311.9345,280195.2784,280961.7446,281728.4329,282478.5595,268644.8643,269411.6638,270178.2621,274078.7148,274844.7485,275594.7215,276361.5922,277128.2223,277894.4071,278661.5214,279428.1805,281737.6082,Mapping
Mixed,Both,tile,33,m150romp.wav,None,735.4440037,231,273311.9345,280195.2784,280961.7446,281728.4329,282478.5595,283244.5206,269411.6638,270178.2621,274078.7148,274844.7485,275594.7215,276361.5922,277128.2223,277894.4071,278661.5214,279428.1805,282488.1999,Mapping
Mixed,Both,tile,33,m150tile.wav,None,734.8837797,231,273311.9345,280195.2784,280961.7446,281728.4329,282478.5595,283244.5206,284011.4744,270178.2621,274078.7148,274844.7485,275594.7215,276361.5922,277128.2223,277894.4071,278661.5214,279428.1805,283254.1062,Mapping
Mixed,Both,tile,33,m160depth.wav,space,682.8426584,231,273311.9345,280195.2784,280961.7446,281728.4329,282478.5595,283244.5206,284011.4744,284777.6902,274078.7148,274844.7485,275594.7215,276361.5922,277128.2223,277894.4071,278661.5214,279428.1805,284020.7716,Mapping
Mixed,Both,done,37,m150dime.wav,None,731.7400971,231,287911.6921,280195.2784,280961.7446,281728.4329,282478.5595,283244.5206,284011.4744,284777.6902,274078.7148,274844.7485,275594.7215,276361.5922,277128.2223,277894.4071,278661.5214,279428.1805,284786.6677,Mapping
Mixed,Both,done,37,m150cad.wav,None,719.9868415,231,287911.6921,280195.2784,280961.7446,281728.4329,282478.5595,283244.5206,284011.4744,284777.6902,288661.6853,274844.7485,275594.7215,276361.5922,277128.2223,277894.4071,278661.5214,279428.1805,287921.5545,Mapping
Mixed,Both,done,37,m160jaw.wav,None,735.3364108,231,287911.6921,280195.2784,280961.7446,281728.4329,282478.5595,283244.5206,284011.4744,284777.6902,288661.6853,289427.8816,275594.7215,276361.5922,277128.2223,277894.4071,278661.5214,279428.1805,288671.572,Mapping
Mixed,Both,done,37,m150priest.wav,None,735.0559901,231,287911.6921,280195.2784,280961.7446,281728.4329,282478.5595,283244.5206,284011.4744,284777.6902,288661.6853,289427.8816,290194.5859,276361.5922,277128.2223,277894.4071,278661.5214,279428.1805,289437.2619,Mapping
Mixed,Both,done,37,m150done.wav,None,733.440246,231,287911.6921,280195.2784,280961.7446,281728.4329,282478.5595,283244.5206,284011.4744,284777.6902,288661.6853,289427.8816,290194.5859,290960.9179,277128.2223,277894.4071,278661.5214,279428.1805,290203.99,Mapping
Mixed,Both,done,37,m160cave.wav,None,732.8926986,231,287911.6921,280195.2784,280961.7446,281728.4329,282478.5595,283244.5206,284011.4744,284777.6902,288661.6853,289427.8816,290194.5859,290960.9179,291727.5257,277894.4071,278661.5214,279428.1805,290969.7968,Mapping
Mixed,Both,done,37,m160bluff.wav,None,731.4525652,231,287911.6921,280195.2784,280961.7446,281728.4329,282478.5595,283244.5206,284011.4744,284777.6902,288661.6853,289427.8816,290194.5859,290960.9179,291727.5257,292494.2062,278661.5214,279428.1805,291736.6353,Mapping
Mixed,Both,done,37,m160done.wav,None,730.1382655,231,287911.6921,280195.2784,280961.7446,281728.4329,282478.5595,283244.5206,284011.4744,284777.6902,288661.6853,289427.8816,290194.5859,290960.9179,291727.5257,292494.2062,293260.9371,279428.1805,292503.3754,Mapping
Mixed,Both,done,37,m160knife.wav,None,728.8239663,231,287911.6921,280195.2784,280961.7446,281728.4329,282478.5595,283244.5206,284011.4744,284777.6902,288661.6853,289427.8816,290194.5859,290960.9179,291727.5257,292494.2062,293260.9371,294027.5558,293270.0129,Mapping
Mixed,Both,done,37,m150done.wav,None,727.2848976,231,287911.6921,294794.5831,280961.7446,281728.4329,282478.5595,283244.5206,284011.4744,284777.6902,288661.6853,289427.8816,290194.5859,290960.9179,291727.5257,292494.2062,293260.9371,294027.5558,294036.7546,Mapping
Mixed,Both,done,37,m160reek.wav,None,725.359052,231,287911.6921,294794.5831,295561.6622,281728.4329,282478.5595,283244.5206,284011.4744,284777.6902,288661.6853,289427.8816,290194.5859,290960.9179,291727.5257,292494.2062,293260.9371,294027.5558,294804.0331,Mapping
Mixed,Both,done,37,m150dime.wav,space,211.982477,231,287911.6921,294794.5831,295561.6622,296328.2926,282478.5595,283244.5206,284011.4744,284777.6902,288661.6853,289427.8816,290194.5859,290960.9179,291727.5257,292494.2062,293260.9371,294027.5558,295571.4704,Mapping
Mixed,Both,done,37,m160done.wav,None,720.669189,231,287911.6921,294794.5831,295561.6622,296328.2926,297094.304,283244.5206,284011.4744,284777.6902,288661.6853,289427.8816,290194.5859,290960.9179,291727.5257,292494.2062,293260.9371,294027.5558,296337.9719,Mapping
Mixed,Both,done,37,m150jaw.wav,space,488.3161541,231,287911.6921,294794.5831,295561.6622,296328.2926,297094.304,297844.0526,284011.4744,284777.6902,288661.6853,289427.8816,290194.5859,290960.9179,291727.5257,292494.2062,293260.9371,294027.5558,297103.1059,Mapping
Mixed,Both,done,37,m150jaw.wav,None,734.7863899,231,287911.6921,294794.5831,295561.6622,296328.2926,297094.304,297844.0526,298611.1572,284777.6902,288661.6853,289427.8816,290194.5859,290960.9179,291727.5257,292494.2062,293260.9371,294027.5558,297853.1979,Mapping
Mixed,Both,done,37,m160jolt.wav,None,732.7715019,231,287911.6921,294794.5831,295561.6622,296328.2926,297094.304,297844.0526,298611.1572,299377.472,288661.6853,289427.8816,290194.5859,290960.9179,291727.5257,292494.2062,293260.9371,294027.5558,298620.634,Mapping
Mixed,Both,ball,4,m150romp.wav,None,732.5083949,231,302511.4455,294794.5831,295561.6622,296328.2926,297094.304,297844.0526,298611.1572,299377.472,288661.6853,289427.8816,290194.5859,290960.9179,291727.5257,292494.2062,293260.9371,294027.5558,299386.1786,Mapping
Mixed,Both,ball,4,m160ball.wav,None,719.5088584,231,302511.4455,294794.5831,295561.6622,296328.2926,297094.304,297844.0526,298611.1572,299377.472,303260.8252,289427.8816,290194.5859,290960.9179,291727.5257,292494.2062,293260.9371,294027.5558,302521.7926,Mapping
Mixed,Both,ball,4,m150reek.wav,space,409.3883205,231,302511.4455,294794.5831,295561.6622,296328.2926,297094.304,297844.0526,298611.1572,299377.472,303260.8252,304027.7926,290194.5859,290960.9179,291727.5257,292494.2062,293260.9371,294027.5558,303269.9434,Mapping
Mixed,Both,ball,4,m150park.wav,None,733.4031449,231,302511.4455,294794.5831,295561.6622,296328.2926,297094.304,297844.0526,298611.1572,299377.472,303260.8252,304027.7926,304794.5522,290960.9179,291727.5257,292494.2062,293260.9371,294027.5558,304037.2719,Mapping
Mixed,Both,ball,4,m160jolt.wav,None,731.9858908,231,302511.4455,294794.5831,295561.6622,296328.2926,297094.304,297844.0526,298611.1572,299377.472,303260.8252,304027.7926,304794.5522,305560.7485,291727.5257,292494.2062,293260.9371,294027.5558,304804.1212,Mapping
Mixed,Both,ball,4,m150ball.wav,None,731.7227838,231,302511.4455,294794.5831,295561.6622,296328.2926,297094.304,297844.0526,298611.1572,299377.472,303260.8252,304027.7926,304794.5522,305560.7485,306327.7432,292494.2062,293260.9371,294027.5558,305569.7406,Mapping
Mixed,Both,ball,4,m150romp.wav,space,398.1096474,231,302511.4455,294794.5831,295561.6622,296328.2926,297094.304,297844.0526,298611.1572,299377.472,303260.8252,304027.7926,304794.5522,305560.7485,306327.7432,307094.3219,293260.9371,294027.5558,306337.1878,Mapping
Mixed,Both,ball,4,m160ball.wav,None,727.1145424,231,302511.4455,294794.5831,295561.6622,296328.2926,297094.304,297844.0526,298611.1572,299377.472,303260.8252,304027.7926,304794.5522,305560.7485,306327.7432,307094.3219,307861.016,294027.5558,307103.8235,Mapping
Mixed,Both,ball,4,m160cave.wav,space,568.6751548,231,302511.4455,294794.5831,295561.6622,296328.2926,297094.304,297844.0526,298611.1572,299377.472,303260.8252,304027.7926,304794.5522,305560.7485,306327.7432,307094.3219,307861.016,308627.9652,307870.5707,Mapping
Mixed,Both,ball,4,m150ball.wav,None,722.8358812,231,302511.4455,309394.8618,295561.6622,296328.2926,297094.304,297844.0526,298611.1572,299377.472,303260.8252,304027.7926,304794.5522,305560.7485,306327.7432,307094.3219,307861.016,308627.9652,308637.6788,Mapping
Mixed,Both,ball,4,m160romp.wav,space,482.8085257,231,302511.4455,309394.8618,310144.2403,296328.2926,297094.304,297844.0526,298611.1572,299377.472,303260.8252,304027.7926,304794.5522,305560.7485,306327.7432,307094.3219,307861.016,308627.9652,309404.4208,Mapping
Mixed,Both,ball,4,m160knife.wav,None,736.8294131,231,302511.4455,309394.8618,310144.2403,310910.7485,297094.304,297844.0526,298611.1572,299377.472,303260.8252,304027.7926,304794.5522,305560.7485,306327.7432,307094.3219,307861.016,308627.9652,310153.0322,Mapping
Mixed,Both,ball,4,m150cave.wav,None,735.2316007,231,302511.4455,309394.8618,310144.2403,310910.7485,311677.6785,297844.0526,298611.1572,299377.472,303260.8252,304027.7926,304794.5522,305560.7485,306327.7432,307094.3219,307861.016,308627.9652,310920.1069,Mapping
Mixed,Both,ball,4,m160greet.wav,None,733.4442651,231,302511.4455,309394.8618,310144.2403,310910.7485,311677.6785,312444.3185,298611.1572,299377.472,303260.8252,304027.7926,304794.5522,305560.7485,306327.7432,307094.3219,307861.016,308627.9652,311687.2172,Mapping
Mixed,Both,ball,4,m150knife.wav,None,732.3343297,231,302511.4455,309394.8618,310144.2403,310910.7485,311677.6785,312444.3185,313210.999,299377.472,303260.8252,304027.7926,304794.5522,305560.7485,306327.7432,307094.3219,307861.016,308627.9652,312454.0448,Mapping
Mixed,Both,ball,4,m160romp.wav,None,731.5221289,231,302511.4455,309394.8618,310144.2403,310910.7485,311677.6785,312444.3185,313210.999,313977.5703,303260.8252,304027.7926,304794.5522,305560.7485,306327.7432,307094.3219,307861.016,308627.9652,313220.2671,Mapping
Mixed,Both,done,46,m150tile.wav,None,729.6534805,231,317111.2665,309394.8618,310144.2403,310910.7485,311677.6785,312444.3185,313210.999,313977.5703,303260.8252,304027.7926,304794.5522,305560.7485,306327.7432,307094.3219,307861.016,308627.9652,313987.5554,Mapping
Mixed,Both,done,46,m160done.wav,space,0.04112022,231,317111.2665,309394.8618,310144.2403,310910.7485,311677.6785,312444.3185,313210.999,313977.5703,317860.9016,304027.7926,304794.5522,305560.7485,306327.7432,307094.3219,307861.016,308627.9652,317121.0188,Mapping
Mixed,Both,done,46,m160park.wav,space,689.2230855,231,317111.2665,309394.8618,310144.2403,310910.7485,311677.6785,312444.3185,313210.999,313977.5703,317860.9016,318627.634,304794.5522,305560.7485,306327.7432,307094.3219,307861.016,308627.9652,317869.8834,Mapping
Mixed,Both,done,46,m150jolt.wav,None,732.51396,231,317111.2665,309394.8618,310144.2403,310910.7485,311677.6785,312444.3185,313210.999,313977.5703,317860.9016,318627.634,319393.8004,305560.7485,306327.7432,307094.3219,307861.016,308627.9652,318637.6717,Mapping
Mixed,Both,done,46,m150done.wav,None,733.1338543,231,317111.2665,309394.8618,310144.2403,310910.7485,311677.6785,312444.3185,313210.999,313977.5703,317860.9016,318627.634,319393.8004,320160.8463,306327.7432,307094.3219,307861.016,308627.9652,319402.5605,Mapping
Mixed,Both,done,46,m160cling.wav,space,557.2895072,231,317111.2665,309394.8618,310144.2403,310910.7485,311677.6785,312444.3185,313210.999,313977.5703,317860.9016,318627.634,319393.8004,320160.8463,320927.5457,307094.3219,307861.016,308627.9652,320169.8229,Mapping
Mixed,Both,done,46,m150park.wav,None,728.123378,231,317111.2665,309394.8618,310144.2403,310910.7485,311677.6785,312444.3185,313210.999,313977.5703,317860.9016,318627.634,319393.8004,320160.8463,320927.5457,321694.1924,307861.016,308627.9652,320937.1916,Mapping
Mixed,Both,done,46,m160done.wav,None,727.1674112,231,317111.2665,309394.8618,310144.2403,310910.7485,311677.6785,312444.3185,313210.999,313977.5703,317860.9016,318627.634,319393.8004,320160.8463,320927.5457,321694.1924,322460.7656,308627.9652,321703.5515,Mapping
Mixed,Both,done,46,m160jolt.wav,space,609.1525443,231,317111.2665,309394.8618,310144.2403,310910.7485,311677.6785,312444.3185,313210.999,313977.5703,317860.9016,318627.634,319393.8004,320160.8463,320927.5457,321694.1924,322460.7656,323227.2817,322469.9293,Mapping
Mixed,Both,done,46,m150lash.wav,None,725.0906886,231,317111.2665,323994.4271,310144.2403,310910.7485,311677.6785,312444.3185,313210.999,313977.5703,317860.9016,318627.634,319393.8004,320160.8463,320927.5457,321694.1924,322460.7656,323227.2817,323236.2765,Mapping
Mixed,Both,done,46,m160gnash.wav,None,722.5839044,231,317111.2665,323994.4271,324761.0789,310910.7485,311677.6785,312444.3185,313210.999,313977.5703,317860.9016,318627.634,319393.8004,320160.8463,320927.5457,321694.1924,322460.7656,323227.2817,324004.4469,Mapping
Mixed,Both,done,46,m150park.wav,None,721.5348766,231,317111.2665,323994.4271,324761.0789,325527.8404,311677.6785,312444.3185,313210.999,313977.5703,317860.9016,318627.634,319393.8004,320160.8463,320927.5457,321694.1924,322460.7656,323227.2817,324770.9629,Mapping
Mixed,Both,done,46,m150done.wav,None,720.0032277,231,317111.2665,323994.4271,324761.0789,325527.8404,326294.6121,312444.3185,313210.999,313977.5703,317860.9016,318627.634,319393.8004,320160.8463,320927.5457,321694.1924,322460.7656,323227.2817,325537.9182,Mapping
Mixed,Both,done,46,m150reek.wav,space,470.7420771,231,317111.2665,323994.4271,324761.0789,325527.8404,326294.6121,327043.5932,313210.999,313977.5703,317860.9016,318627.634,319393.8004,320160.8463,320927.5457,321694.1924,322460.7656,323227.2817,326304.2351,Mapping
Mixed,Both,done,46,m160depth.wav,None,734.8207082,231,317111.2665,323994.4271,324761.0789,325527.8404,326294.6121,327043.5932,327810.6791,313977.5703,317860.9016,318627.634,319393.8004,320160.8463,320927.5457,321694.1924,322460.7656,323227.2817,327052.7723,Mapping
Mixed,Both,done,46,m160greet.wav,None,733.0435752,231,317111.2665,323994.4271,324761.0789,325527.8404,326294.6121,327043.5932,327810.6791,328577.4359,317860.9016,318627.634,319393.8004,320160.8463,320927.5457,321694.1924,322460.7656,323227.2817,327820.0446,Mapping
Mixed,Both,done,40,m150knife.wav,None,731.5066704,231,331710.9531,323994.4271,324761.0789,325527.8404,326294.6121,327043.5932,327810.6791,328577.4359,317860.9016,318627.634,319393.8004,320160.8463,320927.5457,321694.1924,322460.7656,323227.2817,328587.0744,Mapping
Mixed,Both,done,40,m160done.wav,None,721.0504008,231,331710.9531,323994.4271,324761.0789,325527.8404,326294.6121,327043.5932,327810.6791,328577.4359,332477.7075,318627.634,319393.8004,320160.8463,320927.5457,321694.1924,322460.7656,323227.2817,331720.7898,Mapping
Mixed,Both,done,40,m150romp.wav,space,455.6154222,231,331710.9531,323994.4271,324761.0789,325527.8404,326294.6121,327043.5932,327810.6791,328577.4359,332477.7075,333227.4427,319393.8004,320160.8463,320927.5457,321694.1924,322460.7656,323227.2817,332487.2987,Mapping
Mixed,Both,done,40,m160done.wav,None,734.9511799,231,331710.9531,323994.4271,324761.0789,325527.8404,326294.6121,327043.5932,327810.6791,328577.4359,332477.7075,333227.4427,333993.4539,320160.8463,320927.5457,321694.1924,322460.7656,323227.2817,333237.3929,Mapping
Mixed,Both,done,40,m150bluff.wav,space,580.2645478,231,331710.9531,323994.4271,324761.0789,325527.8404,326294.6121,327043.5932,327810.6791,328577.4359,332477.7075,333227.4427,333993.4539,334760.6593,320927.5457,321694.1924,322460.7656,323227.2817,334002.6122,Mapping
Mixed,Both,done,40,m150done.wav,None,732.0706043,231,331710.9531,323994.4271,324761.0789,325527.8404,326294.6121,327043.5932,327810.6791,328577.4359,332477.7075,333227.4427,333993.4539,334760.6593,335527.0643,321694.1924,322460.7656,323227.2817,334770.1003,Mapping
Mixed,Both,done,40,m150knife.wav,space,462.5702947,231,331710.9531,323994.4271,324761.0789,325527.8404,326294.6121,327043.5932,327810.6791,328577.4359,332477.7075,333227.4427,333993.4539,334760.6593,335527.0643,336293.9912,322460.7656,323227.2817,335536.2842,Mapping
Mixed,Both,done,40,m160cave.wav,None,728.159551,231,331710.9531,323994.4271,324761.0789,325527.8404,326294.6121,327043.5932,327810.6791,328577.4359,332477.7075,333227.4427,333993.4539,334760.6593,335527.0643,336293.9912,337060.0642,323227.2817,336303.5738,Mapping
Mixed,Both,done,40,m160jolt.wav,None,736.2688798,231,331710.9531,323994.4271,324761.0789,325527.8404,326294.6121,327043.5932,327810.6791,328577.4359,332477.7075,333227.4427,333993.4539,334760.6593,335527.0643,336293.9912,337060.0642,337827.415,337063.4633,Mapping
Mixed,Both,done,40,m150done.wav,None,728.6230032,231,331710.9531,338593.9696,324761.0789,325527.8404,326294.6121,327043.5932,327810.6791,328577.4359,332477.7075,333227.4427,333993.4539,334760.6593,335527.0643,336293.9912,337060.0642,337827.415,337836.7193,Mapping
Mixed,Both,done,40,m160cling.wav,space,699.1290255,231,331710.9531,338593.9696,339360.3576,325527.8404,326294.6121,327043.5932,327810.6791,328577.4359,332477.7075,333227.4427,333993.4539,334760.6593,335527.0643,336293.9912,337060.0642,337827.415,338603.6808,Mapping
Mixed,Both,done,40,m150greet.wav,None,725.3299896,231,331710.9531,338593.9696,339360.3576,340127.7174,326294.6121,327043.5932,327810.6791,328577.4359,332477.7075,333227.4427,333993.4539,334760.6593,335527.0643,336293.9912,337060.0642,337827.415,339369.7055,Mapping
Mixed,Both,done,40,m150gnash.wav,None,722.9054454,231,331710.9531,338593.9696,339360.3576,340127.7174,340894.1623,327043.5932,327810.6791,328577.4359,332477.7075,333227.4427,333993.4539,334760.6593,335527.0643,336293.9912,337060.0642,337827.415,340137.6746,Mapping
Mixed,Both,done,40,m160greet.wav,None,722.6420296,231,331710.9531,338593.9696,339360.3576,340127.7174,340894.1623,341660.7664,327810.6791,328577.4359,332477.7075,333227.4427,333993.4539,334760.6593,335527.0643,336293.9912,337060.0642,337827.415,340903.661,Mapping
Mixed,Both,done,40,m160cave.wav,None,721.0361785,231,331710.9531,338593.9696,339360.3576,340127.7174,340894.1623,341660.7664,342427.5201,328577.4359,332477.7075,333227.4427,333993.4539,334760.6593,335527.0643,336293.9912,337060.0642,337827.415,341670.8724,Mapping
Mixed,Both,done,40,m160cling.wav,None,719.9175865,231,331710.9531,338593.9696,339360.3576,340127.7174,340894.1623,341660.7664,342427.5201,343194.2371,332477.7075,333227.4427,333993.4539,334760.6593,335527.0643,336293.9912,337060.0642,337827.415,342437.5921,Mapping
Mixed,Both,tile,31,m150park.wav,None,719.1805155,231,346310.7726,338593.9696,339360.3576,340127.7174,340894.1623,341660.7664,342427.5201,343194.2371,332477.7075,333227.4427,333993.4539,334760.6593,335527.0643,336293.9912,337060.0642,337827.415,343203.939,Mapping
Mixed,Both,tile,31,m150tile.wav,None,721.001551,231,346310.7726,338593.9696,339360.3576,340127.7174,340894.1623,341660.7664,342427.5201,343194.2371,347077.4908,333227.4427,333993.4539,334760.6593,335527.0643,336293.9912,337060.0642,337827.415,346320.6504,Mapping
Mixed,Both,tile,31,m150jaw.wav,space,463.1889523,231,346310.7726,338593.9696,339360.3576,340127.7174,340894.1623,341660.7664,342427.5201,343194.2371,347077.4908,347826.6736,333993.4539,334760.6593,335527.0643,336293.9912,337060.0642,337827.415,347087.4762,Mapping
Mixed,Both,tile,31,m160done.wav,None,735.6533143,231,346310.7726,338593.9696,339360.3576,340127.7174,340894.1623,341660.7664,342427.5201,343194.2371,347077.4908,347826.6736,348593.2591,334760.6593,335527.0643,336293.9912,337060.0642,337827.415,347836.3257,Mapping
Mixed,Both,tile,31,m150romp.wav,None,735.447404,231,346310.7726,338593.9696,339360.3576,340127.7174,340894.1623,341660.7664,342427.5201,343194.2371,347077.4908,347826.6736,348593.2591,349360.0645,335527.0643,336293.9912,337060.0642,337827.415,348602.4438,Mapping
Mixed,Both,tile,31,m150park.wav,None,734.4051781,231,346310.7726,338593.9696,339360.3576,340127.7174,340894.1623,341660.7664,342427.5201,343194.2371,347077.4908,347826.6736,348593.2591,349360.0645,350127.1534,336293.9912,337060.0642,337827.415,349369.1558,Mapping
Mixed,Both,tile,31,m160tile.wav,None,732.2947555,231,346310.7726,338593.9696,339360.3576,340127.7174,340894.1623,341660.7664,342427.5201,343194.2371,347077.4908,347826.6736,348593.2591,349360.0645,350127.1534,350893.6206,337060.0642,337827.415,350137.1543,Mapping
Mixed,Both,tile,31,m160cave.wav,None,732.1265647,231,346310.7726,338593.9696,339360.3576,340127.7174,340894.1623,341660.7664,342427.5201,343194.2371,347077.4908,347826.6736,348593.2591,349360.0645,350127.1534,350893.6206,351660.3577,337827.415,350902.9731,Mapping
Mixed,Both,tile,31,m160ball.wav,space,0.034009106,231,346310.7726,338593.9696,339360.3576,340127.7174,340894.1623,341660.7664,342427.5201,343194.2371,347077.4908,347826.6736,348593.2591,349360.0645,350127.1534,350893.6206,351660.3577,352427.0731,351669.9452,Mapping
Mixed,Both,tile,31,m160depth.wav,None,728.3450556,231,346310.7726,353193.8633,339360.3576,340127.7174,340894.1623,341660.7664,342427.5201,343194.2371,347077.4908,347826.6736,348593.2591,349360.0645,350127.1534,350893.6206,351660.3577,352427.0731,352436.6402,Mapping
Mixed,Both,tile,31,m150tile.wav,None,727.2910811,231,346310.7726,353193.8633,353960.0071,340127.7174,340894.1623,341660.7664,342427.5201,343194.2371,347077.4908,347826.6736,348593.2591,349360.0645,350127.1534,350893.6206,351660.3577,352427.0731,353203.4607,Mapping
Mixed,Both,tile,31,m160cave.wav,space,653.7079411,231,346310.7726,353193.8633,353960.0071,354726.6548,340894.1623,341660.7664,342427.5201,343194.2371,347077.4908,347826.6736,348593.2591,349360.0645,350127.1534,350893.6206,351660.3577,352427.0731,353968.8594,Mapping
Mixed,Both,tile,31,m160tile.wav,None,725.0739932,231,346310.7726,353193.8633,353960.0071,354726.6548,355493.9419,341660.7664,342427.5201,343194.2371,347077.4908,347826.6736,348593.2591,349360.0645,350127.1534,350893.6206,351660.3577,352427.0731,354735.5674,Mapping
Mixed,Both,tile,31,m150knife.wav,None,723.2013252,231,346310.7726,353193.8633,353960.0071,354726.6548,355493.9419,356260.6672,342427.5201,343194.2371,347077.4908,347826.6736,348593.2591,349360.0645,350127.1534,350893.6206,351660.3577,352427.0731,355503.3092,Mapping
Mixed,Both,tile,31,m150park.wav,space,40.3314596,231,346310.7726,353193.8633,353960.0071,354726.6548,355493.9419,356260.6672,357027.3208,343194.2371,347077.4908,347826.6736,348593.2591,349360.0645,350127.1534,350893.6206,351660.3577,352427.0731,356278.207,Mapping
Mixed,Both,tile,31,m160greet.wav,None,719.015107,231,346310.7726,353193.8633,353960.0071,354726.6548,355493.9419,356260.6672,357027.3208,357777.0211,347077.4908,347826.6736,348593.2591,349360.0645,350127.1534,350893.6206,351660.3577,352427.0731,357037.4617,Mapping
Mixed,Both,done,45,m160knife.wav,None,735.3382655,231,360910.491,353193.8633,353960.0071,354726.6548,355493.9419,356260.6672,357027.3208,357777.0211,347077.4908,347826.6736,348593.2591,349360.0645,350127.1534,350893.6206,351660.3577,352427.0731,357786.9666,Mapping
Mixed,Both,done,45,m150romp.wav,None,720.6939226,231,360910.491,353193.8633,353960.0071,354726.6548,355493.9419,356260.6672,357027.3208,357777.0211,361677.365,347826.6736,348593.2591,349360.0645,350127.1534,350893.6206,351660.3577,352427.0731,360920.6727,Mapping
Mixed,Both,done,45,m150done.wav,None,719.7939167,231,360910.491,353193.8633,353960.0071,354726.6548,355493.9419,356260.6672,357027.3208,357777.0211,361677.365,362444.0866,348593.2591,349360.0645,350127.1534,350893.6206,351660.3577,352427.0731,361687.3739,Mapping
Mixed,Both,done,45,m150lash.wav,space,591.5225064,231,360910.491,353193.8633,353960.0071,354726.6548,355493.9419,356260.6672,357027.3208,357777.0211,361677.365,362444.0866,363193.0629,349360.0645,350127.1534,350893.6206,351660.3577,352427.0731,362454.9139,Mapping
Mixed,Both,done,45,m160done.wav,None,735.0253817,231,360910.491,353193.8633,353960.0071,354726.6548,355493.9419,356260.6672,357027.3208,357777.0211,361677.365,362444.0866,363193.0629,363959.8293,350127.1534,350893.6206,351660.3577,352427.0731,363202.2469,Mapping
Mixed,Both,done,45,m160cling.wav,space,605.5519022,231,360910.491,353193.8633,353960.0071,354726.6548,355493.9419,356260.6672,357027.3208,357777.0211,361677.365,362444.0866,363193.0629,363959.8293,364726.5079,350893.6206,351660.3577,352427.0731,363968.8866,Mapping
Mixed,Both,done,45,m150bluff.wav,None,731.2605679,231,360910.491,353193.8633,353960.0071,354726.6548,355493.9419,356260.6672,357027.3208,357777.0211,361677.365,362444.0866,363193.0629,363959.8293,364726.5079,365493.5359,351660.3577,352427.0731,364735.9977,Mapping
Mixed,Both,done,45,m160dime.wav,None,729.9283366,231,360910.491,353193.8633,353960.0071,354726.6548,355493.9419,356260.6672,357027.3208,357777.0211,361677.365,362444.0866,363193.0629,363959.8293,364726.5079,365493.5359,366259.8238,352427.0731,365503.0032,Mapping
Mixed,Both,done,45,m150done.wav,None,729.700475,231,360910.491,353193.8633,353960.0071,354726.6548,355493.9419,356260.6672,357027.3208,357777.0211,361677.365,362444.0866,363193.0629,363959.8293,364726.5079,365493.5359,366259.8238,367026.4625,366268.9784,Mapping
Mixed,Both,done,45,m150priest.wav,space,499.1363217,231,360910.491,367793.6253,353960.0071,354726.6548,355493.9419,356260.6672,357027.3208,357777.0211,361677.365,362444.0866,363193.0629,363959.8293,364726.5079,365493.5359,366259.8238,367026.4625,367035.2579,Mapping
Mixed,Both,done,45,m150tile.wav,None,724.5366485,231,360910.491,367793.6253,368560.129,354726.6548,355493.9419,356260.6672,357027.3208,357777.0211,361677.365,362444.0866,363193.0629,363959.8293,364726.5079,365493.5359,366259.8238,367026.4625,367803.8744,Mapping
Mixed,Both,done,45,m150cling.wav,None,724.5286098,231,360910.491,367793.6253,368560.129,369327.2472,355493.9419,356260.6672,357027.3208,357777.0211,361677.365,362444.0866,363193.0629,363959.8293,364726.5079,365493.5359,366259.8238,367026.4625,368569.6692,Mapping
Mixed,Both,done,45,m160jolt.wav,None,722.710975,231,360910.491,367793.6253,368560.129,369327.2472,370093.7874,356260.6672,357027.3208,357777.0211,361677.365,362444.0866,363193.0629,363959.8293,364726.5079,365493.5359,366259.8238,367026.4625,369337.4676,Mapping
Mixed,Both,done,45,m160done.wav,None,721.9522614,231,360910.491,367793.6253,368560.129,369327.2472,370093.7874,370860.4972,357027.3208,357777.0211,361677.365,362444.0866,363193.0629,363959.8293,364726.5079,365493.5359,366259.8238,367026.4625,370103.9039,Mapping
Mixed,Both,done,45,m160knife.wav,space,623.6868212,231,360910.491,367793.6253,368560.129,369327.2472,370093.7874,370860.4972,371610.4613,357777.0211,361677.365,362444.0866,363193.0629,363959.8293,364726.5079,365493.5359,366259.8238,367026.4625,370870.6381,Mapping
Mixed,Both,done,45,m160greet.wav,None,735.5169686,231,360910.491,367793.6253,368560.129,369327.2472,370093.7874,370860.4972,371610.4613,372376.5058,361677.365,362444.0866,363193.0629,363959.8293,364726.5079,365493.5359,366259.8238,367026.4625,371620.2157,Mapping
Mixed,Both,done,48,m150cad.wav,None,735.3054932,231,375510.4286,367793.6253,368560.129,369327.2472,370093.7874,370860.4972,371610.4613,372376.5058,361677.365,362444.0866,363193.0629,363959.8293,364726.5079,365493.5359,366259.8238,367026.4625,372386.1322,Mapping
Mixed,Both,done,48,m160romp.wav,None,720.4450378,231,375510.4286,367793.6253,368560.129,369327.2472,370093.7874,370860.4972,371610.4613,372376.5058,376277.0408,362444.0866,363193.0629,363959.8293,364726.5079,365493.5359,366259.8238,367026.4625,375520.8002,Mapping
Mixed,Both,done,48,m150cad.wav,None,720.0143579,231,375510.4286,367793.6253,368560.129,369327.2472,370093.7874,370860.4972,371610.4613,372376.5058,376277.0408,377043.6288,363193.0629,363959.8293,364726.5079,365493.5359,366259.8238,367026.4625,376287.075,Mapping
Mixed,Both,done,48,m160cad.wav,None,718.7479809,231,375510.4286,367793.6253,368560.129,369327.2472,370093.7874,370860.4972,371610.4613,372376.5058,376277.0408,377043.6288,377792.7633,363959.8293,364726.5079,365493.5359,366259.8238,367026.4625,377054.1781,Mapping
Mixed,Both,done,48,m160done.wav,None,736.5941312,231,375510.4286,367793.6253,368560.129,369327.2472,370093.7874,370860.4972,371610.4613,372376.5058,376277.0408,377043.6288,377792.7633,378559.8009,364726.5079,365493.5359,366259.8238,367026.4625,377802.1177,Mapping
Mixed,Both,done,48,m150gnash.wav,space,500.4255781,231,375510.4286,367793.6253,368560.129,369327.2472,370093.7874,370860.4972,371610.4613,372376.5058,376277.0408,377043.6288,377792.7633,378559.8009,379326.6756,365493.5359,366259.8238,367026.4625,378569.8086,Mapping
Mixed,Both,done,48,m150jolt.wav,None,732.4688202,231,375510.4286,367793.6253,368560.129,369327.2472,370093.7874,370860.4972,371610.4613,372376.5058,376277.0408,377043.6288,377792.7633,378559.8009,379326.6756,380093.3282,366259.8238,367026.4625,379336.1116,Mapping
Mixed,Both,done,48,m150reek.wav,None,731.3360064,231,375510.4286,367793.6253,368560.129,369327.2472,370093.7874,370860.4972,371610.4613,372376.5058,376277.0408,377043.6288,377792.7633,378559.8009,379326.6756,380093.3282,380859.7673,367026.4625,380103.0564,Mapping
Mixed,Both,done,48,m160done.wav,None,730.9439736,231,375510.4286,367793.6253,368560.129,369327.2472,370093.7874,370860.4972,371610.4613,372376.5058,376277.0408,377043.6288,377792.7633,378559.8009,379326.6756,380093.3282,380859.7673,381626.6521,380869.4973,Mapping
Mixed,Both,done,48,m160jolt.wav,space,513.3036091,231,375510.4286,382393.2364,368560.129,369327.2472,370093.7874,370860.4972,371610.4613,372376.5058,376277.0408,377043.6288,377792.7633,378559.8009,379326.6756,380093.3282,380859.7673,381626.6521,381636.8728,Mapping
Mixed,Both,done,48,m160tile.wav,None,727.4870975,231,375510.4286,382393.2364,383160.0239,369327.2472,370093.7874,370860.4972,371610.4613,372376.5058,376277.0408,377043.6288,377792.7633,378559.8009,379326.6756,380093.3282,380859.7673,381626.6521,382402.9754,Mapping
Mixed,Both,done,48,m150done.wav,None,726.9945829,231,375510.4286,382393.2364,383160.0239,383926.2239,370093.7874,370860.4972,371610.4613,372376.5058,376277.0408,377043.6288,377792.7633,378559.8009,379326.6756,380093.3282,380859.7673,381626.6521,383169.3341,Mapping
Mixed,Both,done,48,m160bluff.wav,None,726.9908725,231,375510.4286,382393.2364,383160.0239,383926.2239,384693.0432,370860.4972,371610.4613,372376.5058,376277.0408,377043.6288,377792.7633,378559.8009,379326.6756,380093.3282,380859.7673,381626.6521,383935.134,Mapping
Mixed,Both,done,48,m150done.wav,None,725.3596699,231,375510.4286,382393.2364,383160.0239,383926.2239,384693.0432,385459.8848,371610.4613,372376.5058,376277.0408,377043.6288,377792.7633,378559.8009,379326.6756,380093.3282,380859.7673,381626.6521,384702.5939,Mapping
Mixed,Both,done,48,m150reek.wav,space,577.0463543,231,375510.4286,382393.2364,383160.0239,383926.2239,384693.0432,385459.8848,386226.885,372376.5058,376277.0408,377043.6288,377792.7633,378559.8009,379326.6756,380093.3282,380859.7673,381626.6521,385469.0456,Mapping
Mixed,Both,done,48,m160cave.wav,None,720.9131275,231,375510.4286,382393.2364,383160.0239,383926.2239,384693.0432,385459.8848,386226.885,386993.5698,376277.0408,377043.6288,377792.7633,378559.8009,379326.6756,380093.3282,380859.7673,381626.6521,386237.2544,Mapping
Mixed,Both,done,41,m160dime.wav,None,720.3117833,231,390110.3396,382393.2364,383160.0239,383926.2239,384693.0432,385459.8848,386226.885,386993.5698,376277.0408,377043.6288,377792.7633,378559.8009,379326.6756,380093.3282,380859.7673,381626.6521,387003.7385,Mapping
Mixed,Both,done,41,m150tile.wav,None,720.9440446,231,390110.3396,382393.2364,383160.0239,383926.2239,384693.0432,385459.8848,386226.885,386993.5698,390876.8878,377043.6288,377792.7633,378559.8009,379326.6756,380093.3282,380859.7673,381626.6521,390120.0758,Mapping
Mixed,Both,done,41,m160depth.wav,None,720.025179,231,390110.3396,382393.2364,383160.0239,383926.2239,384693.0432,385459.8848,386226.885,386993.5698,390876.8878,391643.3024,377792.7633,378559.8009,379326.6756,380093.3282,380859.7673,381626.6521,390886.9882,Mapping
Mixed,Both,done,41,m150done.wav,None,719.2503889,231,390110.3396,382393.2364,383160.0239,383926.2239,384693.0432,385459.8848,386226.885,386993.5698,390876.8878,391643.3024,392393.3076,378559.8009,379326.6756,380093.3282,380859.7673,381626.6521,391653.6149,Mapping
Mixed,Both,done,41,m160park.wav,space,435.1208857,231,390110.3396,382393.2364,383160.0239,383926.2239,384693.0432,385459.8848,386226.885,386993.5698,390876.8878,391643.3024,392393.3076,393159.8384,379326.6756,380093.3282,380859.7673,381626.6521,392402.8892,Mapping
Mixed,Both,done,41,m160done.wav,None,733.2872045,231,390110.3396,382393.2364,383160.0239,383926.2239,384693.0432,385459.8848,386226.885,386993.5698,390876.8878,391643.3024,392393.3076,393159.8384,393926.0811,380093.3282,380859.7673,381626.6521,393169.5372,Mapping
Mixed,Both,done,41,m150cave.wav,space,422.9746698,231,390110.3396,382393.2364,383160.0239,383926.2239,384693.0432,385459.8848,386226.885,386993.5698,390876.8878,391643.3024,392393.3076,393159.8384,393926.0811,394693.025,380859.7673,381626.6521,393935.0147,Mapping
Mixed,Both,done,41,m160cad.wav,None,729.900511,231,390110.3396,382393.2364,383160.0239,383926.2239,384693.0432,385459.8848,386226.885,386993.5698,390876.8878,391643.3024,392393.3076,393159.8384,393926.0811,394693.025,395459.528,381626.6521,394702.8756,Mapping
Mixed,Both,done,41,m160knife.wav,None,729.1405611,231,390110.3396,382393.2364,383160.0239,383926.2239,384693.0432,385459.8848,386226.885,386993.5698,390876.8878,391643.3024,392393.3076,393159.8384,393926.0811,394693.025,395459.528,396226.1952,395469.8479,Mapping
Mixed,Both,done,41,m150done.wav,None,729.3285388,231,390110.3396,396993.0733,383160.0239,383926.2239,384693.0432,385459.8848,386226.885,386993.5698,390876.8878,391643.3024,392393.3076,393159.8384,393926.0811,394693.025,395459.528,396226.1952,396235.5672,Mapping
Mixed,Both,done,41,m150dime.wav,space,411.2770655,231,390110.3396,396993.0733,397759.384,383926.2239,384693.0432,385459.8848,386226.885,386993.5698,390876.8878,391643.3024,392393.3076,393159.8384,393926.0811,394693.025,395459.528,396226.1952,397002.6651,Mapping
Mixed,Both,done,41,m160done.wav,None,726.3777805,231,390110.3396,396993.0733,397759.384,398526.6466,384693.0432,385459.8848,386226.885,386993.5698,390876.8878,391643.3024,392393.3076,393159.8384,393926.0811,394693.025,395459.528,396226.1952,397768.8107,Mapping
Mixed,Both,done,41,m150knife.wav,space,541.5602722,231,390110.3396,396993.0733,397759.384,398526.6466,399293.2916,385459.8848,386226.885,386993.5698,390876.8878,391643.3024,392393.3076,393159.8384,393926.0811,394693.025,395459.528,396226.1952,398536.3461,Mapping
Mixed,Both,done,41,m160dime.wav,None,722.037903,231,390110.3396,396993.0733,397759.384,398526.6466,399293.2916,400059.9965,386226.885,386993.5698,390876.8878,391643.3024,392393.3076,393159.8384,393926.0811,394693.025,395459.528,396226.1952,399302.927,Mapping
Mixed,Both,done,41,m150reek.wav,None,721.031541,231,390110.3396,396993.0733,397759.384,398526.6466,399293.2916,400059.9965,400826.3057,386993.5698,390876.8878,391643.3024,392393.3076,393159.8384,393926.0811,394693.025,395459.528,396226.1952,400069.8944,Mapping
Mixed,Both,done,41,m150cad.wav,None,720.9616676,231,390110.3396,396993.0733,397759.384,398526.6466,399293.2916,400059.9965,400826.3057,401593.4344,390876.8878,391643.3024,392393.3076,393159.8384,393926.0811,394693.025,395459.528,396226.1952,400835.7889,Mapping
Mixed,Both,ball,11,m150done.wav,None,719.3468511,231,404709.8864,396993.0733,397759.384,398526.6466,399293.2916,400059.9965,400826.3057,401593.4344,390876.8878,391643.3024,392393.3076,393159.8384,393926.0811,394693.025,395459.528,396226.1952,401603.5293,Mapping
Mixed,Both,ball,11,m160ball.wav,None,721.1904563,231,404709.8864,396993.0733,397759.384,398526.6466,399293.2916,400059.9965,400826.3057,401593.4344,405476.6628,391643.3024,392393.3076,393159.8384,393926.0811,394693.025,395459.528,396226.1952,404719.6832,Mapping
Mixed,Both,ball,11,m150dime.wav,space,415.0146721,231,404709.8864,396993.0733,397759.384,398526.6466,399293.2916,400059.9965,400826.3057,401593.4344,405476.6628,406226.1204,392393.3076,393159.8384,393926.0811,394693.025,395459.528,396226.1952,405486.8136,Mapping
Mixed,Both,ball,11,m160knife.wav,None,734.8006121,231,404709.8864,396993.0733,397759.384,398526.6466,399293.2916,400059.9965,400826.3057,401593.4344,405476.6628,406226.1204,406992.6809,393159.8384,393926.0811,394693.025,395459.528,396226.1952,406236.2316,Mapping
Mixed,Both,ball,11,m150ball.wav,None,734.8049404,231,404709.8864,396993.0733,397759.384,398526.6466,399293.2916,400059.9965,400826.3057,401593.4344,405476.6628,406226.1204,406992.6809,407759.2937,393926.0811,394693.025,395459.528,396226.1952,407002.197,Mapping
Mixed,Both,ball,11,m150priest.wav,space,492.9630416,231,404709.8864,396993.0733,397759.384,398526.6466,399293.2916,400059.9965,400826.3057,401593.4344,405476.6628,406226.1204,406992.6809,407759.2937,408526.2481,394693.025,395459.528,396226.1952,407768.8184,Mapping
Mixed,Both,ball,11,m150ball.wav,None,731.1158744,231,404709.8864,396993.0733,397759.384,398526.6466,399293.2916,400059.9965,400826.3057,401593.4344,405476.6628,406226.1204,406992.6809,407759.2937,408526.2481,409292.902,395459.528,396226.1952,408536.1306,Mapping
Mixed,Both,ball,11,m160jaw.wav,space,662.7324256,231,404709.8864,396993.0733,397759.384,398526.6466,399293.2916,400059.9965,400826.3057,401593.4344,405476.6628,406226.1204,406992.6809,407759.2937,408526.2481,409292.902,410059.529,396226.1952,409303.0349,Mapping
Mixed,Both,ball,11,m160park.wav,None,728.1821207,231,404709.8864,396993.0733,397759.384,398526.6466,399293.2916,400059.9965,400826.3057,401593.4344,405476.6628,406226.1204,406992.6809,407759.2937,408526.2481,409292.902,410059.529,410825.7584,410069.3397,Mapping
Mixed,Both,ball,11,m150gnash.wav,None,728.7853197,231,404709.8864,411592.5681,397759.384,398526.6466,399293.2916,400059.9965,400826.3057,401593.4344,405476.6628,406226.1204,406992.6809,407759.2937,408526.2481,409292.902,410059.529,410825.7584,410834.7198,Mapping
Mixed,Both,ball,11,m160jaw.wav,None,728.2594144,231,404709.8864,411592.5681,412359.4669,398526.6466,399293.2916,400059.9965,400826.3057,401593.4344,405476.6628,406226.1204,406992.6809,407759.2937,408526.2481,409292.902,410059.529,410825.7584,411601.9741,Mapping
Mixed,Both,ball,11,m160cad.wav,None,728.0726735,231,404709.8864,411592.5681,412359.4669,413125.7588,399293.2916,400059.9965,400826.3057,401593.4344,405476.6628,406226.1204,406992.6809,407759.2937,408526.2481,409292.902,410059.529,410825.7584,412368.5334,Mapping
Mixed,Both,ball,11,m150cad.wav,None,727.7699914,231,404709.8864,411592.5681,412359.4669,413125.7588,413892.8631,400059.9965,400826.3057,401593.4344,405476.6628,406226.1204,406992.6809,407759.2937,408526.2481,409292.902,410059.529,410825.7584,413134.7362,Mapping
Mixed,Both,ball,11,m160ball.wav,None,726.0036799,231,404709.8864,411592.5681,412359.4669,413125.7588,413892.8631,414659.4645,400826.3057,401593.4344,405476.6628,406226.1204,406992.6809,407759.2937,408526.2481,409292.902,410059.529,410825.7584,413902.5208,Mapping
Mixed,Both,ball,11,m150jaw.wav,space,408.5260341,231,404709.8864,411592.5681,412359.4669,413125.7588,413892.8631,414659.4645,415426.5537,401593.4344,405476.6628,406226.1204,406992.6809,407759.2937,408526.2481,409292.902,410059.529,410825.7584,414669.179,Mapping
Mixed,Both,ball,11,m160cling.wav,None,721.4415059,231,404709.8864,411592.5681,412359.4669,413125.7588,413892.8631,414659.4645,415426.5537,416193.1229,405476.6628,406226.1204,406992.6809,407759.2937,408526.2481,409292.902,410059.529,410825.7584,415437.1231,Mapping
Mixed,Both,cave,19,m160jolt.wav,None,721.2099344,231,419309.8222,411592.5681,412359.4669,413125.7588,413892.8631,414659.4645,415426.5537,416193.1229,405476.6628,406226.1204,406992.6809,407759.2937,408526.2481,409292.902,410059.529,410825.7584,416203.4938,Mapping
Mixed,Both,cave,19,m150cave.wav,None,720.7594682,231,419309.8222,411592.5681,412359.4669,413125.7588,413892.8631,414659.4645,415426.5537,416193.1229,420076.3935,406226.1204,406992.6809,407759.2937,408526.2481,409292.902,410059.529,410825.7584,419319.7584,Mapping
Mixed,Both,cave,19,m160jolt.wav,None,720.4799741,231,419309.8222,411592.5681,412359.4669,413125.7588,413892.8631,414659.4645,415426.5537,416193.1229,420076.3935,420843.0975,406992.6809,407759.2937,408526.2481,409292.902,410059.529,410825.7584,420086.3486,Mapping
Mixed,Both,cave,19,m150lash.wav,None,725.480557,231,419309.8222,411592.5681,412359.4669,413125.7588,413892.8631,414659.4645,415426.5537,416193.1229,420076.3935,420843.0975,421609.6917,407759.2937,408526.2481,409292.902,410059.529,410825.7584,420848.3371,Mapping
Mixed,Both,cave,19,m150done.wav,None,719.9342819,231,419309.8222,411592.5681,412359.4669,413125.7588,413892.8631,414659.4645,415426.5537,416193.1229,420076.3935,420843.0975,421609.6917,422376.3469,408526.2481,409292.902,410059.529,410825.7584,421619.8605,Mapping
Mixed,Both,cave,19,m160cave.wav,None,718.2563939,231,419309.8222,411592.5681,412359.4669,413125.7588,413892.8631,414659.4645,415426.5537,416193.1229,420076.3935,420843.0975,421609.6917,422376.3469,423142.9714,409292.902,410059.529,410825.7584,422387.6138,Mapping
Mixed,Both,cave,19,m150romp.wav,space,420.7718042,231,419309.8222,411592.5681,412359.4669,413125.7588,413892.8631,414659.4645,415426.5537,416193.1229,420076.3935,420843.0975,421609.6917,422376.3469,423142.9714,423892.1866,410059.529,410825.7584,423152.8072,Mapping
Mixed,Both,cave,19,m150cad.wav,None,734.5928466,231,419309.8222,411592.5681,412359.4669,413125.7588,413892.8631,414659.4645,415426.5537,416193.1229,420076.3935,420843.0975,421609.6917,422376.3469,423142.9714,423892.1866,424659.2765,410825.7584,423901.4146,Mapping
Mixed,Both,cave,19,m160dime.wav,None,733.0290442,231,419309.8222,411592.5681,412359.4669,413125.7588,413892.8631,414659.4645,415426.5537,416193.1229,420076.3935,420843.0975,421609.6917,422376.3469,423142.9714,423892.1866,424659.2765,425425.9573,424669.0643,Mapping
Mixed,Both,cave,19,m150cave.wav,None,732.5170515,231,419309.8222,426192.5824,412359.4669,413125.7588,413892.8631,414659.4645,415426.5537,416193.1229,420076.3935,420843.0975,421609.6917,422376.3469,423142.9714,423892.1866,424659.2765,425425.9573,425435.4854,Mapping
Mixed,Both,cave,19,m160gnash.wav,space,675.0987736,231,419309.8222,426192.5824,426959.2805,413125.7588,413892.8631,414659.4645,415426.5537,416193.1229,420076.3935,420843.0975,421609.6917,422376.3469,423142.9714,423892.1866,424659.2765,425425.9573,426202.3965,Mapping
Mixed,Both,cave,19,m160cave.wav,None,729.8692842,231,419309.8222,426192.5824,426959.2805,427725.8949,413892.8631,414659.4645,415426.5537,416193.1229,420076.3935,420843.0975,421609.6917,422376.3469,423142.9714,423892.1866,424659.2765,425425.9573,426968.5493,Mapping
Mixed,Both,cave,19,m160tile.wav,None,728.7135916,231,419309.8222,426192.5824,426959.2805,427725.8949,428492.5732,414659.4645,415426.5537,416193.1229,420076.3935,420843.0975,421609.6917,422376.3469,423142.9714,423892.1866,424659.2765,425425.9573,427736.0463,Mapping
Mixed,Both,cave,19,m160tile.wav,None,728.9562928,231,419309.8222,426192.5824,426959.2805,427725.8949,428492.5732,429259.1117,415426.5537,416193.1229,420076.3935,420843.0975,421609.6917,422376.3469,423142.9714,423892.1866,424659.2765,425425.9573,428502.1492,Mapping
Mixed,Both,cave,19,m150ball.wav,None,728.1481116,231,419309.8222,426192.5824,426959.2805,427725.8949,428492.5732,429259.1117,430025.983,416193.1229,420076.3935,420843.0975,421609.6917,422376.3469,423142.9714,423892.1866,424659.2765,425425.9573,429269.0752,Mapping
Mixed,Both,cave,19,m150romp.wav,None,727.2400674,231,419309.8222,426192.5824,426959.2805,427725.8949,428492.5732,429259.1117,430025.983,430792.5367,420076.3935,420843.0975,421609.6917,422376.3469,423142.9714,423892.1866,424659.2765,425425.9573,430036.2488,Mapping
Mixed,Both,done,38,m160priest.wav,None,727.3853789,231,433926.228,426192.5824,426959.2805,427725.8949,428492.5732,429259.1117,430025.983,430792.5367,420076.3935,420843.0975,421609.6917,422376.3469,423142.9714,423892.1866,424659.2765,425425.9573,430802.2423,Mapping
Mixed,Both,done,38,m160done.wav,None,720.1757468,231,433926.228,426192.5824,426959.2805,427725.8949,428492.5732,429259.1117,430025.983,430792.5367,434692.8107,420843.0975,421609.6917,422376.3469,423142.9714,423892.1866,424659.2765,425425.9573,433936.1963,Mapping
Mixed,Both,done,38,m150jolt.wav,space,502.4695285,231,433926.228,426192.5824,426959.2805,427725.8949,428492.5732,429259.1117,430025.983,430792.5367,434692.8107,435442.282,421609.6917,422376.3469,423142.9714,423892.1866,424659.2765,425425.9573,434702.9149,Mapping
Mixed,Both,done,38,m150reek.wav,None,734.2308043,231,433926.228,426192.5824,426959.2805,427725.8949,428492.5732,429259.1117,430025.983,430792.5367,434692.8107,435442.282,436209.0163,422376.3469,423142.9714,423892.1866,424659.2765,425425.9573,435452.3338,Mapping
Mixed,Both,done,38,m160jolt.wav,None,733.7253043,231,433926.228,426192.5824,426959.2805,427725.8949,428492.5732,429259.1117,430025.983,430792.5367,434692.8107,435442.282,436209.0163,436975.7849,423142.9714,423892.1866,424659.2765,425425.9573,436218.8882,Mapping
Mixed,Both,done,38,m160gnash.wav,None,733.0599613,231,433926.228,426192.5824,426959.2805,427725.8949,428492.5732,429259.1117,430025.983,430792.5367,434692.8107,435442.282,436209.0163,436975.7849,437742.2848,423892.1866,424659.2765,425425.9573,436985.6512,Mapping
Mixed,Both,done,38,m150jolt.wav,None,733.454159,231,433926.228,426192.5824,426959.2805,427725.8949,428492.5732,429259.1117,430025.983,430792.5367,434692.8107,435442.282,436209.0163,436975.7849,437742.2848,438509.1063,424659.2765,425425.9573,437751.8346,Mapping
Mixed,Both,done,38,m160tile.wav,None,733.3348175,231,433926.228,426192.5824,426959.2805,427725.8949,428492.5732,429259.1117,430025.983,430792.5367,434692.8107,435442.282,436209.0163,436975.7849,437742.2848,438509.1063,439275.7398,425425.9573,438518.3657,Mapping
Mixed,Both,done,38,m150done.wav,None,732.4836608,231,433926.228,426192.5824,426959.2805,427725.8949,428492.5732,429259.1117,430025.983,430792.5367,434692.8107,435442.282,436209.0163,436975.7849,437742.2848,438509.1063,439275.7398,440042.4227,439285.4076,Mapping
Mixed,Both,done,38,m150bluff.wav,space,473.0556267,231,433926.228,440809.0522,426959.2805,427725.8949,428492.5732,429259.1117,430025.983,430792.5367,434692.8107,435442.282,436209.0163,436975.7849,437742.2848,438509.1063,439275.7398,440042.4227,440052.2353,Mapping
Mixed,Both,done,38,m160done.wav,None,729.1767341,231,433926.228,440809.0522,441575.6916,427725.8949,428492.5732,429259.1117,430025.983,430792.5367,434692.8107,435442.282,436209.0163,436975.7849,437742.2848,438509.1063,439275.7398,440042.4227,440818.9603,Mapping
Mixed,Both,done,38,m160priest.wav,space,667.7163127,231,433926.228,440809.0522,441575.6916,442342.3386,428492.5732,429259.1117,430025.983,430792.5367,434692.8107,435442.282,436209.0163,436975.7849,437742.2848,438509.1063,439275.7398,440042.4227,441585.5452,Mapping
Mixed,Both,done,38,m150done.wav,None,726.3119263,231,433926.228,440809.0522,441575.6916,442342.3386,443109.033,429259.1117,430025.983,430792.5367,434692.8107,435442.282,436209.0163,436975.7849,437742.2848,438509.1063,439275.7398,440042.4227,442352.0656,Mapping
Mixed,Both,done,38,m150reek.wav,space,598.4424423,231,433926.228,440809.0522,441575.6916,442342.3386,443109.033,443876.1872,430025.983,430792.5367,434692.8107,435442.282,436209.0163,436975.7849,437742.2848,438509.1063,439275.7398,440042.4227,443118.8196,Mapping
Mixed,Both,done,38,m160greet.wav,None,721.7463516,231,433926.228,440809.0522,441575.6916,442342.3386,443109.033,443876.1872,444642.6299,430792.5367,434692.8107,435442.282,436209.0163,436975.7849,437742.2848,438509.1063,439275.7398,440042.4227,443886.9044,Mapping
Mixed,Both,done,38,m150knife.wav,None,722.2592714,231,433926.228,440809.0522,441575.6916,442342.3386,443109.033,443876.1872,444642.6299,445409.2798,434692.8107,435442.282,436209.0163,436975.7849,437742.2848,438509.1063,439275.7398,440042.4227,444652.5723,Mapping
Mixed,Both,ball,5,m160tile.wav,None,722.0641826,231,448526.0237,440809.0522,441575.6916,442342.3386,443109.033,443876.1872,444642.6299,445409.2798,434692.8107,435442.282,436209.0163,436975.7849,437742.2848,438509.1063,439275.7398,440042.4227,445419.0438,Mapping
Mixed,Both,ball,5,m150ball.wav,None,719.9930251,231,448526.0237,440809.0522,441575.6916,442342.3386,443109.033,443876.1872,444642.6299,445409.2798,449292.0468,435442.282,436209.0163,436975.7849,437742.2848,438509.1063,439275.7398,440042.4227,448536.4574,Mapping
Mixed,Both,ball,5,m160park.wav,None,721.2764071,231,448526.0237,440809.0522,441575.6916,442342.3386,443109.033,443876.1872,444642.6299,445409.2798,449292.0468,450059.1778,436209.0163,436975.7849,437742.2848,438509.1063,439275.7398,440042.4227,449301.5292,Mapping
Mixed,Both,ball,5,m160reek.wav,None,719.0503529,231,448526.0237,440809.0522,441575.6916,442342.3386,443109.033,443876.1872,444642.6299,445409.2798,449292.0468,450059.1778,450825.9,436975.7849,437742.2848,438509.1063,439275.7398,440042.4227,450069.9525,Mapping
Mixed,Both,ball,5,m160park.wav,None,724.7252446,231,448526.0237,440809.0522,441575.6916,442342.3386,443109.033,443876.1872,444642.6299,445409.2798,449292.0468,450059.1778,450825.9,451592.1906,437742.2848,438509.1063,439275.7398,440042.4227,450830.5141,Mapping
Mixed,Both,ball,5,m150cling.wav,None,720.0740287,231,448526.0237,440809.0522,441575.6916,442342.3386,443109.033,443876.1872,444642.6299,445409.2798,449292.0468,450059.1778,450825.9,451592.1906,452341.9451,438509.1063,439275.7398,440042.4227,451601.5172,Mapping
Mixed,Both,ball,5,m160park.wav,None,736.6170101,231,448526.0237,440809.0522,441575.6916,442342.3386,443109.033,443876.1872,444642.6299,445409.2798,449292.0468,450059.1778,450825.9,451592.1906,452341.9451,453108.4512,439275.7398,440042.4227,452351.0966,Mapping
Mixed,Both,ball,5,m150ball.wav,None,735.9730005,231,448526.0237,440809.0522,441575.6916,442342.3386,443109.033,443876.1872,444642.6299,445409.2798,449292.0468,450059.1778,450825.9,451592.1906,452341.9451,453108.4512,453875.4421,440042.4227,453118.0142,Mapping
Mixed,Both,ball,5,m150reek.wav,space,407.551208,231,448526.0237,440809.0522,441575.6916,442342.3386,443109.033,443876.1872,444642.6299,445409.2798,449292.0468,450059.1778,450825.9,451592.1906,452341.9451,453108.4512,453875.4421,454642.0691,453885.5527,Mapping
Mixed,Both,ball,5,m160ball.wav,None,732.7059573,231,448526.0237,455408.4713,441575.6916,442342.3386,443109.033,443876.1872,444642.6299,445409.2798,449292.0468,450059.1778,450825.9,451592.1906,452341.9451,453108.4512,453875.4421,454642.0691,454651.9098,Mapping
Mixed,Both,ball,5,m150bluff.wav,space,547.3003993,231,448526.0237,455408.4713,456175.2727,442342.3386,443109.033,443876.1872,444642.6299,445409.2798,449292.0468,450059.1778,450825.9,451592.1906,452341.9451,453108.4512,453875.4421,454642.0691,455417.757,Mapping
Mixed,Both,ball,5,m160done.wav,None,730.3908607,231,448526.0237,455408.4713,456175.2727,456942.0747,443109.033,443876.1872,444642.6299,445409.2798,449292.0468,450059.1778,450825.9,451592.1906,452341.9451,453108.4512,453875.4421,454642.0691,456184.73,Mapping
Mixed,Both,ball,5,m150jaw.wav,None,729.7344841,231,448526.0237,455408.4713,456175.2727,456942.0747,457708.8244,443876.1872,444642.6299,445409.2798,449292.0468,450059.1778,450825.9,451592.1906,452341.9451,453108.4512,453875.4421,454642.0691,456951.9485,Mapping
