"Condition","Talker","Target","Trial","current_stimulus","response_response","response_time_response","subject_nr","time_Audio1","time_Audio10","time_Audio11","time_Audio12","time_Audio13","time_Audio14","time_Audio15","time_Audio16","time_Audio2","time_Audio3","time_Audio4","time_Audio5","time_Audio6","time_Audio7","time_Audio8","time_Audio9","time_response","title"
"Mixed","Both","ball","4","m160jaw.wav","NA","NA","187","350132.873985","NA","NA","NA","NA","NA","NA","NA","NA","NA","NA","NA","NA","NA","NA","NA","NA","Mapping"
"Mixed","Both","ball","4","m150ball.wav","None","716.502397787","187","350132.873985","NA","NA","NA","NA","NA","NA","NA","350882.282923","NA","NA","NA","NA","NA","NA","NA","350146.319618","Mapping"
"Mixed","Both","ball","4","m160priest.wav","space","555.989256594","187","350132.873985","NA","NA","NA","NA","NA","NA","NA","350882.282923","351649.012052","NA","NA","NA","NA","NA","NA","350891.430739","Mapping"
"Mixed","Both","ball","4","m150depth.wav","None","732.050717808","187","350132.873985","NA","NA","NA","NA","NA","NA","NA","350882.282923","351649.012052","352415.756641","NA","NA","NA","NA","NA","351658.29807","Mapping"
"Mixed","Both","ball","4","m160priest.wav","None","728.74689335","187","350132.873985","NA","NA","NA","NA","NA","NA","NA","350882.282923","351649.012052","352415.756641","353182.788452","NA","NA","NA","NA","352425.305765","Mapping"
"Mixed","Both","ball","4","m150cling.wav","None","725.941764656","187","350132.873985","NA","NA","NA","NA","NA","NA","NA","350882.282923","351649.012052","352415.756641","353182.788452","353949.688863","NA","NA","NA","353191.830531","Mapping"
"Mixed","Both","ball","4","m150done.wav","None","722.226430662","187","350132.873985","NA","NA","NA","NA","NA","NA","NA","350882.282923","351649.012052","352415.756641","353182.788452","353949.688863","354715.948978","NA","NA","353959.280653","Mapping"
"Mixed","Both","ball","4","m160tile.wav","None","719.930201303","187","350132.873985","NA","NA","NA","NA","NA","NA","NA","350882.282923","351649.012052","352415.756641","353182.788452","353949.688863","354715.948978","355465.073167","NA","354725.357427","Mapping"
"Mixed","Both","ball","4","m160ball.wav","None","734.938704874","187","350132.873985","NA","NA","NA","NA","NA","NA","NA","350882.282923","351649.012052","352415.756641","353182.788452","353949.688863","354715.948978","355465.073167","356231.891958","355473.962206","Mapping"
"Mixed","Both","ball","4","m160jolt.wav","space","390.585613903","187","350132.873985","356998.495563","NA","NA","NA","NA","NA","NA","350882.282923","351649.012052","352415.756641","353182.788452","353949.688863","354715.948978","355465.073167","356231.891958","356240.745751","Mapping"
"Mixed","Both","ball","4","m160knife.wav","None","728.846137878","187","350132.873985","356998.495563","357765.514698","NA","NA","NA","NA","NA","350882.282923","351649.012052","352415.756641","353182.788452","353949.688863","354715.948978","355465.073167","356231.891958","357007.374709","Mapping"
"Mixed","Both","ball","4","m160ball.wav","None","725.114108063","187","350132.873985","356998.495563","357765.514698","358532.553928","NA","NA","NA","NA","350882.282923","351649.012052","352415.756641","353182.788452","353949.688863","354715.948978","355465.073167","356231.891958","357774.637781","Mapping"
"Mixed","Both","ball","4","m150reek.wav","space","449.00976494","187","350132.873985","356998.495563","357765.514698","358532.553928","359281.95019","NA","NA","NA","350882.282923","351649.012052","352415.756641","353182.788452","353949.688863","354715.948978","355465.073167","356231.891958","358542.225793","Mapping"
"Mixed","Both","ball","4","m150reek.wav","None","736.001642421","187","350132.873985","356998.495563","357765.514698","358532.553928","359281.95019","360048.890177","NA","NA","350882.282923","351649.012052","352415.756641","353182.788452","353949.688863","354715.948978","355465.073167","356231.891958","359291.018549","Mapping"
"Mixed","Both","ball","4","m150ball.wav","None","732.246733736","187","350132.873985","356998.495563","357765.514698","358532.553928","359281.95019","360048.890177","360815.667847","NA","350882.282923","351649.012052","352415.756641","353182.788452","353949.688863","354715.948978","355465.073167","356231.891958","360058.569462","Mapping"
"Mixed","Both","ball","4","m150bluff.wav","space","366.156294011","187","350132.873985","356998.495563","357765.514698","358532.553928","359281.95019","360048.890177","360815.667847","361582.200033","350882.282923","351649.012052","352415.756641","353182.788452","353949.688863","354715.948978","355465.073167","356231.891958","360825.100721","Mapping"
"Mixed","Both","ball","10","m160tile.wav","None","726.9332828","187","364748.302098","356998.495563","357765.514698","358532.553928","359281.95019","360048.890177","360815.667847","361582.200033","350882.282923","351649.012052","352415.756641","353182.788452","353949.688863","354715.948978","355465.073167","356231.891958","361591.138849","Mapping"
"Mixed","Both","ball","10","m160ball.wav","None","725.609403569","187","364748.302098","356998.495563","357765.514698","358532.553928","359281.95019","360048.890177","360815.667847","361582.200033","365515.143149","351649.012052","352415.756641","353182.788452","353949.688863","354715.948978","355465.073167","356231.891958","364756.892166","Mapping"
"Mixed","Both","ball","10","m150reek.wav","space","402.90616639","187","364748.302098","356998.495563","357765.514698","358532.553928","359281.95019","360048.890177","360815.667847","361582.200033","365515.143149","366264.748412","352415.756641","353182.788452","353949.688863","354715.948978","355465.073167","356231.891958","365524.261285","Mapping"
"Mixed","Both","ball","10","m150ball.wav","None","736.353481188","187","364748.302098","356998.495563","357765.514698","358532.553928","359281.95019","360048.890177","360815.667847","361582.200033","365515.143149","366264.748412","367032.55903","353182.788452","353949.688863","354715.948978","355465.073167","356231.891958","366273.654455","Mapping"
"Mixed","Both","ball","10","m150jaw.wav","space","445.437886287","187","364748.302098","356998.495563","357765.514698","358532.553928","359281.95019","360048.890177","360815.667847","361582.200033","365515.143149","366264.748412","367032.55903","367798.978677","353949.688863","354715.948978","355465.073167","356231.891958","367041.673456","Mapping"
"Mixed","Both","ball","10","m150lash.wav","None","728.226245381","187","364748.302098","356998.495563","357765.514698","358532.553928","359281.95019","360048.890177","360815.667847","361582.200033","365515.143149","366264.748412","367032.55903","367798.978677","368565.136146","354715.948978","355465.073167","356231.891958","367808.612205","Mapping"
"Mixed","Both","ball","10","m160jaw.wav","None","726.635240484","187","364748.302098","356998.495563","357765.514698","358532.553928","359281.95019","360048.890177","360815.667847","361582.200033","365515.143149","366264.748412","367032.55903","367798.978677","368565.136146","369331.813335","355465.073167","356231.891958","368574.09413","Mapping"
"Mixed","Both","ball","10","m160cling.wav","None","723.963365424","187","364748.302098","356998.495563","357765.514698","358532.553928","359281.95019","360048.890177","360815.667847","361582.200033","365515.143149","366264.748412","367032.55903","367798.978677","368565.136146","369331.813335","370099.061258","356231.891958","369340.738547","Mapping"
"Mixed","Both","ball","10","m160jolt.wav","None","720.067164861","187","364748.302098","356998.495563","357765.514698","358532.553928","359281.95019","360048.890177","360815.667847","361582.200033","365515.143149","366264.748412","367032.55903","367798.978677","368565.136146","369331.813335","370099.061258","370848.174008","370108.581937","Mapping"
"Mixed","Both","ball","10","m160ball.wav","None","735.769762658","187","364748.302098","371615.233644","357765.514698","358532.553928","359281.95019","360048.890177","360815.667847","361582.200033","365515.143149","366264.748412","367032.55903","367798.978677","368565.136146","369331.813335","370099.061258","370848.174008","370856.951435","Mapping"
"Mixed","Both","ball","10","m160reek.wav","space","390.676201787","187","364748.302098","371615.233644","372381.9569","358532.553928","359281.95019","360048.890177","360815.667847","361582.200033","365515.143149","366264.748412","367032.55903","367798.978677","368565.136146","369331.813335","370099.061258","370848.174008","371624.346833","Mapping"
"Mixed","Both","ball","10","m150depth.wav","None","729.538376443","187","364748.302098","371615.233644","372381.9569","373148.606881","359281.95019","360048.890177","360815.667847","361582.200033","365515.143149","366264.748412","367032.55903","367798.978677","368565.136146","369331.813335","370099.061258","370848.174008","372390.892933","Mapping"
"Mixed","Both","ball","10","m150reek.wav","None","726.371515542","187","364748.302098","371615.233644","372381.9569","373148.606881","373915.480704","360048.890177","360815.667847","361582.200033","365515.143149","366264.748412","367032.55903","367798.978677","368565.136146","369331.813335","370099.061258","370848.174008","373157.710177","Mapping"
"Mixed","Both","ball","10","m150ball.wav","None","722.099978477","187","364748.302098","371615.233644","372381.9569","373148.606881","373915.480704","374682.301659","360815.667847","361582.200033","365515.143149","366264.748412","367032.55903","367798.978677","368565.136146","369331.813335","370099.061258","370848.174008","373925.744945","Mapping"
"Mixed","Both","ball","10","m150romp.wav","space","379.133838695","187","364748.302098","371615.233644","372381.9569","373148.606881","373915.480704","374682.301659","375431.547353","361582.200033","365515.143149","366264.748412","367032.55903","367798.978677","368565.136146","369331.813335","370099.061258","370848.174008","374691.862531","Mapping"
"Mixed","Both","ball","10","m160park.wav","None","734.95014431","187","364748.302098","371615.233644","372381.9569","373148.606881","373915.480704","374682.301659","375431.547353","376198.604207","365515.143149","366264.748412","367032.55903","367798.978677","368565.136146","369331.813335","370099.061258","370848.174008","375440.352297","Mapping"
"Mixed","Both","cave","17","m160bluff.wav","None","731.203583535","187","379332.218043","371615.233644","372381.9569","373148.606881","373915.480704","374682.301659","375431.547353","376198.604207","365515.143149","366264.748412","367032.55903","367798.978677","368565.136146","369331.813335","370099.061258","370848.174008","376207.822205","Mapping"
"Mixed","Both","cave","17","m160cave.wav","None","720.477128401","187","379332.218043","371615.233644","372381.9569","373148.606881","373915.480704","374682.301659","375431.547353","376198.604207","380081.545977","366264.748412","367032.55903","367798.978677","368565.136146","369331.813335","370099.061258","370848.174008","379341.929173","Mapping"
"Mixed","Both","cave","17","m160gnash.wav","space","500.138664152","187","379332.218043","371615.233644","372381.9569","373148.606881","373915.480704","374682.301659","375431.547353","376198.604207","380081.545977","380848.526156","367032.55903","367798.978677","368565.136146","369331.813335","370099.061258","370848.174008","380090.76274","Mapping"
"Mixed","Both","cave","17","m160cling.wav","None","731.714028399","187","379332.218043","371615.233644","372381.9569","373148.606881","373915.480704","374682.301659","375431.547353","376198.604207","380081.545977","380848.526156","381615.005474","367798.978677","368565.136146","369331.813335","370099.061258","370848.174008","380858.134332","Mapping"
"Mixed","Both","cave","17","m150dime.wav","None","729.372350499","187","379332.218043","371615.233644","372381.9569","373148.606881","373915.480704","374682.301659","375431.547353","376198.604207","380081.545977","380848.526156","381615.005474","382381.76212","368565.136146","369331.813335","370099.061258","370848.174008","381624.060848","Mapping"
"Mixed","Both","cave","17","m150cave.wav","None","726.480653509","187","379332.218043","371615.233644","372381.9569","373148.606881","373915.480704","374682.301659","375431.547353","376198.604207","380081.545977","380848.526156","381615.005474","382381.76212","383148.882973","369331.813335","370099.061258","370848.174008","382390.785649","Mapping"
"Mixed","Both","cave","17","m150reek.wav","None","722.782014869","187","379332.218043","371615.233644","372381.9569","373148.606881","373915.480704","374682.301659","375431.547353","376198.604207","380081.545977","380848.526156","381615.005474","382381.76212","383148.882973","383915.434019","370099.061258","370848.174008","383158.369952","Mapping"
"Mixed","Both","cave","17","m150lash.wav","space","33.7981954217","187","379332.218043","371615.233644","372381.9569","373148.606881","373915.480704","374682.301659","375431.547353","376198.604207","380081.545977","380848.526156","381615.005474","382381.76212","383148.882973","383915.434019","384664.83801","370848.174008","383925.041267","Mapping"
"Mixed","Both","cave","17","m160depth.wav","None","734.181539621","187","379332.218043","371615.233644","372381.9569","373148.606881","373915.480704","374682.301659","375431.547353","376198.604207","380081.545977","380848.526156","381615.005474","382381.76212","383148.882973","383915.434019","384664.83801","385431.76192","384674.482359","Mapping"
"Mixed","Both","cave","17","m150cad.wav","None","731.729486957","187","379332.218043","386198.344192","372381.9569","373148.606881","373915.480704","374682.301659","375431.547353","376198.604207","380081.545977","380848.526156","381615.005474","382381.76212","383148.882973","383915.434019","384664.83801","385431.76192","385440.783593","Mapping"
"Mixed","Both","cave","17","m150cave.wav","space","422.709018923","187","379332.218043","386198.344192","386964.585447","373148.606881","373915.480704","374682.301659","375431.547353","376198.604207","380081.545977","380848.526156","381615.005474","382381.76212","383148.882973","383915.434019","384664.83801","385431.76192","386208.05254","Mapping"
"Mixed","Both","cave","17","m160dime.wav","None","726.80064803","187","379332.218043","386198.344192","386964.585447","387731.921793","373915.480704","374682.301659","375431.547353","376198.604207","380081.545977","380848.526156","381615.005474","382381.76212","383148.882973","383915.434019","384664.83801","385431.76192","386973.173041","Mapping"
"Mixed","Both","cave","17","m160gnash.wav","None","721.987748519","187","379332.218043","386198.344192","386964.585447","387731.921793","388498.521998","374682.301659","375431.547353","376198.604207","380081.545977","380848.526156","381615.005474","382381.76212","383148.882973","383915.434019","384664.83801","385431.76192","387741.728148","Mapping"
"Mixed","Both","cave","17","m160cave.wav","None","719.650089741","187","379332.218043","386198.344192","386964.585447","387731.921793","388498.521998","389248.199916","375431.547353","376198.604207","380081.545977","380848.526156","381615.005474","382381.76212","383148.882973","383915.434019","384664.83801","385431.76192","388507.986717","Mapping"
"Mixed","Both","cave","17","m150park.wav","space","428.848270793","187","379332.218043","386198.344192","386964.585447","387731.921793","388498.521998","389248.199916","390014.558039","376198.604207","380081.545977","380848.526156","381615.005474","382381.76212","383148.882973","383915.434019","384664.83801","385431.76192","389257.857869","Mapping"
"Mixed","Both","cave","17","m150cling.wav","None","731.967241038","187","379332.218043","386198.344192","386964.585447","387731.921793","388498.521998","389248.199916","390014.558039","390781.255633","380081.545977","380848.526156","381615.005474","382381.76212","383148.882973","383915.434019","384664.83801","385431.76192","390023.320007","Mapping"
"Mixed","Both","done","42","m150dime.wav","None","729.146345053","187","393915.230892","386198.344192","386964.585447","387731.921793","388498.521998","389248.199916","390014.558039","390781.255633","380081.545977","380848.526156","381615.005474","382381.76212","383148.882973","383915.434019","384664.83801","385431.76192","390790.062431","Mapping"
"Mixed","Both","done","42","m160depth.wav","space","401.963497046","187","393915.230892","386198.344192","386964.585447","387731.921793","388498.521998","389248.199916","390014.558039","390781.255633","394664.646014","380848.526156","381615.005474","382381.76212","383148.882973","383915.434019","384664.83801","385431.76192","393924.688191","Mapping"
"Mixed","Both","done","42","m150cling.wav","None","734.611290507","187","393915.230892","386198.344192","386964.585447","387731.921793","388498.521998","389248.199916","390014.558039","390781.255633","394664.646014","395431.576415","381615.005474","382381.76212","383148.882973","383915.434019","384664.83801","385431.76192","394674.222963","Mapping"
"Mixed","Both","done","42","m150depth.wav","None","732.242714614","187","393915.230892","386198.344192","386964.585447","387731.921793","388498.521998","389248.199916","390014.558039","390781.255633","394664.646014","395431.576415","396197.568477","382381.76212","383148.882973","383915.434019","384664.83801","385431.76192","395440.572737","Mapping"
"Mixed","Both","done","42","m150done.wav","None","738.312094007","187","393915.230892","386198.344192","386964.585447","387731.921793","388498.521998","389248.199916","390014.558039","390781.255633","394664.646014","395431.576415","396197.568477","396964.545873","383148.882973","383915.434019","384664.83801","385431.76192","396200.733792","Mapping"
"Mixed","Both","done","42","m150reek.wav","space","481.29053833","187","393915.230892","386198.344192","386964.585447","387731.921793","388498.521998","389248.199916","390014.558039","390781.255633","394664.646014","395431.576415","396197.568477","396964.545873","397731.155971","383915.434019","384664.83801","385431.76192","396973.304749","Mapping"
"Mixed","Both","done","42","m160cave.wav","None","726.305970922","187","393915.230892","386198.344192","386964.585447","387731.921793","388498.521998","389248.199916","390014.558039","390781.255633","394664.646014","395431.576415","396197.568477","396964.545873","397731.155971","398497.995167","384664.83801","385431.76192","397740.002962","Mapping"
"Mixed","Both","done","42","m160done.wav","None","723.519701511","187","393915.230892","386198.344192","386964.585447","387731.921793","388498.521998","389248.199916","390014.558039","390781.255633","394664.646014","395431.576415","396197.568477","396964.545873","397731.155971","398497.995167","399265.394584","385431.76192","398506.925325","Mapping"
"Mixed","Both","done","42","m160cave.wav","None","719.635868445","187","393915.230892","386198.344192","386964.585447","387731.921793","388498.521998","389248.199916","390014.558039","390781.255633","394664.646014","395431.576415","396197.568477","396964.545873","397731.155971","398497.995167","399265.394584","400014.60627","399274.885274","Mapping"
"Mixed","Both","done","42","m150romp.wav","space","38.3520079777","187","393915.230892","400781.474837","386964.585447","387731.921793","388498.521998","389248.199916","390014.558039","390781.255633","394664.646014","395431.576415","396197.568477","396964.545873","397731.155971","398497.995167","399265.394584","400014.60627","400024.188474","Mapping"
"Mixed","Both","done","42","m150gnash.wav","None","731.551712379","187","393915.230892","400781.474837","401547.695995","387731.921793","388498.521998","389248.199916","390014.558039","390781.255633","394664.646014","395431.576415","396197.568477","396964.545873","397731.155971","398497.995167","399265.394584","400014.60627","400790.545051","Mapping"
"Mixed","Both","done","42","m160done.wav","None","729.656480718","187","393915.230892","400781.474837","401547.695995","402314.647111","388498.521998","389248.199916","390014.558039","390781.255633","394664.646014","395431.576415","396197.568477","396964.545873","397731.155971","398497.995167","399265.394584","400014.60627","401556.480842","Mapping"
"Mixed","Both","done","42","m160bluff.wav","space","514.88251565","187","393915.230892","400781.474837","401547.695995","402314.647111","403081.78806","389248.199916","390014.558039","390781.255633","394664.646014","395431.576415","396197.568477","396964.545873","397731.155971","398497.995167","399265.394584","400014.60627","402323.621482","Mapping"
"Mixed","Both","done","42","m160ball.wav","None","722.122548148","187","393915.230892","400781.474837","401547.695995","402314.647111","403081.78806","403848.315609","390014.558039","390781.255633","394664.646014","395431.576415","396197.568477","396964.545873","397731.155971","398497.995167","399265.394584","400014.60627","403091.608947","Mapping"
"Mixed","Both","done","42","m150done.wav","None","719.876404852","187","393915.230892","400781.474837","401547.695995","402314.647111","403081.78806","403848.315609","404597.961374","390781.255633","394664.646014","395431.576415","396197.568477","396964.545873","397731.155971","398497.995167","399265.394584","400014.60627","403857.601317","Mapping"
"Mixed","Both","done","42","m160jaw.wav","space","503.060041461","187","393915.230892","400781.474837","401547.695995","402314.647111","403081.78806","403848.315609","404597.961374","405364.593114","394664.646014","395431.576415","396197.568477","396964.545873","397731.155971","398497.995167","399265.394584","400014.60627","404607.405378","Mapping"
"Mixed","Both","ball","2","m160knife.wav","None","731.140821241","187","408498.283625","400781.474837","401547.695995","402314.647111","403081.78806","403848.315609","404597.961374","405364.593114","394664.646014","395431.576415","396197.568477","396964.545873","397731.155971","398497.995167","399265.394584","400014.60627","405373.642614","Mapping"
"Mixed","Both","ball","2","m160done.wav","None","720.106120687","187","408498.283625","400781.474837","401547.695995","402314.647111","403081.78806","403848.315609","404597.961374","405364.593114","409247.859517","395431.576415","396197.568477","396964.545873","397731.155971","398497.995167","399265.394584","400014.60627","408507.754837","Mapping"
"Mixed","Both","ball","2","m160ball.wav","None","734.675289597","187","408498.283625","400781.474837","401547.695995","402314.647111","403081.78806","403848.315609","404597.961374","405364.593114","409247.859517","410014.270198","396197.568477","396964.545873","397731.155971","398497.995167","399265.394584","400014.60627","409257.27044","Mapping"
"Mixed","Both","ball","2","m150tile.wav","None","733.348627109","187","408498.283625","400781.474837","401547.695995","402314.647111","403081.78806","403848.315609","404597.961374","405364.593114","409247.859517","410014.270198","410780.938421","396964.545873","397731.155971","398497.995167","399265.394584","400014.60627","410022.991047","Mapping"
"Mixed","Both","ball","2","m160tile.wav","space","472.348012961","187","408498.283625","400781.474837","401547.695995","402314.647111","403081.78806","403848.315609","404597.961374","405364.593114","409247.859517","410014.270198","410780.938421","411547.521003","397731.155971","398497.995167","399265.394584","400014.60627","410789.968133","Mapping"
"Mixed","Both","ball","2","m150ball.wav","None","727.874096949","187","408498.283625","400781.474837","401547.695995","402314.647111","403081.78806","403848.315609","404597.961374","405364.593114","409247.859517","410014.270198","410780.938421","411547.521003","412314.857349","398497.995167","399265.394584","400014.60627","411556.233813","Mapping"
"Mixed","Both","ball","2","m150cling.wav","space","625.96009858","187","408498.283625","400781.474837","401547.695995","402314.647111","403081.78806","403848.315609","404597.961374","405364.593114","409247.859517","410014.270198","410780.938421","411547.521003","412314.857349","413081.674284","399265.394584","400014.60627","412324.367517","Mapping"
"Mixed","Both","ball","2","m150jolt.wav","None","720.629860181","187","408498.283625","400781.474837","401547.695995","402314.647111","403081.78806","403848.315609","404597.961374","405364.593114","409247.859517","410014.270198","410780.938421","411547.521003","412314.857349","413081.674284","413830.917196","400014.60627","413091.152607","Mapping"
"Mixed","Both","ball","2","m150ball.wav","None","735.527370591","187","408498.283625","400781.474837","401547.695995","402314.647111","403081.78806","403848.315609","404597.961374","405364.593114","409247.859517","410014.270198","410780.938421","411547.521003","412314.857349","413081.674284","413830.917196","414597.834922","413840.406031","Mapping"
"Mixed","Both","ball","2","m150greet.wav","space","383.056319319","187","408498.283625","415364.483976","401547.695995","402314.647111","403081.78806","403848.315609","404597.961374","405364.593114","409247.859517","410014.270198","410780.938421","411547.521003","412314.857349","413081.674284","413830.917196","414597.834922","414607.200397","Mapping"
"Mixed","Both","ball","2","m160ball.wav","None","729.704402853","187","408498.283625","415364.483976","416131.175696","402314.647111","403081.78806","403848.315609","404597.961374","405364.593114","409247.859517","410014.270198","410780.938421","411547.521003","412314.857349","413081.674284","413830.917196","414597.834922","415373.830591","Mapping"
"Mixed","Both","ball","2","m160greet.wav","space","394.048044924","187","408498.283625","415364.483976","416131.175696","416897.42468","403081.78806","403848.315609","404597.961374","405364.593114","409247.859517","410014.270198","410780.938421","411547.521003","412314.857349","413081.674284","413830.917196","414597.834922","416140.191187","Mapping"
"Mixed","Both","ball","2","m160reek.wav","None","725.231284741","187","408498.283625","415364.483976","416131.175696","416897.42468","417664.542132","403848.315609","404597.961374","405364.593114","409247.859517","410014.270198","410780.938421","411547.521003","412314.857349","413081.674284","413830.917196","414597.834922","416906.219421","Mapping"
"Mixed","Both","ball","2","m150greet.wav","None","721.11588018","187","408498.283625","415364.483976","416131.175696","416897.42468","417664.542132","418414.81119","404597.961374","405364.593114","409247.859517","410014.270198","410780.938421","411547.521003","412314.857349","413081.674284","413830.917196","414597.834922","417674.305203","Mapping"
"Mixed","Both","ball","2","m150reek.wav","None","735.381441191","187","408498.283625","415364.483976","416131.175696","416897.42468","417664.542132","418414.81119","419181.109332","405364.593114","409247.859517","410014.270198","410780.938421","411547.521003","412314.857349","413081.674284","413830.917196","414597.834922","418424.291986","Mapping"
"Mixed","Both","ball","2","m160lash.wav","None","733.663984109","187","408498.283625","415364.483976","416131.175696","416897.42468","417664.542132","418414.81119","419181.109332","419947.778792","409247.859517","410014.270198","410780.938421","411547.521003","412314.857349","413081.674284","413830.917196","414597.834922","419190.141827","Mapping"
"Mixed","Both","tile","35","m160bluff.wav","None","731.110831257","187","423081.456626","415364.483976","416131.175696","416897.42468","417664.542132","418414.81119","419181.109332","419947.778792","409247.859517","410014.270198","410780.938421","411547.521003","412314.857349","413081.674284","413830.917196","414597.834922","419956.947941","Mapping"
"Mixed","Both","tile","35","m150cling.wav","None","720.715501346","187","423081.456626","415364.483976","416131.175696","416897.42468","417664.542132","418414.81119","419181.109332","419947.778792","423830.668621","410014.270198","410780.938421","411547.521003","412314.857349","413081.674284","413830.917196","414597.834922","423091.006059","Mapping"
"Mixed","Both","tile","35","m150tile.wav","None","736.088829581","187","423081.456626","415364.483976","416131.175696","416897.42468","417664.542132","418414.81119","419181.109332","419947.778792","423830.668621","424597.68961","410780.938421","411547.521003","412314.857349","413081.674284","413830.917196","414597.834922","423839.855393","Mapping"
"Mixed","Both","tile","35","m160jolt.wav","space","366.914386395","187","423081.456626","415364.483976","416131.175696","416897.42468","417664.542132","418414.81119","419181.109332","419947.778792","423830.668621","424597.68961","425364.231382","411547.521003","412314.857349","413081.674284","413830.917196","414597.834922","424607.203797","Mapping"
"Mixed","Both","tile","35","m150gnash.wav","None","731.530688703","187","423081.456626","415364.483976","416131.175696","416897.42468","417664.542132","418414.81119","419181.109332","419947.778792","423830.668621","424597.68961","425364.231382","426131.014926","412314.857349","413081.674284","413830.917196","414597.834922","425373.245017","Mapping"
"Mixed","Both","tile","35","m160tile.wav","None","729.005052708","187","423081.456626","415364.483976","416131.175696","416897.42468","417664.542132","418414.81119","419181.109332","419947.778792","423830.668621","424597.68961","425364.231382","426131.014926","426897.235466","413081.674284","413830.917196","414597.834922","426140.056078","Mapping"
"Mixed","Both","tile","35","m150cling.wav","space","404.064947274","187","423081.456626","415364.483976","416131.175696","416897.42468","417664.542132","418414.81119","419181.109332","419947.778792","423830.668621","424597.68961","425364.231382","426131.014926","426897.235466","427664.586034","413830.917196","414597.834922","426906.017531","Mapping"
"Mixed","Both","tile","35","m160greet.wav","None","722.703484353","187","423081.456626","415364.483976","416131.175696","416897.42468","417664.542132","418414.81119","419181.109332","419947.778792","423830.668621","424597.68961","425364.231382","426131.014926","426897.235466","427664.586034","428430.615505","414597.834922","427674.418051","Mapping"
"Mixed","Both","tile","35","m150dime.wav","None","725.463164505","187","423081.456626","415364.483976","416131.175696","416897.42468","417664.542132","418414.81119","419181.109332","419947.778792","423830.668621","424597.68961","425364.231382","426131.014926","426897.235466","427664.586034","428430.615505","429197.702039","428439.327697","Mapping"
"Mixed","Both","tile","35","m160bluff.wav","None","722.195513081","187","423081.456626","429947.497444","416131.175696","416897.42468","417664.542132","418414.81119","419181.109332","419947.778792","423830.668621","424597.68961","425364.231382","426131.014926","426897.235466","427664.586034","428430.615505","429197.702039","429206.930241","Mapping"
"Mixed","Both","tile","35","m160tile.wav","None","736.786324065","187","423081.456626","429947.497444","430714.080335","416897.42468","417664.542132","418414.81119","419181.109332","419947.778792","423830.668621","424597.68961","425364.231382","426131.014926","426897.235466","427664.586034","428430.615505","429197.702039","429956.377826","Mapping"
"Mixed","Both","tile","35","m150reek.wav","space","370.921889786","187","423081.456626","429947.497444","430714.080335","431480.8747","417664.542132","418414.81119","419181.109332","419947.778792","423830.668621","424597.68961","425364.231382","426131.014926","426897.235466","427664.586034","428430.615505","429197.702039","430723.063053","Mapping"
"Mixed","Both","tile","35","m150tile.wav","None","731.250577606","187","423081.456626","429947.497444","430714.080335","431480.8747","432247.455118","418414.81119","419181.109332","419947.778792","423830.668621","424597.68961","425364.231382","426131.014926","426897.235466","427664.586034","428430.615505","429197.702039","431489.883699","Mapping"
"Mixed","Both","tile","35","m160park.wav","space","485.103262123","187","423081.456626","429947.497444","430714.080335","431480.8747","432247.455118","433013.789434","419181.109332","419947.778792","423830.668621","424597.68961","425364.231382","426131.014926","426897.235466","427664.586034","428430.615505","429197.702039","432256.850583","Mapping"
"Mixed","Both","tile","35","m160priest.wav","None","726.560729556","187","423081.456626","429947.497444","430714.080335","431480.8747","432247.455118","433013.789434","433781.191016","419947.778792","423830.668621","424597.68961","425364.231382","426131.014926","426897.235466","427664.586034","428430.615505","429197.702039","433022.507191","Mapping"
"Mixed","Both","tile","35","m150gnash.wav","None","722.624954768","187","423081.456626","429947.497444","430714.080335","431480.8747","432247.455118","433013.789434","433781.191016","434547.846562","423830.668621","424597.68961","425364.231382","426131.014926","426897.235466","427664.586034","428430.615505","429197.702039","433790.751887","Mapping"
"Mixed","Both","done","44","m150reek.wav","None","720.625222661","187","437664.306232","429947.497444","430714.080335","431480.8747","432247.455118","433013.789434","433781.191016","434547.846562","423830.668621","424597.68961","425364.231382","426131.014926","426897.235466","427664.586034","428430.615505","429197.702039","434557.070745","Mapping"
"Mixed","Both","done","44","m150done.wav","None","720.342019573","187","437664.306232","429947.497444","430714.080335","431480.8747","432247.455118","433013.789434","433781.191016","434547.846562","438413.792464","424597.68961","425364.231382","426131.014926","426897.235466","427664.586034","428430.615505","429197.702039","437673.93234","Mapping"
"Mixed","Both","done","44","m150park.wav","space","479.01749704","187","437664.306232","429947.497444","430714.080335","431480.8747","432247.455118","433013.789434","433781.191016","434547.846562","438413.792464","439180.433789","425364.231382","426131.014926","426897.235466","427664.586034","428430.615505","429197.702039","438422.850311","Mapping"
"Mixed","Both","done","44","m150done.wav","None","733.057694975","187","437664.306232","429947.497444","430714.080335","431480.8747","432247.455118","433013.789434","433781.191016","434547.846562","438413.792464","439180.433789","439947.40191","426131.014926","426897.235466","427664.586034","428430.615505","429197.702039","439189.270886","Mapping"
"Mixed","Both","done","44","m160priest.wav","space","472.658731509","187","437664.306232","429947.497444","430714.080335","431480.8747","432247.455118","433013.789434","433781.191016","434547.846562","438413.792464","439180.433789","439947.40191","440714.165667","426897.235466","427664.586034","428430.615505","429197.702039","439957.170855","Mapping"
"Mixed","Both","done","44","m150knife.wav","None","726.914732717","187","437664.306232","429947.497444","430714.080335","431480.8747","432247.455118","433013.789434","433781.191016","434547.846562","438413.792464","439180.433789","439947.40191","440714.165667","441481.094832","427664.586034","428430.615505","429197.702039","440723.208055","Mapping"
"Mixed","Both","done","44","m160done.wav","None","723.707679193","187","437664.306232","429947.497444","430714.080335","431480.8747","432247.455118","433013.789434","433781.191016","434547.846562","438413.792464","439180.433789","439947.40191","440714.165667","441481.094832","442247.627328","428430.615505","429197.702039","441490.665597","Mapping"
"Mixed","Both","done","44","m150cad.wav","space","388.770149555","187","437664.306232","429947.497444","430714.080335","431480.8747","432247.455118","433013.789434","433781.191016","434547.846562","438413.792464","439180.433789","439947.40191","440714.165667","441481.094832","442247.627328","442997.138602","429197.702039","442257.042888","Mapping"
"Mixed","Both","done","44","m160jaw.wav","None","735.634963028","187","437664.306232","429947.497444","430714.080335","431480.8747","432247.455118","433013.789434","433781.191016","434547.846562","438413.792464","439180.433789","439947.40191","440714.165667","441481.094832","442247.627328","442997.138602","443763.614519","443006.656808","Mapping"
"Mixed","Both","done","44","m160romp.wav","None","734.356841072","187","437664.306232","444530.667972","430714.080335","431480.8747","432247.455118","433013.789434","433781.191016","434547.846562","438413.792464","439180.433789","439947.40191","440714.165667","441481.094832","442247.627328","442997.138602","443763.614519","443772.350517","Mapping"
"Mixed","Both","done","44","m160lash.wav","None","731.257379521","187","437664.306232","444530.667972","445297.233549","431480.8747","432247.455118","433013.789434","433781.191016","434547.846562","438413.792464","439180.433789","439947.40191","440714.165667","441481.094832","442247.627328","442997.138602","443763.614519","444539.719636","Mapping"
"Mixed","Both","done","44","m160done.wav","None","728.810891975","187","437664.306232","444530.667972","445297.233549","446063.95124","432247.455118","433013.789434","433781.191016","434547.846562","438413.792464","439180.433789","439947.40191","440714.165667","441481.094832","442247.627328","442997.138602","443763.614519","445306.381675","Mapping"
"Mixed","Both","done","44","m150reek.wav","space","452.371404972","187","437664.306232","444530.667972","445297.233549","446063.95124","446830.883806","433013.789434","433781.191016","434547.846562","438413.792464","439180.433789","439947.40191","440714.165667","441481.094832","442247.627328","442997.138602","443763.614519","446073.384114","Mapping"
"Mixed","Both","done","44","m160cad.wav","None","722.053911537","187","437664.306232","444530.667972","445297.233549","446063.95124","446830.883806","447597.094761","433781.191016","434547.846562","438413.792464","439180.433789","439947.40191","440714.165667","441481.094832","442247.627328","442997.138602","443763.614519","446841.381163","Mapping"
"Mixed","Both","done","44","m150cad.wav","None","721.675792709","187","437664.306232","444530.667972","445297.233549","446063.95124","446830.883806","447597.094761","448346.967768","434547.846562","438413.792464","439180.433789","439947.40191","440714.165667","441481.094832","442247.627328","442997.138602","443763.614519","447606.131276","Mapping"
"Mixed","Both","done","44","m160cave.wav","None","735.591369681","187","437664.306232","444530.667972","445297.233549","446063.95124","446830.883806","447597.094761","448346.967768","449113.464709","438413.792464","439180.433789","439947.40191","440714.165667","441481.094832","442247.627328","442997.138602","443763.614519","448356.545954","Mapping"
"Mixed","Both","done","48","m150lash.wav","None","734.124033712","187","452247.536431","444530.667972","445297.233549","446063.95124","446830.883806","447597.094761","448346.967768","449113.464709","438413.792464","439180.433789","439947.40191","440714.165667","441481.094832","442247.627328","442997.138602","443763.614519","449122.286348","Mapping"
"Mixed","Both","done","48","m160greet.wav","None","720.456413459","187","452247.536431","444530.667972","445297.233549","446063.95124","446830.883806","447597.094761","448346.967768","449113.464709","452996.665567","439180.433789","439947.40191","440714.165667","441481.094832","442247.627328","442997.138602","443763.614519","452256.747319","Mapping"
"Mixed","Both","done","48","m160done.wav","None","736.261966173","187","452247.536431","444530.667972","445297.233549","446063.95124","446830.883806","447597.094761","448346.967768","449113.464709","452996.665567","453763.694286","439947.40191","440714.165667","441481.094832","442247.627328","442997.138602","443763.614519","453005.348696","Mapping"
"Mixed","Both","done","48","m160priest.wav","space","336.299747229","187","452247.536431","444530.667972","445297.233549","446063.95124","446830.883806","447597.094761","448346.967768","449113.464709","452996.665567","453763.694286","454530.511221","440714.165667","441481.094832","442247.627328","442997.138602","443763.614519","453773.293495","Mapping"
"Mixed","Both","done","48","m150romp.wav","None","729.927935172","187","452247.536431","444530.667972","445297.233549","446063.95124","446830.883806","447597.094761","448346.967768","449113.464709","452996.665567","453763.694286","454530.511221","455297.052992","441481.094832","442247.627328","442997.138602","443763.614519","454539.544643","Mapping"
"Mixed","Both","done","48","m160tile.wav","None","727.296561468","187","452247.536431","444530.667972","445297.233549","446063.95124","446830.883806","447597.094761","448346.967768","449113.464709","452996.665567","453763.694286","454530.511221","455297.052992","456063.731727","442247.627328","442997.138602","443763.614519","455306.528842","Mapping"
"Mixed","Both","done","48","m150reek.wav","None","725.368866697","187","452247.536431","444530.667972","445297.233549","446063.95124","446830.883806","447597.094761","448346.967768","449113.464709","452996.665567","453763.694286","454530.511221","455297.052992","456063.731727","456830.805894","442997.138602","443763.614519","456072.866867","Mapping"
"Mixed","Both","done","48","m150lash.wav","None","722.200459801","187","452247.536431","444530.667972","445297.233549","446063.95124","446830.883806","447597.094761","448346.967768","449113.464709","452996.665567","453763.694286","454530.511221","455297.052992","456063.731727","456830.805894","457597.253986","443763.614519","456840.500638","Mapping"
"Mixed","Both","done","48","m160priest.wav","None","720.668197144","187","452247.536431","444530.667972","445297.233549","446063.95124","446830.883806","447597.094761","448346.967768","449113.464709","452996.665567","453763.694286","454530.511221","455297.052992","456063.731727","456830.805894","457597.253986","458346.886456","457606.46642","Mapping"
"Mixed","Both","done","48","m160knife.wav","None","735.762960743","187","452247.536431","459113.612494","445297.233549","446063.95124","446830.883806","447597.094761","448346.967768","449113.464709","452996.665567","453763.694286","454530.511221","455297.052992","456063.731727","456830.805894","457597.253986","458346.886456","458355.997481","Mapping"
"Mixed","Both","done","48","m150done.wav","None","732.898470946","187","452247.536431","459113.612494","459880.327093","446063.95124","446830.883806","447597.094761","448346.967768","449113.464709","452996.665567","453763.694286","454530.511221","455297.052992","456063.731727","456830.805894","457597.253986","458346.886456","459123.207375","Mapping"
"Mixed","Both","done","48","m150park.wav","space","372.381805442","187","452247.536431","459113.612494","459880.327093","460647.028088","446830.883806","447597.094761","448346.967768","449113.464709","452996.665567","453763.694286","454530.511221","455297.052992","456063.731727","456830.805894","457597.253986","458346.886456","459889.042376","Mapping"
"Mixed","Both","done","48","m150done.wav","None","727.626758628","187","452247.536431","459113.612494","459880.327093","460647.028088","461413.906549","447597.094761","448346.967768","449113.464709","452996.665567","453763.694286","454530.511221","455297.052992","456063.731727","456830.805894","457597.253986","458346.886456","460656.513831","Mapping"
"Mixed","Both","done","48","m160romp.wav","space","430.444841739","187","452247.536431","459113.612494","459880.327093","460647.028088","461413.906549","462180.670615","448346.967768","449113.464709","452996.665567","453763.694286","454530.511221","455297.052992","456063.731727","456830.805894","457597.253986","458346.886456","461423.012936","Mapping"
"Mixed","Both","done","48","m160done.wav","None","721.705473959","187","452247.536431","459113.612494","459880.327093","460647.028088","461413.906549","462180.670615","462947.296172","449113.464709","452996.665567","453763.694286","454530.511221","455297.052992","456063.731727","456830.805894","457597.253986","458346.886456","462190.336915","Mapping"
"Mixed","Both","done","48","m150romp.wav","space","424.536850769","187","452247.536431","459113.612494","459880.327093","460647.028088","461413.906549","462180.670615","462947.296172","463696.933589","452996.665567","453763.694286","454530.511221","455297.052992","456063.731727","456830.805894","457597.253986","458346.886456","462956.823963","Mapping"
"Mixed","Both","done","39","m150tile.wav","None","733.745296486","187","466830.587618","459113.612494","459880.327093","460647.028088","461413.906549","462180.670615","462947.296172","463696.933589","452996.665567","453763.694286","454530.511221","455297.052992","456063.731727","456830.805894","457597.253986","458346.886456","463706.30061","Mapping"
"Mixed","Both","done","39","m160cad.wav","None","720.636971295","187","466830.587618","459113.612494","459880.327093","460647.028088","461413.906549","462180.670615","462947.296172","463696.933589","467579.94276","453763.694286","454530.511221","455297.052992","456063.731727","456830.805894","457597.253986","458346.886456","466839.967005","Mapping"
"Mixed","Both","done","39","m150done.wav","None","735.488723963","187","466830.587618","459113.612494","459880.327093","460647.028088","461413.906549","462180.670615","462947.296172","463696.933589","467579.94276","468346.834206","454530.511221","455297.052992","456063.731727","456830.805894","457597.253986","458346.886456","467589.459729","Mapping"
"Mixed","Both","done","39","m150reek.wav","space","385.045539588","187","466830.587618","459113.612494","459880.327093","460647.028088","461413.906549","462180.670615","462947.296172","463696.933589","467579.94276","468346.834206","469113.43843","455297.052992","456063.731727","456830.805894","457597.253986","458346.886456","468356.310364","Mapping"
"Mixed","Both","done","39","m160reek.wav","None","730.572870001","187","466830.587618","459113.612494","459880.327093","460647.028088","461413.906549","462180.670615","462947.296172","463696.933589","467579.94276","468346.834206","469113.43843","469880.235268","456063.731727","456830.805894","457597.253986","458346.886456","469122.425785","Mapping"
"Mixed","Both","done","39","m160romp.wav","None","727.738060988","187","466830.587618","459113.612494","459880.327093","460647.028088","461413.906549","462180.670615","462947.296172","463696.933589","467579.94276","468346.834206","469113.43843","469880.235268","470646.783223","456830.805894","457597.253986","458346.886456","469889.576627","Mapping"
"Mixed","Both","done","39","m150depth.wav","None","725.923832972","187","466830.587618","459113.612494","459880.327093","460647.028088","461413.906549","462180.670615","462947.296172","463696.933589","467579.94276","468346.834206","469113.43843","469880.235268","470646.783223","471413.248319","457597.253986","458346.886456","470655.866731","Mapping"
"Mixed","Both","done","39","m160done.wav","None","724.228326697","187","466830.587618","459113.612494","459880.327093","460647.028088","461413.906549","462180.670615","462947.296172","463696.933589","467579.94276","468346.834206","469113.43843","469880.235268","470646.783223","471413.248319","472180.432243","458346.886456","471422.015234","Mapping"
"Mixed","Both","done","39","m160cave.wav","space","423.785560299","187","466830.587618","459113.612494","459880.327093","460647.028088","461413.906549","462180.670615","462947.296172","463696.933589","467579.94276","468346.834206","469113.43843","469880.235268","470646.783223","471413.248319","472180.432243","472929.985255","472189.453298","Mapping"
"Mixed","Both","done","39","m150done.wav","None","735.015379731","187","466830.587618","473696.376459","459880.327093","460647.028088","461413.906549","462180.670615","462947.296172","463696.933589","467579.94276","468346.834206","469113.43843","469880.235268","470646.783223","471413.248319","472180.432243","472929.985255","472939.300335","Mapping"
"Mixed","Both","done","39","m150gnash.wav","space","563.98602156","187","466830.587618","473696.376459","474463.273161","460647.028088","461413.906549","462180.670615","462947.296172","463696.933589","467579.94276","468346.834206","469113.43843","469880.235268","470646.783223","471413.248319","472180.432243","472929.985255","473705.235508","Mapping"
"Mixed","Both","done","39","m150jaw.wav","None","730.265242513","187","466830.587618","473696.376459","474463.273161","475229.831937","461413.906549","462180.670615","462947.296172","463696.933589","467579.94276","468346.834206","469113.43843","469880.235268","470646.783223","471413.248319","472180.432243","472929.985255","474472.202392","Mapping"
"Mixed","Both","done","39","m160done.wav","None","728.128546849","187","466830.587618","473696.376459","474463.273161","475229.831937","475996.710707","462180.670615","462947.296172","463696.933589","467579.94276","468346.834206","469113.43843","469880.235268","470646.783223","471413.248319","472180.432243","472929.985255","475238.665633","Mapping"
"Mixed","Both","done","39","m160greet.wav","space","686.837538611","187","466830.587618","473696.376459","474463.273161","475229.831937","475996.710707","476763.628432","462947.296172","463696.933589","467579.94276","468346.834206","469113.43843","469880.235268","470646.783223","471413.248319","472180.432243","472929.985255","476006.370823","Mapping"
"Mixed","Both","done","39","m160tile.wav","None","722.025158815","187","466830.587618","473696.376459","474463.273161","475229.831937","475996.710707","476763.628432","477530.360344","463696.933589","467579.94276","468346.834206","469113.43843","469880.235268","470646.783223","471413.248319","472180.432243","472929.985255","476773.150967","Mapping"
"Mixed","Both","done","39","m150cave.wav","None","719.896192197","187","466830.587618","473696.376459","474463.273161","475229.831937","475996.710707","476763.628432","477530.360344","478279.634483","467579.94276","468346.834206","469113.43843","469880.235268","470646.783223","471413.248319","472180.432243","472929.985255","477539.795692","Mapping"
"Mixed","Both","done","43","m160lash.wav","None","735.381131992","187","481413.495039","473696.376459","474463.273161","475229.831937","475996.710707","476763.628432","477530.360344","478279.634483","467579.94276","468346.834206","469113.43843","469880.235268","470646.783223","471413.248319","472180.432243","472929.985255","478288.690475","Mapping"
"Mixed","Both","done","43","m160depth.wav","None","720.700351521","187","481413.495039","473696.376459","474463.273161","475229.831937","475996.710707","476763.628432","477530.360344","478279.634483","482163.20573","468346.834206","469113.43843","469880.235268","470646.783223","471413.248319","472180.432243","472929.985255","481422.977381","Mapping"
"Mixed","Both","done","43","m150jolt.wav","None","736.227029935","187","481413.495039","473696.376459","474463.273161","475229.831937","475996.710707","476763.628432","477530.360344","478279.634483","482163.20573","482930.025448","469113.43843","469880.235268","470646.783223","471413.248319","472180.432243","472929.985255","482172.123522","Mapping"
"Mixed","Both","done","43","m150priest.wav","None","733.915650751","187","481413.495039","473696.376459","474463.273161","475229.831937","475996.710707","476763.628432","477530.360344","478279.634483","482163.20573","482930.025448","483696.205487","469880.235268","470646.783223","471413.248319","472180.432243","472929.985255","482939.054542","Mapping"
"Mixed","Both","done","43","m160done.wav","None","732.593935449","187","481413.495039","473696.376459","474463.273161","475229.831937","475996.710707","476763.628432","477530.360344","478279.634483","482163.20573","482930.025448","483696.205487","484463.186902","470646.783223","471413.248319","472180.432243","472929.985255","483705.014449","Mapping"
"Mixed","Both","done","43","m160bluff.wav","space","348.489518743","187","481413.495039","473696.376459","474463.273161","475229.831937","475996.710707","476763.628432","477530.360344","478279.634483","482163.20573","482930.025448","483696.205487","484463.186902","485229.958388","471413.248319","472180.432243","472929.985255","484472.549285","Mapping"
"Mixed","Both","done","43","m160depth.wav","None","726.365950424","187","481413.495039","473696.376459","474463.273161","475229.831937","475996.710707","476763.628432","477530.360344","478279.634483","482163.20573","482930.025448","483696.205487","484463.186902","485229.958388","485996.556738","472180.432243","472929.985255","485239.06694","Mapping"
"Mixed","Both","done","43","m160done.wav","None","725.062476005","187","481413.495039","473696.376459","474463.273161","475229.831937","475996.710707","476763.628432","477530.360344","478279.634483","482163.20573","482930.025448","483696.205487","484463.186902","485229.958388","485996.556738","486763.403972","472929.985255","486005.662817","Mapping"
"Mixed","Both","done","43","m150jaw.wav","space","503.878114279","187","481413.495039","473696.376459","474463.273161","475229.831937","475996.710707","476763.628432","477530.360344","478279.634483","482163.20573","482930.025448","483696.205487","484463.186902","485229.958388","485996.556738","486763.403972","487513.439914","486773.095315","Mapping"
"Mixed","Both","done","43","m150jolt.wav","None","736.517961603","187","481413.495039","488279.812876","474463.273161","475229.831937","475996.710707","476763.628432","477530.360344","478279.634483","482163.20573","482930.025448","483696.205487","484463.186902","485229.958388","485996.556738","486763.403972","487513.439914","487522.31844","Mapping"
"Mixed","Both","done","43","m150reek.wav","None","734.310464934","187","481413.495039","488279.812876","489046.467804","475229.831937","475996.710707","476763.628432","477530.360344","478279.634483","482163.20573","482930.025448","483696.205487","484463.186902","485229.958388","485996.556738","486763.403972","487513.439914","488288.914626","Mapping"
"Mixed","Both","done","43","m150done.wav","None","731.707844883","187","481413.495039","488279.812876","489046.467804","489813.041729","475996.710707","476763.628432","477530.360344","478279.634483","482163.20573","482930.025448","483696.205487","484463.186902","485229.958388","485996.556738","486763.403972","487513.439914","489056.185427","Mapping"
"Mixed","Both","done","43","m160depth.wav","space","310.894985683","187","481413.495039","488279.812876","489046.467804","489813.041729","490579.831148","476763.628432","477530.360344","478279.634483","482163.20573","482930.025448","483696.205487","484463.186902","485229.958388","485996.556738","486763.403972","487513.439914","489822.064022","Mapping"
"Mixed","Both","done","43","m150jaw.wav","None","727.263171226","187","481413.495039","488279.812876","489046.467804","489813.041729","490579.831148","491346.077659","477530.360344","478279.634483","482163.20573","482930.025448","483696.205487","484463.186902","485229.958388","485996.556738","486763.403972","487513.439914","490588.837982","Mapping"
"Mixed","Both","done","43","m150done.wav","None","725.982884876","187","481413.495039","488279.812876","489046.467804","489813.041729","490579.831148","491346.077659","492112.758867","478279.634483","482163.20573","482930.025448","483696.205487","484463.186902","485229.958388","485996.556738","486763.403972","487513.439914","491354.869926","Mapping"
"Mixed","Both","done","43","m160bluff.wav","space","523.250597529","187","481413.495039","488279.812876","489046.467804","489813.041729","490579.831148","491346.077659","492112.758867","492880.100469","482163.20573","482930.025448","483696.205487","484463.186902","485229.958388","485996.556738","486763.403972","487513.439914","492121.649142","Mapping"
"Mixed","Both","tile","25","m160greet.wav","None","722.831482068","187","495996.596621","488279.812876","489046.467804","489813.041729","490579.831148","491346.077659","492112.758867","492880.100469","482163.20573","482930.025448","483696.205487","484463.186902","485229.958388","485996.556738","486763.403972","487513.439914","492889.591468","Mapping"
"Mixed","Both","tile","25","m150tile.wav","None","720.01986159","187","495996.596621","488279.812876","489046.467804","489813.041729","490579.831148","491346.077659","492112.758867","492880.100469","496746.630399","482930.025448","483696.205487","484463.186902","485229.958388","485996.556738","486763.403972","487513.439914","496006.948977","Mapping"
"Mixed","Both","tile","25","m150cad.wav","space","561.102981679","187","495996.596621","488279.812876","489046.467804","489813.041729","490579.831148","491346.077659","492112.758867","492880.100469","496746.630399","497513.001197","483696.205487","484463.186902","485229.958388","485996.556738","486763.403972","487513.439914","496755.708342","Mapping"
"Mixed","Both","tile","25","m160lash.wav","None","733.225576114","187","495996.596621","488279.812876","489046.467804","489813.041729","490579.831148","491346.077659","492112.758867","492880.100469","496746.630399","497513.001197","498279.707757","484463.186902","485229.958388","485996.556738","486763.403972","487513.439914","497522.00092","Mapping"
"Mixed","Both","tile","25","m160tile.wav","None","731.309629977","187","495996.596621","488279.812876","489046.467804","489813.041729","490579.831148","491346.077659","492112.758867","492880.100469","496746.630399","497513.001197","498279.707757","499045.922114","485229.958388","485996.556738","486763.403972","487513.439914","498288.705934","Mapping"
"Mixed","Both","tile","25","m160reek.wav","space","406.054476742","187","495996.596621","488279.812876","489046.467804","489813.041729","490579.831148","491346.077659","492112.758867","492880.100469","496746.630399","497513.001197","498279.707757","499045.922114","499812.859317","485996.556738","486763.403972","487513.439914","499054.725511","Mapping"
"Mixed","Both","tile","25","m150bluff.wav","None","725.880548824","187","495996.596621","488279.812876","489046.467804","489813.041729","490579.831148","491346.077659","492112.758867","492880.100469","496746.630399","497513.001197","498279.707757","499045.922114","499812.859317","500579.477454","486763.403972","487513.439914","499822.47584","Mapping"
"Mixed","Both","tile","25","m150lash.wav","None","724.892740138","187","495996.596621","488279.812876","489046.467804","489813.041729","490579.831148","491346.077659","492112.758867","492880.100469","496746.630399","497513.001197","498279.707757","499045.922114","499812.859317","500579.477454","501346.079823","487513.439914","500588.25148","Mapping"
"Mixed","Both","tile","25","m150park.wav","None","722.960716579","187","495996.596621","488279.812876","489046.467804","489813.041729","490579.831148","491346.077659","492112.758867","492880.100469","496746.630399","497513.001197","498279.707757","499045.922114","499812.859317","500579.477454","501346.079823","502113.004351","501355.082328","Mapping"
"Mixed","Both","tile","25","m160tile.wav","None","720.101173501","187","495996.596621","502862.682269","489046.467804","489813.041729","490579.831148","491346.077659","492112.758867","492880.100469","496746.630399","497513.001197","498279.707757","499045.922114","499812.859317","500579.477454","501346.079823","502113.004351","502122.695075","Mapping"
"Mixed","Both","tile","25","m160knife.wav","space","412.715304643","187","495996.596621","502862.682269","503629.608652","489813.041729","490579.831148","491346.077659","492112.758867","492880.100469","496746.630399","497513.001197","498279.707757","499045.922114","499812.859317","500579.477454","501346.079823","502113.004351","502871.968905","Mapping"
"Mixed","Both","tile","25","m150tile.wav","None","732.382460963","187","495996.596621","502862.682269","503629.608652","504396.31583","490579.831148","491346.077659","492112.758867","492880.100469","496746.630399","497513.001197","498279.707757","499045.922114","499812.859317","500579.477454","501346.079823","502113.004351","503638.638055","Mapping"
"Mixed","Both","tile","25","m160depth.wav","space","534.588905983","187","495996.596621","502862.682269","503629.608652","504396.31583","505162.811844","491346.077659","492112.758867","492880.100469","496746.630399","497513.001197","498279.707757","499045.922114","499812.859317","500579.477454","501346.079823","502113.004351","504406.070554","Mapping"
"Mixed","Both","tile","25","m150lash.wav","None","727.484229952","187","495996.596621","502862.682269","503629.608652","504396.31583","505162.811844","505929.166256","492112.758867","492880.100469","496746.630399","497513.001197","498279.707757","499045.922114","499812.859317","500579.477454","501346.079823","502113.004351","505171.751278","Mapping"
"Mixed","Both","tile","25","m150cave.wav","None","725.966189522","187","495996.596621","502862.682269","503629.608652","504396.31583","505162.811844","505929.166256","506696.413869","492880.100469","496746.630399","497513.001197","498279.707757","499045.922114","499812.859317","500579.477454","501346.079823","502113.004351","505938.004281","Mapping"
"Mixed","Both","tile","25","m160cave.wav","None","722.847559489","187","495996.596621","502862.682269","503629.608652","504396.31583","505162.811844","505929.166256","506696.413869","507463.232659","496746.630399","497513.001197","498279.707757","499045.922114","499812.859317","500579.477454","501346.079823","502113.004351","506706.067184","Mapping"
"Mixed","Both","tile","29","m160dime.wav","None","721.113097388","187","510579.783536","502862.682269","503629.608652","504396.31583","505162.811844","505929.166256","506696.413869","507463.232659","496746.630399","497513.001197","498279.707757","499045.922114","499812.859317","500579.477454","501346.079823","502113.004351","507472.592569","Mapping"
"Mixed","Both","tile","29","m150dime.wav","None","720.569571014","187","510579.783536","502862.682269","503629.608652","504396.31583","505162.811844","505929.166256","506696.413869","507463.232659","511329.541221","497513.001197","498279.707757","499045.922114","499812.859317","500579.477454","501346.079823","502113.004351","510589.526202","Mapping"
"Mixed","Both","tile","29","m150depth.wav","None","736.282680649","187","510579.783536","502862.682269","503629.608652","504396.31583","505162.811844","505929.166256","506696.413869","507463.232659","511329.541221","512096.248709","498279.707757","499045.922114","499812.859317","500579.477454","501346.079823","502113.004351","511338.611126","Mapping"
"Mixed","Both","tile","29","m150ball.wav","None","734.367043711","187","510579.783536","502862.682269","503629.608652","504396.31583","505162.811844","505929.166256","506696.413869","507463.232659","511329.541221","512096.248709","512862.60714","499045.922114","499812.859317","500579.477454","501346.079823","502113.004351","512105.298209","Mapping"
"Mixed","Both","tile","29","m160romp.wav","None","732.895070221","187","510579.783536","502862.682269","503629.608652","504396.31583","505162.811844","505929.166256","506696.413869","507463.232659","511329.541221","512096.248709","512862.60714","513629.066362","499812.859317","500579.477454","501346.079823","502113.004351","512871.639944","Mapping"
"Mixed","Both","tile","29","m160depth.wav","None","731.474728789","187","510579.783536","502862.682269","503629.608652","504396.31583","505162.811844","505929.166256","506696.413869","507463.232659","511329.541221","512096.248709","512862.60714","513629.066362","514396.112085","500579.477454","501346.079823","502113.004351","513637.924483","Mapping"
"Mixed","Both","tile","29","m160tile.wav","None","728.716903366","187","510579.783536","502862.682269","503629.608652","504396.31583","505162.811844","505929.166256","506696.413869","507463.232659","511329.541221","512096.248709","512862.60714","513629.066362","514396.112085","515162.582746","501346.079823","502113.004351","514405.237023","Mapping"
"Mixed","Both","tile","29","m160ball.wav","space","408.29505492","187","510579.783536","502862.682269","503629.608652","504396.31583","505162.811844","505929.166256","506696.413869","507463.232659","511329.541221","512096.248709","512862.60714","513629.066362","514396.112085","515162.582746","515929.74812","502113.004351","515172.183502","Mapping"
"Mixed","Both","tile","29","m160tile.wav","None","723.425404169","187","510579.783536","502862.682269","503629.608652","504396.31583","505162.811844","505929.166256","506696.413869","507463.232659","511329.541221","512096.248709","512862.60714","513629.066362","514396.112085","515162.582746","515929.74812","516696.288036","515939.220877","Mapping"
"Mixed","Both","tile","29","m160done.wav","space","474.643314723","187","510579.783536","517445.842285","503629.608652","504396.31583","505162.811844","505929.166256","506696.413869","507463.232659","511329.541221","512096.248709","512862.60714","513629.066362","514396.112085","515162.582746","515929.74812","516696.288036","516705.831285","Mapping"
"Mixed","Both","tile","29","m150tile.wav","None","735.810882412","187","510579.783536","517445.842285","518212.4799","504396.31583","505162.811844","505929.166256","506696.413869","507463.232659","511329.541221","512096.248709","512862.60714","513629.066362","514396.112085","515162.582746","515929.74812","516696.288036","517455.118718","Mapping"
"Mixed","Both","tile","29","m160lash.wav","space","614.269023295","187","510579.783536","517445.842285","518212.4799","518979.355578","505162.811844","505929.166256","506696.413869","507463.232659","511329.541221","512096.248709","512862.60714","513629.066362","514396.112085","515162.582746","515929.74812","516696.288036","518222.105698","Mapping"
"Mixed","Both","tile","29","m150bluff.wav","None","731.413202826","187","510579.783536","517445.842285","518212.4799","518979.355578","519745.557258","505929.166256","506696.413869","507463.232659","511329.541221","512096.248709","512862.60714","513629.066362","514396.112085","515162.582746","515929.74812","516696.288036","518988.42672","Mapping"
"Mixed","Both","tile","29","m150depth.wav","None","730.282556266","187","510579.783536","517445.842285","518212.4799","518979.355578","519745.557258","520512.484259","506696.413869","507463.232659","511329.541221","512096.248709","512862.60714","513629.066362","514396.112085","515162.582746","515929.74812","516696.288036","519754.406414","Mapping"
"Mixed","Both","tile","29","m150tile.wav","None","728.04599721","187","510579.783536","517445.842285","518212.4799","518979.355578","519745.557258","520512.484259","521279.269041","507463.232659","511329.541221","512096.248709","512862.60714","513629.066362","514396.112085","515162.582746","515929.74812","516696.288036","520521.491402","Mapping"
"Mixed","Both","tile","29","m150dime.wav","space","452.052647248","187","510579.783536","517445.842285","518212.4799","518979.355578","519745.557258","520512.484259","521279.269041","522046.485118","511329.541221","512096.248709","512862.60714","513629.066362","514396.112085","515162.582746","515929.74812","516696.288036","521288.34482","Mapping"
"Mixed","Both","tile","36","m160cling.wav","None","721.837181132","187","525162.783709","517445.842285","518212.4799","518979.355578","519745.557258","520512.484259","521279.269041","522046.485118","511329.541221","512096.248709","512862.60714","513629.066362","514396.112085","515162.582746","515929.74812","516696.288036","522056.165949","Mapping"
"Mixed","Both","tile","36","m150jolt.wav","None","719.932056032","187","525162.783709","517445.842285","518212.4799","518979.355578","519745.557258","520512.484259","521279.269041","522046.485118","525912.504912","512096.248709","512862.60714","513629.066362","514396.112085","515162.582746","515929.74812","516696.288036","525173.011468","Mapping"
"Mixed","Both","tile","36","m160tile.wav","None","736.108925659","187","525162.783709","517445.842285","518212.4799","518979.355578","519745.557258","520512.484259","521279.269041","522046.485118","525912.504912","526679.004945","512862.60714","513629.066362","514396.112085","515162.582746","515929.74812","516696.288036","525921.551011","Mapping"
"Mixed","Both","tile","36","m150dime.wav","space","524.238715414","187","525162.783709","517445.842285","518212.4799","518979.355578","519745.557258","520512.484259","521279.269041","522046.485118","525912.504912","526679.004945","527445.770248","513629.066362","514396.112085","515162.582746","515929.74812","516696.288036","526688.041459","Mapping"
"Mixed","Both","tile","36","m150gnash.wav","None","731.071257032","187","525162.783709","517445.842285","518212.4799","518979.355578","519745.557258","520512.484259","521279.269041","522046.485118","525912.504912","526679.004945","527445.770248","528212.6855","514396.112085","515162.582746","515929.74812","516696.288036","527455.147162","Mapping"
"Mixed","Both","tile","36","m160romp.wav","None","728.798525408","187","525162.783709","517445.842285","518212.4799","518979.355578","519745.557258","520512.484259","521279.269041","522046.485118","525912.504912","526679.004945","527445.770248","528212.6855","528979.076704","515162.582746","515929.74812","516696.288036","528222.117447","Mapping"
"Mixed","Both","tile","36","m150greet.wav","None","728.327654768","187","525162.783709","517445.842285","518212.4799","518979.355578","519745.557258","520512.484259","521279.269041","522046.485118","525912.504912","526679.004945","527445.770248","528212.6855","528979.076704","529745.726067","515929.74812","516696.288036","528988.111363","Mapping"
"Mixed","Both","tile","36","m150tile.wav","None","726.677906234","187","525162.783709","517445.842285","518212.4799","518979.355578","519745.557258","520512.484259","521279.269041","522046.485118","525912.504912","526679.004945","527445.770248","528212.6855","528979.076704","529745.726067","530511.991437","516696.288036","529754.877594","Mapping"
"Mixed","Both","tile","36","m150park.wav","space","459.455181379","187","525162.783709","517445.842285","518212.4799","518979.355578","519745.557258","520512.484259","521279.269041","522046.485118","525912.504912","526679.004945","527445.770248","528212.6855","528979.076704","529745.726067","530511.991437","531279.559663","530520.75557","Mapping"
"Mixed","Both","tile","36","m150tile.wav","None","720.938724","187","525162.783709","532046.062169","518212.4799","518979.355578","519745.557258","520512.484259","521279.269041","522046.485118","525912.504912","526679.004945","527445.770248","528212.6855","528979.076704","529745.726067","530511.991437","531279.559663","531288.948017","Mapping"
"Mixed","Both","tile","36","m160knife.wav","None","718.737410847","187","525162.783709","532046.062169","532795.318376","518979.355578","519745.557258","520512.484259","521279.269041","522046.485118","525912.504912","526679.004945","527445.770248","528212.6855","528979.076704","529745.726067","530511.991437","531279.559663","532056.058357","Mapping"
"Mixed","Both","tile","36","m160jolt.wav","space","8.08580685407","187","525162.783709","532046.062169","532795.318376","533562.249087","519745.557258","520512.484259","521279.269041","522046.485118","525912.504912","526679.004945","527445.770248","528212.6855","528979.076704","529745.726067","530511.991437","531279.559663","532804.073233","Mapping"
"Mixed","Both","tile","36","m150knife.wav","None","731.957038864","187","525162.783709","532046.062169","532795.318376","533562.249087","534328.839398","520512.484259","521279.269041","522046.485118","525912.504912","526679.004945","527445.770248","528212.6855","528979.076704","529745.726067","530511.991437","531279.559663","533571.235206","Mapping"
"Mixed","Both","tile","36","m160tile.wav","None","730.242673308","187","525162.783709","532046.062169","532795.318376","533562.249087","534328.839398","535095.703018","521279.269041","522046.485118","525912.504912","526679.004945","527445.770248","528212.6855","528979.076704","529745.726067","530511.991437","531279.559663","534337.855197","Mapping"
"Mixed","Both","tile","36","m160park.wav","space","595.385342836","187","525162.783709","532046.062169","532795.318376","533562.249087","534328.839398","535095.703018","535862.13256","522046.485118","525912.504912","526679.004945","527445.770248","528212.6855","528979.076704","529745.726067","530511.991437","531279.559663","535104.772923","Mapping"
"Mixed","Both","tile","36","m160done.wav","None","725.637538359","187","525162.783709","532046.062169","532795.318376","533562.249087","534328.839398","535095.703018","535862.13256","536629.350183","525912.504912","526679.004945","527445.770248","528212.6855","528979.076704","529745.726067","530511.991437","531279.559663","535871.099201","Mapping"
"Mixed","Both","cave","15","m150romp.wav","None","722.884350922","187","539745.846954","532046.062169","532795.318376","533562.249087","534328.839398","535095.703018","535862.13256","536629.350183","525912.504912","526679.004945","527445.770248","528212.6855","528979.076704","529745.726067","530511.991437","531279.559663","536638.877973","Mapping"
"Mixed","Both","cave","15","m160cave.wav","None","719.602168538","187","539745.846954","532046.062169","532795.318376","533562.249087","534328.839398","535095.703018","535862.13256","536629.350183","540495.351426","526679.004945","527445.770248","528212.6855","528979.076704","529745.726067","530511.991437","531279.559663","539755.943314","Mapping"
"Mixed","Both","cave","15","m150bluff.wav","space","483.621704392","187","539745.846954","532046.062169","532795.318376","533562.249087","534328.839398","535095.703018","535862.13256","536629.350183","540495.351426","541262.23607","527445.770248","528212.6855","528979.076704","529745.726067","530511.991437","531279.559663","540504.419167","Mapping"
"Mixed","Both","cave","15","m160cave.wav","None","732.413687743","187","539745.846954","532046.062169","532795.318376","533562.249087","534328.839398","535095.703018","535862.13256","536629.350183","540495.351426","541262.23607","542028.897492","528212.6855","528979.076704","529745.726067","530511.991437","531279.559663","541271.497972","Mapping"
"Mixed","Both","cave","15","m160romp.wav","space","388.192613609","187","539745.846954","532046.062169","532795.318376","533562.249087","534328.839398","535095.703018","535862.13256","536629.350183","540495.351426","541262.23607","542028.897492","542795.514701","528979.076704","529745.726067","530511.991437","531279.559663","542039.848406","Mapping"
"Mixed","Both","cave","15","m150lash.wav","None","727.597696241","187","539745.846954","532046.062169","532795.318376","533562.249087","534328.839398","535095.703018","535862.13256","536629.350183","540495.351426","541262.23607","542028.897492","542795.514701","543562.026173","529745.726067","530511.991437","531279.559663","542804.715077","Mapping"
"Mixed","Both","cave","15","m150lash.wav","None","726.134997793","187","539745.846954","532046.062169","532795.318376","533562.249087","534328.839398","535095.703018","535862.13256","536629.350183","540495.351426","541262.23607","542028.897492","542795.514701","543562.026173","544329.171141","530511.991437","531279.559663","543571.073199","Mapping"
"Mixed","Both","cave","15","m150cave.wav","None","722.961644176","187","539745.846954","532046.062169","532795.318376","533562.249087","534328.839398","535095.703018","535862.13256","536629.350183","540495.351426","541262.23607","542028.897492","542795.514701","543562.026173","544329.171141","545095.777529","531279.559663","544339.100238","Mapping"
"Mixed","Both","cave","15","m160greet.wav","space","330.597665627","187","539745.846954","532046.062169","532795.318376","533562.249087","534328.839398","535095.703018","535862.13256","536629.350183","540495.351426","541262.23607","542028.897492","542795.514701","543562.026173","544329.171141","545095.777529","545845.400724","545105.365918","Mapping"
"Mixed","Both","cave","15","m160lash.wav","None","735.604354646","187","539745.846954","546611.81357","532795.318376","533562.249087","534328.839398","535095.703018","535862.13256","536629.350183","540495.351426","541262.23607","542028.897492","542795.514701","543562.026173","544329.171141","545095.777529","545845.400724","545855.047237","Mapping"
"Mixed","Both","cave","15","m150reek.wav","None","734.897894319","187","539745.846954","546611.81357","547378.810753","533562.249087","534328.839398","535095.703018","535862.13256","536629.350183","540495.351426","541262.23607","542028.897492","542795.514701","543562.026173","544329.171141","545095.777529","545845.400724","546620.551114","Mapping"
"Mixed","Both","cave","15","m160done.wav","None","732.995860744","187","539745.846954","546611.81357","547378.810753","548145.367674","534328.839398","535095.703018","535862.13256","536629.350183","540495.351426","541262.23607","542028.897492","542795.514701","543562.026173","544329.171141","545095.777529","545845.400724","547387.792853","Mapping"
"Mixed","Both","cave","15","m160jolt.wav","None","730.575034395","187","539745.846954","546611.81357","547378.810753","548145.367674","548912.302404","535095.703018","535862.13256","536629.350183","540495.351426","541262.23607","542028.897492","542795.514701","543562.026173","544329.171141","545095.777529","545845.400724","548154.765302","Mapping"
"Mixed","Both","cave","15","m150knife.wav","None","728.501718491","187","539745.846954","546611.81357","547378.810753","548145.367674","548912.302404","549678.766881","535862.13256","536629.350183","540495.351426","541262.23607","542028.897492","542795.514701","543562.026173","544329.171141","545095.777529","545845.400724","548921.811026","Mapping"
"Mixed","Both","cave","15","m150cave.wav","None","727.346029133","187","539745.846954","546611.81357","547378.810753","548145.367674","548912.302404","549678.766881","550445.012155","536629.350183","540495.351426","541262.23607","542028.897492","542795.514701","543562.026173","544329.171141","545095.777529","545845.400724","549687.833695","Mapping"
"Mixed","Both","cave","15","m160park.wav","space","478.045456577","187","539745.846954","546611.81357","547378.810753","548145.367674","548912.302404","549678.766881","550445.012155","551212.261624","540495.351426","541262.23607","542028.897492","542795.514701","543562.026173","544329.171141","545095.777529","545845.400724","550453.813388","Mapping"
"Mixed","Both","tile","30","m160bluff.wav","None","722.002589144","187","554328.706144","546611.81357","547378.810753","548145.367674","548912.302404","549678.766881","550445.012155","551212.261624","540495.351426","541262.23607","542028.897492","542795.514701","543562.026173","544329.171141","545095.777529","545845.400724","551221.727579","Mapping"
"Mixed","Both","tile","30","m150bluff.wav","None","721.911383327","187","554328.706144","546611.81357","547378.810753","548145.367674","548912.302404","549678.766881","550445.012155","551212.261624","555095.209887","541262.23607","542028.897492","542795.514701","543562.026173","544329.171141","545095.777529","545845.400724","554337.7643","Mapping"
"Mixed","Both","tile","30","m150lash.wav","None","721.131030004","187","554328.706144","546611.81357","547378.810753","548145.367674","548912.302404","549678.766881","550445.012155","551212.261624","555095.209887","555861.942418","542028.897492","542795.514701","543562.026173","544329.171141","545095.777529","545845.400724","555104.111602","Mapping"
"Mixed","Both","tile","30","m160tile.wav","None","721.638074145","187","554328.706144","546611.81357","547378.810753","548145.367674","548912.302404","549678.766881","550445.012155","551212.261624","555095.209887","555861.942418","556612.20591","542795.514701","543562.026173","544329.171141","545095.777529","545845.400724","555870.796211","Mapping"
"Mixed","Both","tile","30","m160romp.wav","space","364.851274062","187","554328.706144","546611.81357","547378.810753","548145.367674","548912.302404","549678.766881","550445.012155","551212.261624","555095.209887","555861.942418","556612.20591","557378.630814","543562.026173","544329.171141","545095.777529","545845.400724","556622.875478","Mapping"
"Mixed","Both","tile","30","m150tile.wav","None","733.50599641","187","554328.706144","546611.81357","547378.810753","548145.367674","548912.302404","549678.766881","550445.012155","551212.261624","555095.209887","555861.942418","556612.20591","557378.630814","558145.196083","544329.171141","545095.777529","545845.400724","557387.637029","Mapping"
"Mixed","Both","tile","30","m150reek.wav","space","561.127715744","187","554328.706144","546611.81357","547378.810753","548145.367674","548912.302404","549678.766881","550445.012155","551212.261624","555095.209887","555861.942418","556612.20591","557378.630814","558145.196083","558911.908208","545095.777529","545845.400724","558154.588146","Mapping"
"Mixed","Both","tile","30","m160priest.wav","None","728.669290431","187","554328.706144","546611.81357","547378.810753","548145.367674","548912.302404","549678.766881","550445.012155","551212.261624","555095.209887","555861.942418","556612.20591","557378.630814","558145.196083","558911.908208","559678.578904","545845.400724","558921.208756","Mapping"
"Mixed","Both","tile","30","m150park.wav","None","727.456713095","187","554328.706144","546611.81357","547378.810753","548145.367674","548912.302404","549678.766881","550445.012155","551212.261624","555095.209887","555861.942418","556612.20591","557378.630814","558145.196083","558911.908208","559678.578904","560445.196422","559687.599651","Mapping"
"Mixed","Both","tile","30","m160gnash.wav","None","725.500883535","187","554328.706144","561212.126206","547378.810753","548145.367674","548912.302404","549678.766881","550445.012155","551212.261624","555095.209887","555861.942418","556612.20591","557378.630814","558145.196083","558911.908208","559678.578904","560445.196422","560454.85623","Mapping"
"Mixed","Both","tile","30","m160knife.wav","None","723.738596775","187","554328.706144","561212.126206","561979.002502","548145.367674","548912.302404","549678.766881","550445.012155","551212.261624","555095.209887","555861.942418","556612.20591","557378.630814","558145.196083","558911.908208","559678.578904","560445.196422","561221.627716","Mapping"
"Mixed","Both","tile","30","m150cave.wav","None","722.066896968","187","554328.706144","561212.126206","561979.002502","562745.516139","548912.302404","549678.766881","550445.012155","551212.261624","555095.209887","555861.942418","556612.20591","557378.630814","558145.196083","558911.908208","559678.578904","560445.196422","561988.512979","Mapping"
"Mixed","Both","tile","30","m160tile.wav","None","720.494442154","187","554328.706144","561212.126206","561979.002502","562745.516139","563495.296703","549678.766881","550445.012155","551212.261624","555095.209887","555861.942418","556612.20591","557378.630814","558145.196083","558911.908208","559678.578904","560445.196422","562755.037436","Mapping"
"Mixed","Both","tile","30","m150priest.wav","space","394.885285757","187","554328.706144","561212.126206","561979.002502","562745.516139","563495.296703","564261.666883","550445.012155","551212.261624","555095.209887","555861.942418","556612.20591","557378.630814","558145.196083","558911.908208","559678.578904","560445.196422","563504.710099","Mapping"
"Mixed","Both","tile","30","m150tile.wav","None","733.523309696","187","554328.706144","561212.126206","561979.002502","562745.516139","563495.296703","564261.666883","565028.098897","551212.261624","555095.209887","555861.942418","556612.20591","557378.630814","558145.196083","558911.908208","559678.578904","560445.196422","564270.696286","Mapping"
"Mixed","Both","tile","30","m160priest.wav","space","678.564991336","187","554328.706144","561212.126206","561979.002502","562745.516139","563495.296703","564261.666883","565028.098897","565795.101336","555095.209887","555861.942418","556612.20591","557378.630814","558145.196083","558911.908208","559678.578904","560445.196422","565037.005868","Mapping"
"Mixed","Both","tile","32","m150priest.wav","None","728.37433964","187","568928.765258","561212.126206","561979.002502","562745.516139","563495.296703","564261.666883","565028.098897","565795.101336","555095.209887","555861.942418","556612.20591","557378.630814","558145.196083","558911.908208","559678.578904","560445.196422","565804.546268","Mapping"
"Mixed","Both","tile","32","m150tile.wav","None","720.818146598","187","568928.765258","561212.126206","561979.002502","562745.516139","563495.296703","564261.666883","565028.098897","565795.101336","569695.315995","555861.942418","556612.20591","557378.630814","558145.196083","558911.908208","559678.578904","560445.196422","568938.204625","Mapping"
"Mixed","Both","tile","32","m150done.wav","space","650.215972681","187","568928.765258","561212.126206","561979.002502","562745.516139","563495.296703","564261.666883","565028.098897","565795.101336","569695.315995","570445.04029","556612.20591","557378.630814","558145.196083","558911.908208","559678.578904","560445.196422","569705.352994","Mapping"
"Mixed","Both","tile","32","m160cad.wav","None","739.183034748","187","568928.765258","561212.126206","561979.002502","562745.516139","563495.296703","564261.666883","565028.098897","565795.101336","569695.315995","570445.04029","571211.569694","557378.630814","558145.196083","558911.908208","559678.578904","560445.196422","570448.595163","Mapping"
"Mixed","Both","tile","32","m150tile.wav","None","733.878549654","187","568928.765258","561212.126206","561979.002502","562745.516139","563495.296703","564261.666883","565028.098897","565795.101336","569695.315995","570445.04029","571211.569694","571978.379827","558145.196083","558911.908208","559678.578904","560445.196422","571219.090023","Mapping"
"Mixed","Both","tile","32","m160priest.wav","space","584.073313512","187","568928.765258","561212.126206","561979.002502","562745.516139","563495.296703","564261.666883","565028.098897","565795.101336","569695.315995","570445.04029","571211.569694","571978.379827","572744.936439","558911.908208","559678.578904","560445.196422","571987.368111","Mapping"
"Mixed","Both","tile","32","m160tile.wav","None","727.933767717","187","568928.765258","561212.126206","561979.002502","562745.516139","563495.296703","564261.666883","565028.098897","565795.101336","569695.315995","570445.04029","571211.569694","571978.379827","572744.936439","573511.245093","559678.578904","560445.196422","572754.410433","Mapping"
"Mixed","Both","tile","32","m160romp.wav","space","523.329745978","187","568928.765258","561212.126206","561979.002502","562745.516139","563495.296703","564261.666883","565028.098897","565795.101336","569695.315995","570445.04029","571211.569694","571978.379827","572744.936439","573511.245093","574278.491779","560445.196422","573520.05622","Mapping"
"Mixed","Both","tile","32","m150lash.wav","None","723.591739312","187","568928.765258","561212.126206","561979.002502","562745.516139","563495.296703","564261.666883","565028.098897","565795.101336","569695.315995","570445.04029","571211.569694","571978.379827","572744.936439","573511.245093","574278.491779","575045.34396","574287.450691","Mapping"
"Mixed","Both","tile","32","m160cave.wav","None","721.328591462","187","568928.765258","575811.86718","561979.002502","562745.516139","563495.296703","564261.666883","565028.098897","565795.101336","569695.315995","570445.04029","571211.569694","571978.379827","572744.936439","573511.245093","574278.491779","575045.34396","575054.736333","Mapping"
"Mixed","Both","tile","32","m150jolt.wav","None","720.019861124","187","568928.765258","575811.86718","576560.949014","562745.516139","563495.296703","564261.666883","565028.098897","565795.101336","569695.315995","570445.04029","571211.569694","571978.379827","572744.936439","573511.245093","574278.491779","575045.34396","575821.304383","Mapping"
"Mixed","Both","tile","32","m150ball.wav","None","736.72387097","187","568928.765258","575811.86718","576560.949014","577328.088107","563495.296703","564261.666883","565028.098897","565795.101336","569695.315995","570445.04029","571211.569694","571978.379827","572744.936439","573511.245093","574278.491779","575045.34396","576569.759213","Mapping"
"Mixed","Both","tile","32","m150knife.wav","None","734.436916653","187","568928.765258","575811.86718","576560.949014","577328.088107","578094.820019","564261.666883","565028.098897","565795.101336","569695.315995","570445.04029","571211.569694","571978.379827","572744.936439","573511.245093","574278.491779","575045.34396","577337.463166","Mapping"
"Mixed","Both","tile","32","m160done.wav","None","733.040999621","187","568928.765258","575811.86718","576560.949014","577328.088107","578094.820019","578861.349423","565028.098897","565795.101336","569695.315995","570445.04029","571211.569694","571978.379827","572744.936439","573511.245093","574278.491779","575045.34396","578104.009266","Mapping"
"Mixed","Both","tile","32","m160tile.wav","None","732.234366704","187","568928.765258","575811.86718","576560.949014","577328.088107","578094.820019","578861.349423","579627.919948","565795.101336","569695.315995","570445.04029","571211.569694","571978.379827","572744.936439","573511.245093","574278.491779","575045.34396","578870.313591","Mapping"
"Mixed","Both","tile","32","m160cad.wav","space","574.61663289","187","568928.765258","575811.86718","576560.949014","577328.088107","578094.820019","578861.349423","579627.919948","580394.471612","569695.315995","570445.04029","571211.569694","571978.379827","572744.936439","573511.245093","574278.491779","575045.34396","579636.715307","Mapping"
"Mixed","Both","cave","21","m160done.wav","None","727.971177548","187","583528.558483","575811.86718","576560.949014","577328.088107","578094.820019","578861.349423","579627.919948","580394.471612","569695.315995","570445.04029","571211.569694","571978.379827","572744.936439","573511.245093","574278.491779","575045.34396","580403.339009","Mapping"
"Mixed","Both","cave","21","m160cave.wav","None","720.818455331","187","583528.558483","575811.86718","576560.949014","577328.088107","578094.820019","578861.349423","579627.919948","580394.471612","584295.003174","570445.04029","571211.569694","571978.379827","572744.936439","573511.245093","574278.491779","575045.34396","583537.820385","Mapping"
"Mixed","Both","cave","21","m150knife.wav","space","402.593282983","187","583528.558483","575811.86718","576560.949014","577328.088107","578094.820019","578861.349423","579627.919948","580394.471612","584295.003174","585044.899369","571211.569694","571978.379827","572744.936439","573511.245093","574278.491779","575045.34396","584304.637629","Mapping"
"Mixed","Both","cave","21","m150park.wav","None","733.204243239","187","583528.558483","575811.86718","576560.949014","577328.088107","578094.820019","578861.349423","579627.919948","580394.471612","584295.003174","585044.899369","585811.327364","571978.379827","572744.936439","573511.245093","574278.491779","575045.34396","585054.110566","Mapping"
"Mixed","Both","cave","21","m160bluff.wav","None","732.131721452","187","583528.558483","575811.86718","576560.949014","577328.088107","578094.820019","578861.349423","579627.919948","580394.471612","584295.003174","585044.899369","585811.327364","586577.730316","572744.936439","573511.245093","574278.491779","575045.34396","585820.332652","Mapping"
"Mixed","Both","cave","21","m160cave.wav","None","730.848961975","187","583528.558483","575811.86718","576560.949014","577328.088107","578094.820019","578861.349423","579627.919948","580394.471612","584295.003174","585044.899369","585811.327364","586577.730316","587344.54416","573511.245093","574278.491779","575045.34396","586586.666659","Mapping"
"Mixed","Both","cave","21","m150ball.wav","space","433.853785042","187","583528.558483","575811.86718","576560.949014","577328.088107","578094.820019","578861.349423","579627.919948","580394.471612","584295.003174","585044.899369","585811.327364","586577.730316","587344.54416","588111.265869","574278.491779","575045.34396","587353.33921","Mapping"
"Mixed","Both","cave","21","m150cling.wav","None","729.61319657","187","583528.558483","575811.86718","576560.949014","577328.088107","578094.820019","578861.349423","579627.919948","580394.471612","584295.003174","585044.899369","585811.327364","586577.730316","587344.54416","588111.265869","588878.059308","575045.34396","588120.932479","Mapping"
"Mixed","Both","cave","21","m160cling.wav","None","728.705463931","187","583528.558483","575811.86718","576560.949014","577328.088107","578094.820019","578861.349423","579627.919948","580394.471612","584295.003174","585044.899369","585811.327364","586577.730316","587344.54416","588111.265869","588878.059308","589644.800805","588887.081291","Mapping"
"Mixed","Both","cave","21","m160priest.wav","None","726.991408039","187","583528.558483","590411.211486","576560.949014","577328.088107","578094.820019","578861.349423","579627.919948","580394.471612","584295.003174","585044.899369","585811.327364","586577.730316","587344.54416","588111.265869","588878.059308","589644.800805","589654.010456","Mapping"
"Mixed","Both","cave","21","m160depth.wav","None","725.853341166","187","583528.558483","590411.211486","591177.835806","577328.088107","578094.820019","578861.349423","579627.919948","580394.471612","584295.003174","585044.899369","585811.327364","586577.730316","587344.54416","588111.265869","588878.059308","589644.800805","590420.260676","Mapping"
"Mixed","Both","cave","21","m150cave.wav","None","724.380749278","187","583528.558483","590411.211486","591177.835806","591944.412823","578094.820019","578861.349423","579627.919948","580394.471612","584295.003174","585044.899369","585811.327364","586577.730316","587344.54416","588111.265869","588878.059308","589644.800805","591187.001246","Mapping"
"Mixed","Both","cave","21","m150lash.wav","space","393.130418845","187","583528.558483","590411.211486","591177.835806","591944.412823","592711.533057","578861.349423","579627.919948","580394.471612","584295.003174","585044.899369","585811.327364","586577.730316","587344.54416","588111.265869","588878.059308","589644.800805","591953.965656","Mapping"
"Mixed","Both","cave","21","m150cave.wav","None","719.429649878","187","583528.558483","590411.211486","591177.835806","591944.412823","592711.533057","593460.990226","579627.919948","580394.471612","584295.003174","585044.899369","585811.327364","586577.730316","587344.54416","588111.265869","588878.059308","589644.800805","592721.071978","Mapping"
"Mixed","Both","cave","21","m150greet.wav","space","549.021729734","187","583528.558483","590411.211486","591177.835806","591944.412823","592711.533057","593460.990226","594227.903623","580394.471612","584295.003174","585044.899369","585811.327364","586577.730316","587344.54416","588111.265869","588878.059308","589644.800805","593470.020557","Mapping"
"Mixed","Both","cave","21","m160reek.wav","None","732.538902201","187","583528.558483","590411.211486","591177.835806","591944.412823","592711.533057","593460.990226","594227.903623","594994.193109","584295.003174","585044.899369","585811.327364","586577.730316","587344.54416","588111.265869","588878.059308","589644.800805","594237.009702","Mapping"
"Mixed","Both","ball","3","m150depth.wav","None","731.715883128","187","598128.356655","590411.211486","591177.835806","591944.412823","592711.533057","593460.990226","594227.903623","594994.193109","584295.003174","585044.899369","585811.327364","586577.730316","587344.54416","588111.265869","588878.059308","589644.800805","595003.005473","Mapping"
"Mixed","Both","ball","3","m160bluff.wav","None","720.465998165","187","598128.356655","590411.211486","591177.835806","591944.412823","592711.533057","593460.990226","594227.903623","594994.193109","598878.038902","585044.899369","585811.327364","586577.730316","587344.54416","588111.265869","588878.059308","589644.800805","598137.864658","Mapping"
"Mixed","Both","ball","3","m160ball.wav","None","736.53496569","187","598128.356655","590411.211486","591177.835806","591944.412823","592711.533057","593460.990226","594227.903623","594994.193109","598878.038902","599644.421758","585811.327364","586577.730316","587344.54416","588111.265869","588878.059308","589644.800805","598886.967824","Mapping"
"Mixed","Both","ball","3","m150jolt.wav","space","381.268989295","187","598128.356655","590411.211486","591177.835806","591944.412823","592711.533057","593460.990226","594227.903623","594994.193109","598878.038902","599644.421758","600411.055353","586577.730316","587344.54416","588111.265869","588878.059308","589644.800805","599653.731581","Mapping"
"Mixed","Both","ball","3","m150ball.wav","None","731.678782497","187","598128.356655","590411.211486","591177.835806","591944.412823","592711.533057","593460.990226","594227.903623","594994.193109","598878.038902","599644.421758","600411.055353","601177.824676","587344.54416","588111.265869","588878.059308","589644.800805","600420.663838","Mapping"
"Mixed","Both","ball","3","m160knife.wav","space","349.495568778","187","598128.356655","590411.211486","591177.835806","591944.412823","592711.533057","593460.990226","594227.903623","594994.193109","598878.038902","599644.421758","600411.055353","601177.824676","601944.084172","588111.265869","588878.059308","589644.800805","601181.436437","Mapping"
"Mixed","Both","ball","3","m160cave.wav","None","728.654141072","187","598128.356655","590411.211486","591177.835806","591944.412823","592711.533057","593460.990226","594227.903623","594994.193109","598878.038902","599644.421758","600411.055353","601177.824676","601944.084172","602710.680357","588878.059308","589644.800805","601952.810895","Mapping"
"Mixed","Both","ball","3","m150greet.wav","None","727.449602447","187","598128.356655","590411.211486","591177.835806","591944.412823","592711.533057","593460.990226","594227.903623","594994.193109","598878.038902","599644.421758","600411.055353","601177.824676","601944.084172","602710.680357","603477.420308","589644.800805","602719.435215","Mapping"
"Mixed","Both","ball","3","m160jaw.wav","None","725.687006023","187","598128.356655","590411.211486","591177.835806","591944.412823","592711.533057","593460.990226","594227.903623","594994.193109","598878.038902","599644.421758","600411.055353","601177.824676","601944.084172","602710.680357","603477.420308","604244.352565","603486.369018","Mapping"
"Mixed","Both","ball","3","m160ball.wav","None","724.31427706","187","598128.356655","605011.372627","591177.835806","591944.412823","592711.533057","593460.990226","594227.903623","594994.193109","598878.038902","599644.421758","600411.055353","601177.824676","601944.084172","602710.680357","603477.420308","604244.352565","604253.27283","Mapping"
"Mixed","Both","ball","3","m160gnash.wav","space","429.926358163","187","598128.356655","605011.372627","605760.921312","591944.412823","592711.533057","593460.990226","594227.903623","594994.193109","598878.038902","599644.421758","600411.055353","601177.824676","601944.084172","602710.680357","603477.420308","604244.352565","605020.937518","Mapping"
"Mixed","Both","ball","3","m150romp.wav","None","736.855578609","187","598128.356655","605011.372627","605760.921312","606527.552125","592711.533057","593460.990226","594227.903623","594994.193109","598878.038902","599644.421758","600411.055353","601177.824676","601944.084172","602710.680357","603477.420308","604244.352565","605769.626083","Mapping"
"Mixed","Both","ball","3","m160cad.wav","None","734.746708069","187","598128.356655","605011.372627","605760.921312","606527.552125","607294.380499","593460.990226","594227.903623","594994.193109","598878.038902","599644.421758","600411.055353","601177.824676","601944.084172","602710.680357","603477.420308","604244.352565","606536.964284","Mapping"
"Mixed","Both","ball","3","m150ball.wav","None","733.510633931","187","598128.356655","605011.372627","605760.921312","606527.552125","607294.380499","608060.715124","594227.903623","594994.193109","598878.038902","599644.421758","600411.055353","601177.824676","601944.084172","602710.680357","603477.420308","604244.352565","607303.533262","Mapping"
