"Condition","Talker","Target","Trial","current_stimulus","response_response","response_time_response","subject_nr","time_Audio1","time_Audio10","time_Audio11","time_Audio12","time_Audio13","time_Audio14","time_Audio15","time_Audio16","time_Audio2","time_Audio3","time_Audio4","time_Audio5","time_Audio6","time_Audio7","time_Audio8","time_Audio9","time_response","title"
"Blocked","m150","cave","11","m150ball.wav","NA","NA","133","170968.316549","NA","NA","NA","NA","NA","NA","NA","NA","NA","NA","NA","NA","NA","NA","NA","NA","Mapping"
"Blocked","m150","cave","11","m150cave.wav","None","718.556544743","133","170968.316549","NA","NA","NA","NA","NA","NA","NA","171735.222526","NA","NA","NA","NA","NA","NA","NA","170982.412064","Mapping"
"Blocked","m150","cave","11","m150cling.wav","space","441.491290461","133","170968.316549","NA","NA","NA","NA","NA","NA","NA","171735.222526","172501.628879","NA","NA","NA","NA","NA","NA","171745.481511","Mapping"
"Blocked","m150","cave","11","m150park.wav","None","722.550444305","133","170968.316549","NA","NA","NA","NA","NA","NA","NA","171735.222526","172501.628879","173267.920529","NA","NA","NA","NA","NA","172511.555503","Mapping"
"Blocked","m150","cave","11","m150cave.wav","None","722.898573149","133","170968.316549","NA","NA","NA","NA","NA","NA","NA","171735.222526","172501.628879","173267.920529","174018.030981","NA","NA","NA","NA","173277.981334","Mapping"
"Blocked","m150","cave","11","m150jolt.wav","space","503.3852919","133","170968.316549","NA","NA","NA","NA","NA","NA","NA","171735.222526","172501.628879","173267.920529","174018.030981","174801.625818","NA","NA","NA","174027.527854","Mapping"
"Blocked","m150","cave","11","m150knife.wav","None","719.388220459","133","170968.316549","NA","NA","NA","NA","NA","NA","NA","171735.222526","172501.628879","173267.920529","174018.030981","174801.625818","175568.179956","NA","NA","174811.645812","Mapping"
"Blocked","m150","cave","11","m150cave.wav","None","719.042564742","133","170968.316549","NA","NA","NA","NA","NA","NA","NA","171735.222526","172501.628879","173267.920529","174018.030981","174801.625818","175568.179956","176317.563542","NA","175578.933","Mapping"
"Blocked","m150","cave","11","m150bluff.wav","space","491.553543136","133","170968.316549","NA","NA","NA","NA","NA","NA","NA","171735.222526","172501.628879","173267.920529","174018.030981","174801.625818","175568.179956","176317.563542","177084.403665","176327.366806","Mapping"
"Blocked","m150","cave","11","m150jolt.wav","None","733.718088828","133","170968.316549","177851.23946","NA","NA","NA","NA","NA","NA","171735.222526","172501.628879","173267.920529","174018.030981","174801.625818","175568.179956","176317.563542","177084.403665","177093.864983","Mapping"
"Blocked","m150","cave","11","m150cave.wav","None","730.350574479","133","170968.316549","177851.23946","178617.885113","NA","NA","NA","NA","NA","171735.222526","172501.628879","173267.920529","174018.030981","174801.625818","175568.179956","176317.563542","177084.403665","177860.555776","Mapping"
"Blocked","m150","cave","11","m150priest.wav","space","439.578436315","133","170968.316549","177851.23946","178617.885113","179384.774395","NA","NA","NA","NA","171735.222526","172501.628879","173267.920529","174018.030981","174801.625818","175568.179956","176317.563542","177084.403665","178627.299746","Mapping"
"Blocked","m150","cave","11","m150romp.wav","None","725.480787922","133","170968.316549","177851.23946","178617.885113","179384.774395","180151.330078","NA","NA","NA","171735.222526","172501.628879","173267.920529","174018.030981","174801.625818","175568.179956","176317.563542","177084.403665","179394.839528","Mapping"
"Blocked","m150","cave","11","m150priest.wav","None","726.379553787","133","170968.316549","177851.23946","178617.885113","179384.774395","180151.330078","180918.272229","NA","NA","171735.222526","172501.628879","173267.920529","174018.030981","174801.625818","175568.179956","176317.563542","177084.403665","180160.711012","Mapping"
"Blocked","m150","cave","11","m150priest.wav","None","722.081119195","133","170968.316549","177851.23946","178617.885113","179384.774395","180151.330078","180918.272229","181685.050827","NA","171735.222526","172501.628879","173267.920529","174018.030981","174801.625818","175568.179956","176317.563542","177084.403665","180928.099608","Mapping"
"Blocked","m150","cave","11","m150jaw.wav","None","718.952595256","133","170968.316549","177851.23946","178617.885113","179384.774395","180151.330078","180918.272229","181685.050827","182451.571264","171735.222526","172501.628879","173267.920529","174018.030981","174801.625818","175568.179956","176317.563542","177084.403665","181694.746498","Mapping"
"Blocked","m150","done","20","m150knife.wav","None","718.540158588","133","185618.172953","177851.23946","178617.885113","179384.774395","180151.330078","180918.272229","181685.050827","182451.571264","171735.222526","172501.628879","173267.920529","174018.030981","174801.625818","175568.179956","176317.563542","177084.403665","182462.107269","Mapping"
"Blocked","m150","done","20","m150cad.wav","None","721.033331007","133","185618.172953","177851.23946","178617.885113","179384.774395","180151.330078","180918.272229","181685.050827","182451.571264","186384.777796","172501.628879","173267.920529","174018.030981","174801.625818","175568.179956","176317.563542","177084.403665","185627.833688","Mapping"
"Blocked","m150","done","20","m150romp.wav","None","720.369227231","133","185618.172953","177851.23946","178617.885113","179384.774395","180151.330078","180918.272229","181685.050827","182451.571264","186384.777796","187134.355542","173267.920529","174018.030981","174801.625818","175568.179956","176317.563542","177084.403665","186395.241763","Mapping"
"Blocked","m150","done","20","m150bluff.wav","None","735.132866073","133","185618.172953","177851.23946","178617.885113","179384.774395","180151.330078","180918.272229","181685.050827","182451.571264","186384.777796","187134.355542","187901.484124","174018.030981","174801.625818","175568.179956","176317.563542","177084.403665","187143.671549","Mapping"
"Blocked","m150","done","20","m150jolt.wav","None","731.451540254","133","185618.172953","177851.23946","178617.885113","179384.774395","180151.330078","180918.272229","181685.050827","182451.571264","186384.777796","187134.355542","187901.484124","188667.645921","174801.625818","175568.179956","176317.563542","177084.403665","187910.638433","Mapping"
"Blocked","m150","done","20","m150done.wav","None","728.606528603","133","185618.172953","177851.23946","178617.885113","179384.774395","180151.330078","180918.272229","181685.050827","182451.571264","186384.777796","187134.355542","187901.484124","188667.645921","189434.61095","175568.179956","176317.563542","177084.403665","188676.959145","Mapping"
"Blocked","m150","done","20","m150depth.wav","space","462.000294589","133","185618.172953","177851.23946","178617.885113","179384.774395","180151.330078","180918.272229","181685.050827","182451.571264","186384.777796","187134.355542","187901.484124","188667.645921","189434.61095","190200.979584","176317.563542","177084.403665","189444.664645","Mapping"
"Blocked","m150","done","20","m150jolt.wav","None","728.461217135","133","185618.172953","177851.23946","178617.885113","179384.774395","180151.330078","180918.272229","181685.050827","182451.571264","186384.777796","187134.355542","187901.484124","188667.645921","189434.61095","190200.979584","190967.513626","177084.403665","190210.679893","Mapping"
"Blocked","m150","done","20","m150done.wav","None","726.242899895","133","185618.172953","177851.23946","178617.885113","179384.774395","180151.330078","180918.272229","181685.050827","182451.571264","186384.777796","187134.355542","187901.484124","188667.645921","189434.61095","190200.979584","190967.513626","191734.655502","190976.311767","Mapping"
"Blocked","m150","done","20","m150romp.wav","space","506.595746614","133","185618.172953","192484.171105","178617.885113","179384.774395","180151.330078","180918.272229","181685.050827","182451.571264","186384.777796","187134.355542","187901.484124","188667.645921","189434.61095","190200.979584","190967.513626","191734.655502","191744.025305","Mapping"
"Blocked","m150","done","20","m150cave.wav","None","735.492124688","133","185618.172953","192484.171105","193251.038745","179384.774395","180151.330078","180918.272229","181685.050827","182451.571264","186384.777796","187134.355542","187901.484124","188667.645921","189434.61095","190200.979584","190967.513626","191734.655502","192493.755474","Mapping"
"Blocked","m150","done","20","m150done.wav","None","732.213961426","133","185618.172953","192484.171105","193251.038745","194017.381099","180151.330078","180918.272229","181685.050827","182451.571264","186384.777796","187134.355542","187901.484124","188667.645921","189434.61095","190200.979584","190967.513626","191734.655502","193260.473165","Mapping"
"Blocked","m150","done","20","m150depth.wav","space","626.858246978","133","185618.172953","192484.171105","193251.038745","194017.381099","194784.091369","180918.272229","181685.050827","182451.571264","186384.777796","187134.355542","187901.484124","188667.645921","189434.61095","190200.979584","190967.513626","191734.655502","194023.697816","Mapping"
"Blocked","m150","done","20","m150done.wav","None","679.836929776","133","185618.172953","192484.171105","193251.038745","194017.381099","194784.091369","195551.170483","181685.050827","182451.571264","186384.777796","187134.355542","187901.484124","188667.645921","189434.61095","190200.979584","190967.513626","191734.655502","194839.345567","Mapping"
"Blocked","m150","done","20","m150jolt.wav","space","551.061963663","133","185618.172953","192484.171105","193251.038745","194017.381099","194784.091369","195551.170483","196300.880247","182451.571264","186384.777796","187134.355542","187901.484124","188667.645921","189434.61095","190200.979584","190967.513626","191734.655502","195563.48547","Mapping"
"Blocked","m150","done","20","m150greet.wav","None","735.618267674","133","185618.172953","192484.171105","193251.038745","194017.381099","194784.091369","195551.170483","196300.880247","197067.442114","186384.777796","187134.355542","187901.484124","188667.645921","189434.61095","190200.979584","190967.513626","191734.655502","196309.99931","Mapping"
"Blocked","m150","ball","2","m150tile.wav","None","736.002260819","133","200201.385529","192484.171105","193251.038745","194017.381099","194784.091369","195551.170483","196300.880247","197067.442114","186384.777796","187134.355542","187901.484124","188667.645921","189434.61095","190200.979584","190967.513626","191734.655502","197076.634452","Mapping"
"Blocked","m150","ball","2","m150romp.wav","None","717.843900435","133","200201.385529","192484.171105","193251.038745","194017.381099","194784.091369","195551.170483","196300.880247","197067.442114","200967.510843","187134.355542","187901.484124","188667.645921","189434.61095","190200.979584","190967.513626","191734.655502","200215.96119","Mapping"
"Blocked","m150","ball","2","m150greet.wav","None","722.565902397","133","200201.385529","192484.171105","193251.038745","194017.381099","194784.091369","195551.170483","196300.880247","197067.442114","200967.510843","201717.454651","187901.484124","188667.645921","189434.61095","190200.979584","190967.513626","191734.655502","200976.494798","Mapping"
"Blocked","m150","ball","2","m150ball.wav","None","735.628470313","133","200201.385529","192484.171105","193251.038745","194017.381099","194784.091369","195551.170483","196300.880247","197067.442114","200967.510843","201717.454651","202484.328165","188667.645921","189434.61095","190200.979584","190967.513626","191734.655502","201726.865574","Mapping"
"Blocked","m150","ball","2","m150tile.wav","space","387.542422395","133","200201.385529","192484.171105","193251.038745","194017.381099","194784.091369","195551.170483","196300.880247","197067.442114","200967.510843","201717.454651","202484.328165","203250.773474","189434.61095","190200.979584","190967.513626","191734.655502","202494.891995","Mapping"
"Blocked","m150","ball","2","m150depth.wav","None","729.431402404","133","200201.385529","192484.171105","193251.038745","194017.381099","194784.091369","195551.170483","196300.880247","197067.442114","200967.510843","201717.454651","202484.328165","203250.773474","204017.45159","190200.979584","190967.513626","191734.655502","203259.891919","Mapping"
"Blocked","m150","ball","2","m150ball.wav","None","725.664436352","133","200201.385529","192484.171105","193251.038745","194017.381099","194784.091369","195551.170483","196300.880247","197067.442114","200967.510843","201717.454651","202484.328165","203250.773474","204017.45159","204784.470106","190967.513626","191734.655502","204026.854166","Mapping"
"Blocked","m150","ball","2","m150romp.wav","space","376.040561125","133","200201.385529","192484.171105","193251.038745","194017.381099","194784.091369","195551.170483","196300.880247","197067.442114","200967.510843","201717.454651","202484.328165","203250.773474","204017.45159","204784.470106","205533.980763","191734.655502","204794.353137","Mapping"
"Blocked","m150","ball","2","m150romp.wav","None","735.617030878","133","200201.385529","192484.171105","193251.038745","194017.381099","194784.091369","195551.170483","196300.880247","197067.442114","200967.510843","201717.454651","202484.328165","203250.773474","204017.45159","204784.470106","205533.980763","206300.809446","205543.340053","Mapping"
"Blocked","m150","ball","2","m150ball.wav","None","732.063084841","133","200201.385529","207067.353072","193251.038745","194017.381099","194784.091369","195551.170483","196300.880247","197067.442114","200967.510843","201717.454651","202484.328165","203250.773474","204017.45159","204784.470106","205533.980763","206300.809446","206310.287769","Mapping"
"Blocked","m150","ball","2","m150depth.wav","space","501.606000122","133","200201.385529","207067.353072","207834.235552","194017.381099","194784.091369","195551.170483","196300.880247","197067.442114","200967.510843","201717.454651","202484.328165","203250.773474","204017.45159","204784.470106","205533.980763","206300.809446","207076.713291","Mapping"
"Blocked","m150","ball","2","m150ball.wav","None","724.902633578","133","200201.385529","207067.353072","207834.235552","208601.093298","194784.091369","195551.170483","196300.880247","197067.442114","200967.510843","201717.454651","202484.328165","203250.773474","204017.45159","204784.470106","205533.980763","206300.809446","207844.055202","Mapping"
"Blocked","m150","ball","2","m150done.wav","space","415.491679683","133","200201.385529","207067.353072","207834.235552","208601.093298","209350.353833","195551.170483","196300.880247","197067.442114","200967.510843","201717.454651","202484.328165","203250.773474","204017.45159","204784.470106","205533.980763","206300.809446","208610.820505","Mapping"
"Blocked","m150","ball","2","m150jaw.wav","None","735.50789291","133","200201.385529","207067.353072","207834.235552","208601.093298","209350.353833","210117.265066","196300.880247","197067.442114","200967.510843","201717.454651","202484.328165","203250.773474","204017.45159","204784.470106","205533.980763","206300.809446","209359.887189","Mapping"
"Blocked","m150","ball","2","m150park.wav","None","731.944362633","133","200201.385529","207067.353072","207834.235552","208601.093298","209350.353833","210117.265066","210884.216182","197067.442114","200967.510843","201717.454651","202484.328165","203250.773474","204017.45159","204784.470106","205533.980763","206300.809446","210126.610135","Mapping"
"Blocked","m150","ball","2","m150depth.wav","None","728.041669354","133","200201.385529","207067.353072","207834.235552","208601.093298","209350.353833","210117.265066","210884.216182","211650.737857","200967.510843","201717.454651","202484.328165","203250.773474","204017.45159","204784.470106","205533.980763","206300.809446","210894.050363","Mapping"
"Blocked","m150","cave","10","m150jolt.wav","None","724.902324378","133","214767.570081","207067.353072","207834.235552","208601.093298","209350.353833","210117.265066","210884.216182","211650.737857","200967.510843","201717.454651","202484.328165","203250.773474","204017.45159","204784.470106","205533.980763","206300.809446","211660.326246","Mapping"
"Blocked","m150","cave","10","m150lash.wav","None","720.044904388","133","214767.570081","207067.353072","207834.235552","208601.093298","209350.353833","210117.265066","210884.216182","211650.737857","215534.053109","201717.454651","202484.328165","203250.773474","204017.45159","204784.470106","205533.980763","206300.809446","214777.161561","Mapping"
"Blocked","m150","cave","10","m150done.wav","None","722.004753072","133","214767.570081","207067.353072","207834.235552","208601.093298","209350.353833","210117.265066","210884.216182","211650.737857","215534.053109","216283.782042","202484.328165","203250.773474","204017.45159","204784.470106","205533.980763","206300.809446","215543.633768","Mapping"
"Blocked","m150","cave","10","m150romp.wav","None","733.909158036","133","214767.570081","207067.353072","207834.235552","208601.093298","209350.353833","210117.265066","210884.216182","211650.737857","215534.053109","216283.782042","217050.53405","203250.773474","204017.45159","204784.470106","205533.980763","206300.809446","216295.098399","Mapping"
"Blocked","m150","cave","10","m150cave.wav","None","733.056767378","133","214767.570081","207067.353072","207834.235552","208601.093298","209350.353833","210117.265066","210884.216182","211650.737857","215534.053109","216283.782042","217050.53405","217817.149095","204017.45159","204784.470106","205533.980763","206300.809446","217059.368365","Mapping"
"Blocked","m150","cave","10","m150cling.wav","space","567.365593743","133","214767.570081","207067.353072","207834.235552","208601.093298","209350.353833","210117.265066","210884.216182","211650.737857","215534.053109","216283.782042","217050.53405","217817.149095","218583.706325","204784.470106","205533.980763","206300.809446","217826.781077","Mapping"
"Blocked","m150","cave","10","m150done.wav","None","725.834481884","133","214767.570081","207067.353072","207834.235552","208601.093298","209350.353833","210117.265066","210884.216182","211650.737857","215534.053109","216283.782042","217050.53405","217817.149095","218583.706325","219350.662697","205533.980763","206300.809446","218593.010892","Mapping"
"Blocked","m150","cave","10","m150cave.wav","None","722.369886935","133","214767.570081","207067.353072","207834.235552","208601.093298","209350.353833","210117.265066","210884.216182","211650.737857","215534.053109","216283.782042","217050.53405","217817.149095","218583.706325","219350.662697","220100.684107","206300.809446","219360.065582","Mapping"
"Blocked","m150","cave","10","m150depth.wav","space","420.389601495","133","214767.570081","207067.353072","207834.235552","208601.093298","209350.353833","210117.265066","210884.216182","211650.737857","215534.053109","216283.782042","217050.53405","217817.149095","218583.706325","219350.662697","220100.684107","220867.157242","220109.715057","Mapping"
"Blocked","m150","cave","10","m150priest.wav","None","732.274250127","133","214767.570081","221634.038485","207834.235552","208601.093298","209350.353833","210117.265066","210884.216182","211650.737857","215534.053109","216283.782042","217050.53405","217817.149095","218583.706325","219350.662697","220100.684107","220867.157242","220876.688743","Mapping"
"Blocked","m150","cave","10","m150cave.wav","None","728.664962109","133","214767.570081","221634.038485","222400.317768","208601.093298","209350.353833","210117.265066","210884.216182","211650.737857","215534.053109","216283.782042","217050.53405","217817.149095","218583.706325","219350.662697","220100.684107","220867.157242","221643.782079","Mapping"
"Blocked","m150","cave","10","m150cling.wav","space","432.667487767","133","214767.570081","221634.038485","222400.317768","223167.526735","209350.353833","210117.265066","210884.216182","211650.737857","215534.053109","216283.782042","217050.53405","217817.149095","218583.706325","219350.662697","220100.684107","220867.157242","222409.401277","Mapping"
"Blocked","m150","cave","10","m150cad.wav","None","721.428145189","133","214767.570081","221634.038485","222400.317768","223167.526735","223917.20589","210117.265066","210884.216182","211650.737857","215534.053109","216283.782042","217050.53405","217817.149095","218583.706325","219350.662697","220100.684107","220867.157242","223177.486131","Mapping"
"Blocked","m150","cave","10","m150cave.wav","None","735.810264479","133","214767.570081","221634.038485","222400.317768","223167.526735","223917.20589","224683.605751","210884.216182","211650.737857","215534.053109","216283.782042","217050.53405","217817.149095","218583.706325","219350.662697","220100.684107","220867.157242","223926.557761","Mapping"
"Blocked","m150","cave","10","m150tile.wav","space","597.025815863","133","214767.570081","221634.038485","222400.317768","223167.526735","223917.20589","224683.605751","225450.468135","211650.737857","215534.053109","216283.782042","217050.53405","217817.149095","218583.706325","219350.662697","220100.684107","220867.157242","224692.949274","Mapping"
"Blocked","m150","cave","10","m150ball.wav","None","729.103060439","133","214767.570081","221634.038485","222400.317768","223167.526735","223917.20589","224683.605751","225450.468135","226217.035876","215534.053109","216283.782042","217050.53405","217817.149095","218583.706325","219350.662697","220100.684107","220867.157242","225460.015712","Mapping"
"Blocked","m150","done","19","m150lash.wav","None","725.634137169","133","229334.207881","221634.038485","222400.317768","223167.526735","223917.20589","224683.605751","225450.468135","226217.035876","215534.053109","216283.782042","217050.53405","217817.149095","218583.706325","219350.662697","220100.684107","220867.157242","226226.971466","Mapping"
"Blocked","m150","done","19","m150done.wav","None","719.703576993","133","229334.207881","221634.038485","222400.317768","223167.526735","223917.20589","224683.605751","225450.468135","226217.035876","230083.642481","216283.782042","217050.53405","217817.149095","218583.706325","219350.662697","220100.684107","220867.157242","229344.014855","Mapping"
"Blocked","m150","done","19","m150dime.wav","space","548.540037591","133","229334.207881","221634.038485","222400.317768","223167.526735","223917.20589","224683.605751","225450.468135","226217.035876","230083.642481","230850.374084","217050.53405","217817.149095","218583.706325","219350.662697","220100.684107","220867.157242","230093.374944","Mapping"
"Blocked","m150","done","19","m150done.wav","None","734.644990414","133","229334.207881","221634.038485","222400.317768","223167.526735","223917.20589","224683.605751","225450.468135","226217.035876","230083.642481","230850.374084","231616.884938","217817.149095","218583.706325","219350.662697","220100.684107","220867.157242","230859.799229","Mapping"
"Blocked","m150","done","19","m150jolt.wav","space","391.608358826","133","229334.207881","221634.038485","222400.317768","223167.526735","223917.20589","224683.605751","225450.468135","226217.035876","230083.642481","230850.374084","231616.884938","232383.741447","218583.706325","219350.662697","220100.684107","220867.157242","231626.280093","Mapping"
"Blocked","m150","done","19","m150gnash.wav","None","727.897903882","133","229334.207881","221634.038485","222400.317768","223167.526735","223917.20589","224683.605751","225450.468135","226217.035876","230083.642481","230850.374084","231616.884938","232383.741447","233150.085347","219350.662697","220100.684107","220867.157242","232392.994382","Mapping"
"Blocked","m150","done","19","m150jaw.wav","None","728.627243079","133","229334.207881","221634.038485","222400.317768","223167.526735","223917.20589","224683.605751","225450.468135","226217.035876","230083.642481","230850.374084","231616.884938","232383.741447","233150.085347","233916.706576","220100.684107","220867.157242","233159.212449","Mapping"
"Blocked","m150","done","19","m150lash.wav","None","725.308887195","133","229334.207881","221634.038485","222400.317768","223167.526735","223917.20589","224683.605751","225450.468135","226217.035876","230083.642481","230850.374084","231616.884938","232383.741447","233150.085347","233916.706576","234684.237701","220867.157242","233926.062775","Mapping"
"Blocked","m150","done","19","m150gnash.wav","None","721.062083729","133","229334.207881","221634.038485","222400.317768","223167.526735","223917.20589","224683.605751","225450.468135","226217.035876","230083.642481","230850.374084","231616.884938","232383.741447","233150.085347","233916.706576","234684.237701","235433.26852","234693.831036","Mapping"
"Blocked","m150","done","19","m150jolt.wav","None","735.813974403","133","229334.207881","236200.722352","222400.317768","223167.526735","223917.20589","224683.605751","225450.468135","226217.035876","230083.642481","230850.374084","231616.884938","232383.741447","233150.085347","233916.706576","234684.237701","235433.26852","235442.504451","Mapping"
"Blocked","m150","done","19","m150cling.wav","None","731.889329385","133","229334.207881","236200.722352","236966.826334","223167.526735","223917.20589","224683.605751","225450.468135","226217.035876","230083.642481","230850.374084","231616.884938","232383.741447","233150.085347","233916.706576","234684.237701","235433.26852","236209.979616","Mapping"
"Blocked","m150","done","19","m150done.wav","None","728.944145609","133","229334.207881","236200.722352","236966.826334","237733.36625","223917.20589","224683.605751","225450.468135","226217.035876","230083.642481","230850.374084","231616.884938","232383.741447","233150.085347","233916.706576","234684.237701","235433.26852","236976.444712","Mapping"
"Blocked","m150","done","19","m150depth.wav","space","555.529825389","133","229334.207881","236200.722352","236966.826334","237733.36625","238500.579545","224683.605751","225450.468135","226217.035876","230083.642481","230850.374084","231616.884938","232383.741447","233150.085347","233916.706576","234684.237701","235433.26852","237742.256835","Mapping"
"Blocked","m150","done","19","m150jaw.wav","None","721.259645652","133","229334.207881","236200.722352","236966.826334","237733.36625","238500.579545","239250.686596","225450.468135","226217.035876","230083.642481","230850.374084","231616.884938","232383.741447","233150.085347","233916.706576","234684.237701","235433.26852","238510.751962","Mapping"
"Blocked","m150","done","19","m150done.wav","None","735.752758104","133","229334.207881","236200.722352","236966.826334","237733.36625","238500.579545","239250.686596","240016.695044","226217.035876","230083.642481","230850.374084","231616.884938","232383.741447","233150.085347","233916.706576","234684.237701","235433.26852","239260.142968","Mapping"
"Blocked","m150","done","19","m150knife.wav","space","463.906347286","133","229334.207881","236200.722352","236966.826334","237733.36625","238500.579545","239250.686596","240016.695044","240783.606895","230083.642481","230850.374084","231616.884938","232383.741447","233150.085347","233916.706576","234684.237701","235433.26852","240025.8543","Mapping"
"Blocked","m150","ball","4","m150park.wav","None","730.216702446","133","243917.09397","236200.722352","236966.826334","237733.36625","238500.579545","239250.686596","240016.695044","240783.606895","230083.642481","230850.374084","231616.884938","232383.741447","233150.085347","233916.706576","234684.237701","235433.26852","240792.713901","Mapping"
"Blocked","m150","ball","4","m150ball.wav","None","719.935766421","133","243917.09397","236200.722352","236966.826334","237733.36625","238500.579545","239250.686596","240016.695044","240783.606895","244666.36378","230850.374084","231616.884938","232383.741447","233150.085347","233916.706576","234684.237701","235433.26852","243926.71884","Mapping"
"Blocked","m150","ball","4","m150dime.wav","space","478.086267132","133","243917.09397","236200.722352","236966.826334","237733.36625","238500.579545","239250.686596","240016.695044","240783.606895","244666.36378","245433.593461","231616.884938","232383.741447","233150.085347","233916.706576","234684.237701","235433.26852","244675.582397","Mapping"
"Blocked","m150","ball","4","m150reek.wav","None","730.177128222","133","243917.09397","236200.722352","236966.826334","237733.36625","238500.579545","239250.686596","240016.695044","240783.606895","244666.36378","245433.593461","246200.12503","232383.741447","233150.085347","233916.706576","234684.237701","235433.26852","245443.100228","Mapping"
"Blocked","m150","ball","4","m150depth.wav","None","730.366651434","133","243917.09397","236200.722352","236966.826334","237733.36625","238500.579545","239250.686596","240016.695044","240783.606895","244666.36378","245433.593461","246200.12503","246966.605584","233150.085347","233916.706576","234684.237701","235433.26852","246210.142241","Mapping"
"Blocked","m150","ball","4","m150greet.wav","None","728.241085541","133","243917.09397","236200.722352","236966.826334","237733.36625","238500.579545","239250.686596","240016.695044","240783.606895","244666.36378","245433.593461","246200.12503","246966.605584","247733.54186","233916.706576","234684.237701","235433.26852","246975.915408","Mapping"
"Blocked","m150","ball","4","m150ball.wav","None","724.521731958","133","243917.09397","236200.722352","236966.826334","237733.36625","238500.579545","239250.686596","240016.695044","240783.606895","244666.36378","245433.593461","246200.12503","246966.605584","247733.54186","248500.557903","234684.237701","235433.26852","247743.429219","Mapping"
"Blocked","m150","ball","4","m150depth.wav","space","459.27895233","133","243917.09397","236200.722352","236966.826334","237733.36625","238500.579545","239250.686596","240016.695044","240783.606895","244666.36378","245433.593461","246200.12503","246966.605584","247733.54186","248500.557903","249249.619639","235433.26852","248510.319738","Mapping"
"Blocked","m150","ball","4","m150ball.wav","None","736.025757622","133","243917.09397","236200.722352","236966.826334","237733.36625","238500.579545","239250.686596","240016.695044","240783.606895","244666.36378","245433.593461","246200.12503","246966.605584","247733.54186","248500.557903","249249.619639","250016.607238","249258.624618","Mapping"
"Blocked","m150","ball","4","m150tile.wav","space","631.607456598","133","243917.09397","250783.412425","236966.826334","237733.36625","238500.579545","239250.686596","240016.695044","240783.606895","244666.36378","245433.593461","246200.12503","246966.605584","247733.54186","248500.557903","249249.619639","250016.607238","250025.907477","Mapping"
"Blocked","m150","ball","4","m150bluff.wav","None","729.222401511","133","243917.09397","250783.412425","251549.94523","237733.36625","238500.579545","239250.686596","240016.695044","240783.606895","244666.36378","245433.593461","246200.12503","246966.605584","247733.54186","248500.557903","249249.619639","250016.607238","250792.503972","Mapping"
"Blocked","m150","ball","4","m150gnash.wav","None","725.28755432","133","243917.09397","250783.412425","251549.94523","252316.989407","238500.579545","239250.686596","240016.695044","240783.606895","244666.36378","245433.593461","246200.12503","246966.605584","247733.54186","248500.557903","249249.619639","250016.607238","251560.082091","Mapping"
"Blocked","m150","ball","4","m150ball.wav","None","722.208188847","133","243917.09397","250783.412425","251549.94523","252316.989407","253083.606307","239250.686596","240016.695044","240783.606895","244666.36378","245433.593461","246200.12503","246966.605584","247733.54186","248500.557903","249249.619639","250016.607238","252326.825134","Mapping"
"Blocked","m150","ball","4","m150park.wav","space","515.980698634","133","243917.09397","250783.412425","251549.94523","252316.989407","253083.606307","253833.364302","240016.695044","240783.606895","244666.36378","245433.593461","246200.12503","246966.605584","247733.54186","248500.557903","249249.619639","250016.607238","253093.537569","Mapping"
"Blocked","m150","ball","4","m150dime.wav","None","733.452199958","133","243917.09397","250783.412425","251549.94523","252316.989407","253083.606307","253833.364302","254599.89958","240783.606895","244666.36378","245433.593461","246200.12503","246966.605584","247733.54186","248500.557903","249249.619639","250016.607238","253842.570862","Mapping"
"Blocked","m150","ball","4","m150cad.wav","None","730.332333595","133","243917.09397","250783.412425","251549.94523","252316.989407","253083.606307","253833.364302","254599.89958","255366.486491","244666.36378","245433.593461","246200.12503","246966.605584","247733.54186","248500.557903","249249.619639","250016.607238","254609.448086","Mapping"
"Blocked","m150","cave","12","m150priest.wav","None","727.794021834","133","258483.662824","250783.412425","251549.94523","252316.989407","253083.606307","253833.364302","254599.89958","255366.486491","244666.36378","245433.593461","246200.12503","246966.605584","247733.54186","248500.557903","249249.619639","250016.607238","255375.746846","Mapping"
"Blocked","m150","cave","12","m150romp.wav","None","723.008638714","133","258483.662824","250783.412425","251549.94523","252316.989407","253083.606307","253833.364302","254599.89958","255366.486491","259233.26345","245433.593461","246200.12503","246966.605584","247733.54186","248500.557903","249249.619639","250016.607238","258489.124987","Mapping"
"Blocked","m150","cave","12","m150reek.wav","None","733.170852531","133","258483.662824","250783.412425","251549.94523","252316.989407","253083.606307","253833.364302","254599.89958","255366.486491","259233.26345","259999.68588","246200.12503","246966.605584","247733.54186","248500.557903","249249.619639","250016.607238","259242.676846","Mapping"
"Blocked","m150","cave","12","m150cave.wav","None","730.829483829","133","258483.662824","250783.412425","251549.94523","252316.989407","253083.606307","253833.364302","254599.89958","255366.486491","259233.26345","259999.68588","260766.269698","246966.605584","247733.54186","248500.557903","249249.619639","250016.607238","260008.97468","Mapping"
"Blocked","m150","cave","12","m150dime.wav","space","410.296951886","133","258483.662824","250783.412425","251549.94523","252316.989407","253083.606307","253833.364302","254599.89958","255366.486491","259233.26345","259999.68588","260766.269698","261533.646237","247733.54186","248500.557903","249249.619639","250016.607238","260775.099685","Mapping"
"Blocked","m150","cave","12","m150greet.wav","None","722.794690635","133","258483.662824","250783.412425","251549.94523","252316.989407","253083.606307","253833.364302","254599.89958","255366.486491","259233.26345","259999.68588","260766.269698","261533.646237","262300.296219","248500.557903","249249.619639","250016.607238","261543.517828","Mapping"
"Blocked","m150","cave","12","m150priest.wav","None","719.884752762","133","258483.662824","250783.412425","251549.94523","252316.989407","253083.606307","253833.364302","254599.89958","255366.486491","259233.26345","259999.68588","260766.269698","261533.646237","262300.296219","263049.508523","249249.619639","250016.607238","262310.016933","Mapping"
"Blocked","m150","cave","12","m150cling.wav","None","734.688274562","133","258483.662824","250783.412425","251549.94523","252316.989407","253083.606307","253833.364302","254599.89958","255366.486491","259233.26345","259999.68588","260766.269698","261533.646237","262300.296219","263049.508523","263816.237034","250016.607238","263059.226146","Mapping"
"Blocked","m150","cave","12","m150cave.wav","None","732.426363509","133","258483.662824","250783.412425","251549.94523","252316.989407","253083.606307","253833.364302","254599.89958","255366.486491","259233.26345","259999.68588","260766.269698","261533.646237","262300.296219","263049.508523","263816.237034","264582.917006","263825.186671","Mapping"
"Blocked","m150","cave","12","m150cling.wav","space","617.238013539","133","258483.662824","265349.493713","251549.94523","252316.989407","253083.606307","253833.364302","254599.89958","255366.486491","259233.26345","259999.68588","260766.269698","261533.646237","262300.296219","263049.508523","263816.237034","264582.917006","264592.048436","Mapping"
"Blocked","m150","cave","12","m150cave.wav","None","729.050192051","133","258483.662824","265349.493713","266116.289624","252316.989407","253083.606307","253833.364302","254599.89958","255366.486491","259233.26345","259999.68588","260766.269698","261533.646237","262300.296219","263049.508523","263816.237034","264582.917006","265358.658844","Mapping"
"Blocked","m150","cave","12","m150depth.wav","space","499.078818131","133","258483.662824","265349.493713","266116.289624","266882.939297","253083.606307","253833.364302","254599.89958","255366.486491","259233.26345","259999.68588","260766.269698","261533.646237","262300.296219","263049.508523","263816.237034","264582.917006","266126.173274","Mapping"
"Blocked","m150","cave","12","m150reek.wav","None","721.982802264","133","258483.662824","265349.493713","266116.289624","266882.939297","267633.226596","253833.364302","254599.89958","255366.486491","259233.26345","259999.68588","260766.269698","261533.646237","262300.296219","263049.508523","263816.237034","264582.917006","266892.466469","Mapping"
"Blocked","m150","cave","12","m150cave.wav","None","735.668662935","133","258483.662824","265349.493713","266116.289624","266882.939297","267633.226596","268399.428277","254599.89958","255366.486491","259233.26345","259999.68588","260766.269698","261533.646237","262300.296219","263049.508523","263816.237034","264582.917006","267642.466237","Mapping"
"Blocked","m150","cave","12","m150done.wav","space","600.551627111","133","258483.662824","265349.493713","266116.289624","266882.939297","267633.226596","268399.428277","269166.119379","255366.486491","259233.26345","259999.68588","260766.269698","261533.646237","262300.296219","263049.508523","263816.237034","264582.917006","268408.710584","Mapping"
"Blocked","m150","cave","12","m150greet.wav","None","728.916938417","133","258483.662824","265349.493713","266116.289624","266882.939297","267633.226596","268399.428277","269166.119379","269932.782345","259233.26345","259999.68588","260766.269698","261533.646237","262300.296219","263049.508523","263816.237034","264582.917006","269175.995298","Mapping"
"Blocked","m150","ball","6","m150knife.wav","None","726.709750947","133","273049.742258","265349.493713","266116.289624","266882.939297","267633.226596","268399.428277","269166.119379","269932.782345","259233.26345","259999.68588","260766.269698","261533.646237","262300.296219","263049.508523","263816.237034","264582.917006","269942.009929","Mapping"
"Blocked","m150","ball","6","m150ball.wav","None","719.736349303","133","273049.742258","265349.493713","266116.289624","266882.939297","267633.226596","268399.428277","269166.119379","269932.782345","273799.495615","259999.68588","260766.269698","261533.646237","262300.296219","263049.508523","263816.237034","264582.917006","273059.449987","Mapping"
"Blocked","m150","ball","6","m150depth.wav","space","479.988300707","133","273049.742258","265349.493713","266116.289624","266882.939297","267633.226596","268399.428277","269166.119379","269932.782345","273799.495615","274566.024091","260766.269698","261533.646237","262300.296219","263049.508523","263816.237034","264582.917006","273809.151712","Mapping"
"Blocked","m150","ball","6","m150depth.wav","None","731.084242463","133","273049.742258","265349.493713","266116.289624","266882.939297","267633.226596","268399.428277","269166.119379","269932.782345","273799.495615","274566.024091","275333.007362","261533.646237","262300.296219","263049.508523","263816.237034","264582.917006","274575.054731","Mapping"
"Blocked","m150","ball","6","m150bluff.wav","None","727.823702153","133","273049.742258","265349.493713","266116.289624","266882.939297","267633.226596","268399.428277","269166.119379","269932.782345","273799.495615","274566.024091","275333.007362","276099.487607","262300.296219","263049.508523","263816.237034","264582.917006","275342.121787","Mapping"
"Blocked","m150","ball","6","m150bluff.wav","None","724.424961023","133","273049.742258","265349.493713","266116.289624","266882.939297","267633.226596","268399.428277","269166.119379","269932.782345","273799.495615","274566.024091","275333.007362","276099.487607","276866.404096","263049.508523","263816.237034","264582.917006","276109.173385","Mapping"
"Blocked","m150","ball","6","m150ball.wav","None","720.917700324","133","273049.742258","265349.493713","266116.289624","266882.939297","267633.226596","268399.428277","269166.119379","269932.782345","273799.495615","274566.024091","275333.007362","276099.487607","276866.404096","277615.707915","263816.237034","264582.917006","276876.294547","Mapping"
"Blocked","m150","ball","6","m150jolt.wav","space","544.01281476","133","273049.742258","265349.493713","266116.289624","266882.939297","267633.226596","268399.428277","269166.119379","269932.782345","273799.495615","274566.024091","275333.007362","276099.487607","276866.404096","277615.707915","278383.001905","264582.917006","277625.086993","Mapping"
"Blocked","m150","ball","6","m150cling.wav","None","732.044534758","133","273049.742258","265349.493713","266116.289624","266882.939297","267633.226596","268399.428277","269166.119379","269932.782345","273799.495615","274566.024091","275333.007362","276099.487607","276866.404096","277615.707915","278383.001905","279149.499155","278392.2063","Mapping"
"Blocked","m150","ball","6","m150done.wav","None","728.861596435","133","273049.742258","279916.126258","266116.289624","266882.939297","267633.226596","268399.428277","269166.119379","269932.782345","273799.495615","274566.024091","275333.007362","276099.487607","276866.404096","277615.707915","278383.001905","279149.499155","279159.314167","Mapping"
"Blocked","m150","ball","6","m150ball.wav","None","726.259903982","133","273049.742258","279916.126258","280682.91042","266882.939297","267633.226596","268399.428277","269166.119379","269932.782345","273799.495615","274566.024091","275333.007362","276099.487607","276866.404096","277615.707915","278383.001905","279149.499155","279925.701043","Mapping"
"Blocked","m150","ball","6","m150jolt.wav","space","484.691134188","133","273049.742258","279916.126258","280682.91042","281449.816088","267633.226596","268399.428277","269166.119379","269932.782345","273799.495615","274566.024091","275333.007362","276099.487607","276866.404096","277615.707915","278383.001905","279149.499155","280692.294755","Mapping"
"Blocked","m150","ball","6","m150cave.wav","None","719.561666716","133","273049.742258","279916.126258","280682.91042","281449.816088","282199.32087","268399.428277","269166.119379","269932.782345","273799.495615","274566.024091","275333.007362","276099.487607","276866.404096","277615.707915","278383.001905","279149.499155","281459.710558","Mapping"
"Blocked","m150","ball","6","m150cling.wav","None","733.63863118","133","273049.742258","279916.126258","280682.91042","281449.816088","282199.32087","282965.965596","269166.119379","269932.782345","273799.495615","274566.024091","275333.007362","276099.487607","276866.404096","277615.707915","278383.001905","279149.499155","282209.498234","Mapping"
"Blocked","m150","ball","6","m150ball.wav","None","731.928594876","133","273049.742258","279916.126258","280682.91042","281449.816088","282199.32087","282965.965596","283732.853022","269932.782345","273799.495615","274566.024091","275333.007362","276099.487607","276866.404096","277615.707915","278383.001905","279149.499155","282975.117741","Mapping"
"Blocked","m150","ball","6","m150lash.wav","space","586.695411243","133","273049.742258","279916.126258","280682.91042","281449.816088","282199.32087","282965.965596","283732.853022","284499.203415","273799.495615","274566.024091","275333.007362","276099.487607","276866.404096","277615.707915","278383.001905","279149.499155","283742.294244","Mapping"
"Blocked","m150","tile","16","m150cling.wav","None","726.021840703","133","287616.238766","279916.126258","280682.91042","281449.816088","282199.32087","282965.965596","283732.853022","284499.203415","273799.495615","274566.024091","275333.007362","276099.487607","276866.404096","277615.707915","278383.001905","279149.499155","284508.276103","Mapping"
"Blocked","m150","tile","16","m150lash.wav","None","719.818898477","133","287616.238766","279916.126258","280682.91042","281449.816088","282199.32087","282965.965596","283732.853022","284499.203415","288365.758388","274566.024091","275333.007362","276099.487607","276866.404096","277615.707915","278383.001905","279149.499155","287626.263707","Mapping"
"Blocked","m150","tile","16","m150priest.wav","None","735.107203946","133","287616.238766","279916.126258","280682.91042","281449.816088","282199.32087","282965.965596","283732.853022","284499.203415","288365.758388","289132.821734","275333.007362","276099.487607","276866.404096","277615.707915","278383.001905","279149.499155","288374.951035","Mapping"
"Blocked","m150","tile","16","m150tile.wav","None","731.925502885","133","287616.238766","279916.126258","280682.91042","281449.816088","282199.32087","282965.965596","283732.853022","284499.203415","288365.758388","289132.821734","289899.322076","276099.487607","276866.404096","277615.707915","278383.001905","279149.499155","289142.136504","Mapping"
"Blocked","m150","tile","16","m150jolt.wav","space","596.303896513","133","287616.238766","279916.126258","280682.91042","281449.816088","282199.32087","282965.965596","283732.853022","284499.203415","288365.758388","289132.821734","289899.322076","290665.762438","276866.404096","277615.707915","278383.001905","279149.499155","289908.54564","Mapping"
"Blocked","m150","tile","16","m150depth.wav","None","726.077801082","133","287616.238766","279916.126258","280682.91042","281449.816088","282199.32087","282965.965596","283732.853022","284499.203415","288365.758388","289132.821734","289899.322076","290665.762438","291432.697786","277615.707915","278383.001905","279149.499155","290674.869753","Mapping"
"Blocked","m150","tile","16","m150cling.wav","None","722.793454304","133","287616.238766","279916.126258","280682.91042","281449.816088","282199.32087","282965.965596","283732.853022","284499.203415","288365.758388","289132.821734","289899.322076","290665.762438","291432.697786","292199.642101","278383.001905","279149.499155","291442.182602","Mapping"
"Blocked","m150","tile","16","m150tile.wav","None","719.467677642","133","287616.238766","279916.126258","280682.91042","281449.816088","282199.32087","282965.965596","283732.853022","284499.203415","288365.758388","289132.821734","289899.322076","290665.762438","291432.697786","292199.642101","292949.021049","279149.499155","292209.525441","Mapping"
"Blocked","m150","tile","16","m150priest.wav","space","570.669419132","133","287616.238766","279916.126258","280682.91042","281449.816088","282199.32087","282965.965596","283732.853022","284499.203415","288365.758388","289132.821734","289899.322076","290665.762438","291432.697786","292199.642101","292949.021049","293715.923626","292958.070549","Mapping"
"Blocked","m150","tile","16","m150tile.wav","None","730.418592691","133","287616.238766","294482.560622","280682.91042","281449.816088","282199.32087","282965.965596","283732.853022","284499.203415","288365.758388","289132.821734","289899.322076","290665.762438","291432.697786","292199.642101","292949.021049","293715.923626","293725.75286","Mapping"
"Blocked","m150","tile","16","m150priest.wav","space","684.952509589","133","287616.238766","294482.560622","295249.1633","281449.816088","282199.32087","282965.965596","283732.853022","284499.203415","288365.758388","289132.821734","289899.322076","290665.762438","291432.697786","292199.642101","292949.021049","293715.923626","294491.819741","Mapping"
"Blocked","m150","tile","16","m150park.wav","None","724.927985575","133","287616.238766","294482.560622","295249.1633","296016.141932","282199.32087","282965.965596","283732.853022","284499.203415","288365.758388","289132.821734","289899.322076","290665.762438","291432.697786","292199.642101","292949.021049","293715.923626","295258.346672","Mapping"
"Blocked","m150","tile","16","m150romp.wav","None","721.450405661","133","287616.238766","294482.560622","295249.1633","296016.141932","296766.095016","282965.965596","283732.853022","284499.203415","288365.758388","289132.821734","289899.322076","290665.762438","291432.697786","292199.642101","292949.021049","293715.923626","296025.800503","Mapping"
"Blocked","m150","tile","16","m150jolt.wav","None","736.134586856","133","287616.238766","294482.560622","295249.1633","296016.141932","296766.095016","297532.38512","283732.853022","284499.203415","288365.758388","289132.821734","289899.322076","290665.762438","291432.697786","292199.642101","292949.021049","293715.923626","296775.141114","Mapping"
"Blocked","m150","tile","16","m150tile.wav","None","732.356490102","133","287616.238766","294482.560622","295249.1633","296016.141932","296766.095016","297532.38512","298299.184741","284499.203415","288365.758388","289132.821734","289899.322076","290665.762438","291432.697786","292199.642101","292949.021049","293715.923626","297542.804257","Mapping"
"Blocked","m150","tile","16","m150romp.wav","space","452.148181852","133","287616.238766","294482.560622","295249.1633","296016.141932","296766.095016","297532.38512","298299.184741","299065.472681","288365.758388","289132.821734","289899.322076","290665.762438","291432.697786","292199.642101","292949.021049","293715.923626","298308.542795","Mapping"
"Blocked","m150","done","21","m150greet.wav","None","727.598005906","133","302199.560788","294482.560622","295249.1633","296016.141932","296766.095016","297532.38512","298299.184741","299065.472681","288365.758388","289132.821734","289899.322076","290665.762438","291432.697786","292199.642101","292949.021049","293715.923626","299074.625753","Mapping"
"Blocked","m150","done","21","m150done.wav","None","719.280319288","133","302199.560788","294482.560622","295249.1633","296016.141932","296766.095016","297532.38512","298299.184741","299065.472681","302948.942828","289132.821734","289899.322076","290665.762438","291432.697786","292199.642101","292949.021049","293715.923626","302209.232963","Mapping"
"Blocked","m150","done","21","m150depth.wav","space","425.924729556","133","302199.560788","294482.560622","295249.1633","296016.141932","296766.095016","297532.38512","298299.184741","299065.472681","302948.942828","303715.765019","289899.322076","290665.762438","291432.697786","292199.642101","292949.021049","293715.923626","302958.69477","Mapping"
"Blocked","m150","done","21","m150park.wav","None","730.410245247","133","302199.560788","294482.560622","295249.1633","296016.141932","296766.095016","297532.38512","298299.184741","299065.472681","302948.942828","303715.765019","304482.52754","290665.762438","291432.697786","292199.642101","292949.021049","293715.923626","303725.141006","Mapping"
"Blocked","m150","done","21","m150done.wav","None","727.666332852","133","302199.560788","294482.560622","295249.1633","296016.141932","296766.095016","297532.38512","298299.184741","299065.472681","302948.942828","303715.765019","304482.52754","305248.979342","291432.697786","292199.642101","292949.021049","293715.923626","304491.912802","Mapping"
"Blocked","m150","done","21","m150reek.wav","space","414.304454345","133","302199.560788","294482.560622","295249.1633","296016.141932","296766.095016","297532.38512","298299.184741","299065.472681","302948.942828","303715.765019","304482.52754","305248.979342","306015.995075","292199.642101","292949.021049","293715.923626","305258.279581","Mapping"
"Blocked","m150","done","21","m150depth.wav","None","720.103337895","133","302199.560788","294482.560622","295249.1633","296016.141932","296766.095016","297532.38512","298299.184741","299065.472681","302948.942828","303715.765019","304482.52754","305248.979342","306015.995075","306765.137197","292949.021049","293715.923626","306026.441729","Mapping"
"Blocked","m150","done","21","m150tile.wav","None","736.13644205","133","302199.560788","294482.560622","295249.1633","296016.141932","296766.095016","297532.38512","298299.184741","299065.472681","302948.942828","303715.765019","304482.52754","305248.979342","306015.995075","306765.137197","307532.496113","293715.923626","306774.48845","Mapping"
"Blocked","m150","done","21","m150done.wav","None","732.447387185","133","302199.560788","294482.560622","295249.1633","296016.141932","296766.095016","297532.38512","298299.184741","299065.472681","302948.942828","303715.765019","304482.52754","305248.979342","306015.995075","306765.137197","307532.496113","308298.707068","307541.98031","Mapping"
"Blocked","m150","done","21","m150jolt.wav","space","436.749810819","133","302199.560788","309065.597896","295249.1633","296016.141932","296766.095016","297532.38512","298299.184741","299065.472681","302948.942828","303715.765019","304482.52754","305248.979342","306015.995075","306765.137197","307532.496113","308298.707068","308307.775428","Mapping"
"Blocked","m150","done","21","m150ball.wav","None","726.36749642","133","302199.560788","309065.597896","309832.795423","296016.141932","296766.095016","297532.38512","298299.184741","299065.472681","302948.942828","303715.765019","304482.52754","305248.979342","306015.995075","306765.137197","307532.496113","308298.707068","309075.076219","Mapping"
"Blocked","m150","done","21","m150done.wav","None","722.561574541","133","302199.560788","309065.597896","309832.795423","310599.280925","296766.095016","297532.38512","298299.184741","299065.472681","302948.942828","303715.765019","304482.52754","305248.979342","306015.995075","306765.137197","307532.496113","308298.707068","309842.861175","Mapping"
"Blocked","m150","done","21","m150depth.wav","space","535.002580378","133","302199.560788","309065.597896","309832.795423","310599.280925","311348.875985","297532.38512","298299.184741","299065.472681","302948.942828","303715.765019","304482.52754","305248.979342","306015.995075","306765.137197","307532.496113","308298.707068","310609.457979","Mapping"
"Blocked","m150","done","21","m150priest.wav","None","734.46597904","133","302199.560788","309065.597896","309832.795423","310599.280925","311348.875985","312115.328714","298299.184741","299065.472681","302948.942828","303715.765019","304482.52754","305248.979342","306015.995075","306765.137197","307532.496113","308298.707068","311358.038642","Mapping"
"Blocked","m150","done","21","m150park.wav","None","732.24055022","133","302199.560788","309065.597896","309832.795423","310599.280925","311348.875985","312115.328714","312882.283232","299065.472681","302948.942828","303715.765019","304482.52754","305248.979342","306015.995075","306765.137197","307532.496113","308298.707068","312124.278351","Mapping"
"Blocked","m150","done","21","m150depth.wav","None","728.5712827","133","302199.560788","309065.597896","309832.795423","310599.280925","311348.875985","312115.328714","312882.283232","313648.889929","302948.942828","303715.765019","304482.52754","305248.979342","306015.995075","306765.137197","307532.496113","308298.707068","312891.873166","Mapping"
"Blocked","m150","tile","13","m150knife.wav","None","725.897243712","133","316765.888179","309065.597896","309832.795423","310599.280925","311348.875985","312115.328714","312882.283232","313648.889929","302948.942828","303715.765019","304482.52754","305248.979342","306015.995075","306765.137197","307532.496113","308298.707068","313658.394841","Mapping"
"Blocked","m150","tile","13","m150tile.wav","None","720.169810113","133","316765.888179","309065.597896","309832.795423","310599.280925","311348.875985","312115.328714","312882.283232","313648.889929","317515.250123","303715.765019","304482.52754","305248.979342","306015.995075","306765.137197","307532.496113","308298.707068","316775.320126","Mapping"
"Blocked","m150","tile","13","m150dime.wav","space","555.281868204","133","316765.888179","309065.597896","309832.795423","310599.280925","311348.875985","312115.328714","312882.283232","313648.889929","317515.250123","318282.138786","304482.52754","305248.979342","306015.995075","306765.137197","307532.496113","308298.707068","317525.069773","Mapping"
"Blocked","m150","tile","13","m150cad.wav","None","731.326016132","133","316765.888179","309065.597896","309832.795423","310599.280925","311348.875985","312115.328714","312882.283232","313648.889929","317515.250123","318282.138786","319048.767434","305248.979342","306015.995075","306765.137197","307532.496113","308298.707068","318291.328032","Mapping"
"Blocked","m150","tile","13","m150bluff.wav","None","727.410028689","133","316765.888179","309065.597896","309832.795423","310599.280925","311348.875985","312115.328714","312882.283232","313648.889929","317515.250123","318282.138786","319048.767434","319815.335176","306015.995075","306765.137197","307532.496113","308298.707068","319059.213778","Mapping"
"Blocked","m150","tile","13","m150tile.wav","None","726.105626673","133","316765.888179","309065.597896","309832.795423","310599.280925","311348.875985","312115.328714","312882.283232","313648.889929","317515.250123","318282.138786","319048.767434","319815.335176","320582.557747","306765.137197","307532.496113","308298.707068","319824.567088","Mapping"
"Blocked","m150","tile","13","m150reek.wav","space","455.989040434","133","316765.888179","309065.597896","309832.795423","310599.280925","311348.875985","312115.328714","312882.283232","313648.889929","317515.250123","318282.138786","319048.767434","319815.335176","320582.557747","321349.115903","307532.496113","308298.707068","320592.320818","Mapping"
"Blocked","m150","tile","13","m150cad.wav","None","718.809138983","133","316765.888179","309065.597896","309832.795423","310599.280925","311348.875985","312115.328714","312882.283232","313648.889929","317515.250123","318282.138786","319048.767434","319815.335176","320582.557747","321349.115903","322098.716529","308298.707068","321359.031707","Mapping"
"Blocked","m150","tile","13","m150greet.wav","None","734.024170786","133","316765.888179","309065.597896","309832.795423","310599.280925","311348.875985","312115.328714","312882.283232","313648.889929","317515.250123","318282.138786","319048.767434","319815.335176","320582.557747","321349.115903","322098.716529","322865.284271","322107.990488","Mapping"
"Blocked","m150","tile","13","m150jaw.wav","None","730.987780262","133","316765.888179","323632.099042","309832.795423","310599.280925","311348.875985","312115.328714","312882.283232","313648.889929","317515.250123","318282.138786","319048.767434","319815.335176","320582.557747","321349.115903","322098.716529","322865.284271","322875.22759","Mapping"
"Blocked","m150","tile","13","m150done.wav","None","728.382377885","133","316765.888179","323632.099042","324398.706357","310599.280925","311348.875985","312115.328714","312882.283232","313648.889929","317515.250123","318282.138786","319048.767434","319815.335176","320582.557747","321349.115903","322098.716529","322865.284271","323641.850983","Mapping"
"Blocked","m150","tile","13","m150cling.wav","None","726.200542878","133","316765.888179","323632.099042","324398.706357","325165.59533","311348.875985","312115.328714","312882.283232","313648.889929","317515.250123","318282.138786","319048.767434","319815.335176","320582.557747","321349.115903","322098.716529","322865.284271","324408.388734","Mapping"
"Blocked","m150","tile","13","m150tile.wav","None","723.554019816","133","316765.888179","323632.099042","324398.706357","325165.59533","325932.209757","312115.328714","312882.283232","313648.889929","317515.250123","318282.138786","319048.767434","319815.335176","320582.557747","321349.115903","322098.716529","322865.284271","325175.199177","Mapping"
"Blocked","m150","tile","13","m150greet.wav","space","433.671063744","133","316765.888179","323632.099042","324398.706357","325165.59533","325932.209757","326681.910864","312882.283232","313648.889929","317515.250123","318282.138786","319048.767434","319815.335176","320582.557747","321349.115903","322098.716529","322865.284271","325942.535214","Mapping"
"Blocked","m150","tile","13","m150tile.wav","None","734.531524125","133","316765.888179","323632.099042","324398.706357","325165.59533","325932.209757","326681.910864","327448.396365","313648.889929","317515.250123","318282.138786","319048.767434","319815.335176","320582.557747","321349.115903","322098.716529","322865.284271","326691.430306","Mapping"
"Blocked","m150","tile","13","m150knife.wav","space","502.59937346","133","316765.888179","323632.099042","324398.706357","325165.59533","325932.209757","326681.910864","327448.396365","328214.727589","317515.250123","318282.138786","319048.767434","319815.335176","320582.557747","321349.115903","322098.716529","322865.284271","327457.513264","Mapping"
"Blocked","m150","ball","5","m150priest.wav","None","730.977886822","133","331349.01264","323632.099042","324398.706357","325165.59533","325932.209757","326681.910864","327448.396365","328214.727589","317515.250123","318282.138786","319048.767434","319815.335176","320582.557747","321349.115903","322098.716529","322865.284271","328223.898285","Mapping"
"Blocked","m150","ball","5","m150ball.wav","None","719.507252332","133","331349.01264","323632.099042","324398.706357","325165.59533","325932.209757","326681.910864","327448.396365","328214.727589","332098.62656","318282.138786","319048.767434","319815.335176","320582.557747","321349.115903","322098.716529","322865.284271","331358.602574","Mapping"
"Blocked","m150","ball","5","m150park.wav","space","468.117905315","133","331349.01264","323632.099042","324398.706357","325165.59533","325932.209757","326681.910864","327448.396365","328214.727589","332098.62656","332865.515223","319048.767434","319815.335176","320582.557747","321349.115903","322098.716529","322865.284271","332107.984305","Mapping"
"Blocked","m150","ball","5","m150cave.wav","None","729.884959757","133","331349.01264","323632.099042","324398.706357","325165.59533","325932.209757","326681.910864","327448.396365","328214.727589","332098.62656","332865.515223","333631.91663","319815.335176","320582.557747","321349.115903","322098.716529","322865.284271","332875.04425","Mapping"
"Blocked","m150","ball","5","m150gnash.wav","None","727.940260433","133","331349.01264","323632.099042","324398.706357","325165.59533","325932.209757","326681.910864","327448.396365","328214.727589","332098.62656","332865.515223","333631.91663","334398.276607","320582.557747","321349.115903","322098.716529","322865.284271","333641.149469","Mapping"
"Blocked","m150","ball","5","m150done.wav","None","725.821187254","133","331349.01264","323632.099042","324398.706357","325165.59533","325932.209757","326681.910864","327448.396365","328214.727589","332098.62656","332865.515223","333631.91663","334398.276607","335165.433014","321349.115903","322098.716529","322865.284271","334407.429988","Mapping"
"Blocked","m150","ball","5","m150romp.wav","None","721.598499455","133","331349.01264","323632.099042","324398.706357","325165.59533","325932.209757","326681.910864","327448.396365","328214.727589","332098.62656","332865.515223","333631.91663","334398.276607","335165.433014","335932.257369","322098.716529","322865.284271","335175.762182","Mapping"
"Blocked","m150","ball","5","m150ball.wav","None","719.265478663","133","331349.01264","323632.099042","324398.706357","325165.59533","325932.209757","326681.910864","327448.396365","328214.727589","332098.62656","332865.515223","333631.91663","334398.276607","335165.433014","335932.257369","336681.714229","322865.284271","335942.112884","Mapping"
"Blocked","m150","ball","5","m150bluff.wav","space","372.588642407","133","331349.01264","323632.099042","324398.706357","325165.59533","325932.209757","326681.910864","327448.396365","328214.727589","332098.62656","332865.515223","333631.91663","334398.276607","335165.433014","335932.257369","336681.714229","337448.239305","336691.416393","Mapping"
"Blocked","m150","ball","5","m150priest.wav","None","731.218732893","133","331349.01264","338215.085612","324398.706357","325165.59533","325932.209757","326681.910864","327448.396365","328214.727589","332098.62656","332865.515223","333631.91663","334398.276607","335165.433014","335932.257369","336681.714229","337448.239305","337457.696913","Mapping"
"Blocked","m150","ball","5","m150cling.wav","None","728.463381529","133","331349.01264","338215.085612","338981.829891","325165.59533","325932.209757","326681.910864","327448.396365","328214.727589","332098.62656","332865.515223","333631.91663","334398.276607","335165.433014","335932.257369","336681.714229","337448.239305","338224.584958","Mapping"
"Blocked","m150","ball","5","m150ball.wav","None","725.868799724","133","331349.01264","338215.085612","338981.829891","339748.660739","325932.209757","326681.910864","327448.396365","328214.727589","332098.62656","332865.515223","333631.91663","334398.276607","335165.433014","335932.257369","336681.714229","337448.239305","338991.331402","Mapping"
"Blocked","m150","ball","5","m150jolt.wav","space","401.229210664","133","331349.01264","338215.085612","338981.829891","339748.660739","340515.027518","326681.910864","327448.396365","328214.727589","332098.62656","332865.515223","333631.91663","334398.276607","335165.433014","335932.257369","336681.714229","337448.239305","339758.732674","Mapping"
"Blocked","m150","ball","5","m150ball.wav","None","719.839613419","133","331349.01264","338215.085612","338981.829891","339748.660739","340515.027518","341264.650095","327448.396365","328214.727589","332098.62656","332865.515223","333631.91663","334398.276607","335165.433014","335932.257369","336681.714229","337448.239305","340524.639713","Mapping"
"Blocked","m150","ball","5","m150cad.wav","space","366.018402856","133","331349.01264","338215.085612","338981.829891","339748.660739","340515.027518","341264.650095","342031.642022","328214.727589","332098.62656","332865.515223","333631.91663","334398.276607","335165.433014","335932.257369","336681.714229","337448.239305","341273.915706","Mapping"
"Blocked","m150","ball","5","m150jaw.wav","None","730.67860771","133","331349.01264","338215.085612","338981.829891","339748.660739","340515.027518","341264.650095","342031.642022","342798.142364","332098.62656","332865.515223","333631.91663","334398.276607","335165.433014","335932.257369","336681.714229","337448.239305","342041.193928","Mapping"
"Blocked","m150","tile","14","m150bluff.wav","None","728.762661107","133","345931.981278","338215.085612","338981.829891","339748.660739","340515.027518","341264.650095","342031.642022","342798.142364","332098.62656","332865.515223","333631.91663","334398.276607","335165.433014","335932.257369","336681.714229","337448.239305","342807.207013","Mapping"
"Blocked","m150","tile","14","m150depth.wav","None","718.443386722","133","345931.981278","338215.085612","338981.829891","339748.660739","340515.027518","341264.650095","342031.642022","342798.142364","346681.529653","332865.515223","333631.91663","334398.276607","335165.433014","335932.257369","336681.714229","337448.239305","345942.318793","Mapping"
"Blocked","m150","tile","14","m150cling.wav","None","734.20998361","133","345931.981278","338215.085612","338981.829891","339748.660739","340515.027518","341264.650095","342031.642022","342798.142364","346681.529653","347448.081936","333631.91663","334398.276607","335165.433014","335932.257369","336681.714229","337448.239305","346690.809796","Mapping"
"Blocked","m150","tile","14","m150tile.wav","None","732.22107254","133","345931.981278","338215.085612","338981.829891","339748.660739","340515.027518","341264.650095","342031.642022","342798.142364","346681.529653","347448.081936","348214.884958","334398.276607","335165.433014","335932.257369","336681.714229","337448.239305","347457.127725","Mapping"
"Blocked","m150","tile","14","m150done.wav","space","503.522255924","133","345931.981278","338215.085612","338981.829891","339748.660739","340515.027518","341264.650095","342031.642022","342798.142364","346681.529653","347448.081936","348214.884958","348981.703748","335165.433014","335932.257369","336681.714229","337448.239305","348224.260326","Mapping"
"Blocked","m150","tile","14","m150cave.wav","None","724.98054523","133","345931.981278","338215.085612","338981.829891","339748.660739","340515.027518","341264.650095","342031.642022","342798.142364","346681.529653","347448.081936","348214.884958","348981.703748","349748.461322","335932.257369","336681.714229","337448.239305","348991.435284","Mapping"
"Blocked","m150","tile","14","m150depth.wav","None","722.664838191","133","345931.981278","338215.085612","338981.829891","339748.660739","340515.027518","341264.650095","342031.642022","342798.142364","346681.529653","347448.081936","348214.884958","348981.703748","349748.461322","350515.053179","336681.714229","337448.239305","349758.276953","Mapping"
"Blocked","m150","tile","14","m150park.wav","None","720.058507752","133","345931.981278","338215.085612","338981.829891","339748.660739","340515.027518","341264.650095","342031.642022","342798.142364","346681.529653","347448.081936","348214.884958","348981.703748","349748.461322","350515.053179","351264.350506","337448.239305","350525.118313","Mapping"
"Blocked","m150","tile","14","m150tile.wav","None","736.156538129","133","345931.981278","338215.085612","338981.829891","339748.660739","340515.027518","341264.650095","342031.642022","342798.142364","346681.529653","347448.081936","348214.884958","348981.703748","349748.461322","350515.053179","351264.350506","352031.285855","351273.359813","Mapping"
"Blocked","m150","tile","14","m150cad.wav","space","439.275446348","133","345931.981278","352798.194614","338981.829891","339748.660739","340515.027518","341264.650095","342031.642022","342798.142364","346681.529653","347448.081936","348214.884958","348981.703748","349748.461322","350515.053179","351264.350506","352031.285855","352040.468917","Mapping"
"Blocked","m150","tile","14","m150knife.wav","None","728.834698442","133","345931.981278","352798.194614","353564.669294","339748.660739","340515.027518","341264.650095","342031.642022","342798.142364","346681.529653","347448.081936","348214.884958","348981.703748","349748.461322","350515.053179","351264.350506","352031.285855","352808.223574","Mapping"
"Blocked","m150","tile","14","m150tile.wav","None","727.369526867","133","345931.981278","352798.194614","353564.669294","354331.508799","340515.027518","341264.650095","342031.642022","342798.142364","346681.529653","347448.081936","348214.884958","348981.703748","349748.461322","350515.053179","351264.350506","352031.285855","353574.319517","Mapping"
"Blocked","m150","tile","14","m150depth.wav","space","458.587022964","133","345931.981278","352798.194614","353564.669294","354331.508799","355098.181351","341264.650095","342031.642022","342798.142364","346681.529653","347448.081936","348214.884958","348981.703748","349748.461322","350515.053179","351264.350506","352031.285855","354341.102134","Mapping"
"Blocked","m150","tile","14","m150tile.wav","None","721.589533612","133","345931.981278","352798.194614","353564.669294","354331.508799","355098.181351","355848.160095","342031.642022","342798.142364","346681.529653","347448.081936","348214.884958","348981.703748","349748.461322","350515.053179","351264.350506","352031.285855","355107.695228","Mapping"
"Blocked","m150","tile","14","m150jaw.wav","space","382.129108533","133","345931.981278","352798.194614","353564.669294","354331.508799","355098.181351","355848.160095","356614.635393","342798.142364","346681.529653","347448.081936","348214.884958","348981.703748","349748.461322","350515.053179","351264.350506","352031.285855","355857.532681","Mapping"
"Blocked","m150","tile","14","m150greet.wav","None","732.676484622","133","345931.981278","352798.194614","353564.669294","354331.508799","355098.181351","355848.160095","356614.635393","357381.194788","346681.529653","347448.081936","348214.884958","348981.703748","349748.461322","350515.053179","351264.350506","352031.285855","356623.986028","Mapping"
"Blocked","m150","tile","15","m150ball.wav","None","730.435597245","133","360514.927346","352798.194614","353564.669294","354331.508799","355098.181351","355848.160095","356614.635393","357381.194788","346681.529653","347448.081936","348214.884958","348981.703748","349748.461322","350515.053179","351264.350506","352031.285855","357390.632608","Mapping"
"Blocked","m150","tile","15","m150knife.wav","None","720.089116134","133","360514.927346","352798.194614","353564.669294","354331.508799","355098.181351","355848.160095","356614.635393","357381.194788","361264.392863","347448.081936","348214.884958","348981.703748","349748.461322","350515.053179","351264.350506","352031.285855","360524.567366","Mapping"
"Blocked","m150","tile","15","m150priest.wav","None","735.252206214","133","360514.927346","352798.194614","353564.669294","354331.508799","355098.181351","355848.160095","356614.635393","357381.194788","361264.392863","362031.51557","348214.884958","348981.703748","349748.461322","350515.053179","351264.350506","352031.285855","361273.639615","Mapping"
"Blocked","m150","tile","15","m150priest.wav","None","731.901078019","133","360514.927346","352798.194614","353564.669294","354331.508799","355098.181351","355848.160095","356614.635393","357381.194788","361264.392863","362031.51557","362798.043119","348981.703748","349748.461322","350515.053179","351264.350506","352031.285855","362041.207222","Mapping"
"Blocked","m150","tile","15","m150tile.wav","None","729.874757119","133","360514.927346","352798.194614","353564.669294","354331.508799","355098.181351","355848.160095","356614.635393","357381.194788","361264.392863","362031.51557","362798.043119","363564.532949","349748.461322","350515.053179","351264.350506","352031.285855","362807.646348","Mapping"
"Blocked","m150","tile","15","m150cad.wav","space","425.397588871","133","360514.927346","352798.194614","353564.669294","354331.508799","355098.181351","355848.160095","356614.635393","357381.194788","361264.392863","362031.51557","362798.043119","363564.532949","364331.424086","350515.053179","351264.350506","352031.285855","363574.100314","Mapping"
"Blocked","m150","tile","15","m150tile.wav","None","724.032002036","133","360514.927346","352798.194614","353564.669294","354331.508799","355098.181351","355848.160095","356614.635393","357381.194788","361264.392863","362031.51557","362798.043119","363564.532949","364331.424086","365098.344903","351264.350506","352031.285855","364341.239407","Mapping"
"Blocked","m150","tile","15","m150park.wav","space","427.235314157","133","360514.927346","352798.194614","353564.669294","354331.508799","355098.181351","355848.160095","356614.635393","357381.194788","361264.392863","362031.51557","362798.043119","363564.532949","364331.424086","365098.344903","365847.545458","352031.285855","365108.266271","Mapping"
"Blocked","m150","tile","15","m150cad.wav","None","735.936406534","133","360514.927346","352798.194614","353564.669294","354331.508799","355098.181351","355848.160095","356614.635393","357381.194788","361264.392863","362031.51557","362798.043119","363564.532949","364331.424086","365098.344903","365847.545458","366614.476169","365856.703787","Mapping"
"Blocked","m150","tile","15","m150greet.wav","None","733.179818839","133","360514.927346","367381.259095","353564.669294","354331.508799","355098.181351","355848.160095","356614.635393","357381.194788","361264.392863","362031.51557","362798.043119","363564.532949","364331.424086","365098.344903","365847.545458","366614.476169","366623.830204","Mapping"
"Blocked","m150","tile","15","m150lash.wav","None","730.907086283","133","360514.927346","367381.259095","368147.762838","354331.508799","355098.181351","355848.160095","356614.635393","357381.194788","361264.392863","362031.51557","362798.043119","363564.532949","364331.424086","365098.344903","365847.545458","366614.476169","367390.579431","Mapping"
"Blocked","m150","tile","15","m150tile.wav","None","728.55149582","133","360514.927346","367381.259095","368147.762838","368914.447138","355098.181351","355848.160095","356614.635393","357381.194788","361264.392863","362031.51557","362798.043119","363564.532949","364331.424086","365098.344903","365847.545458","366614.476169","368157.432848","Mapping"
"Blocked","m150","tile","15","m150lash.wav","space","395.626064856","133","360514.927346","367381.259095","368147.762838","368914.447138","369681.823058","355848.160095","356614.635393","357381.194788","361264.392863","362031.51557","362798.043119","363564.532949","364331.424086","365098.344903","365847.545458","366614.476169","368923.823743","Mapping"
"Blocked","m150","tile","15","m150tile.wav","None","721.653223038","133","360514.927346","367381.259095","368147.762838","368914.447138","369681.823058","370448.228175","356614.635393","357381.194788","361264.392863","362031.51557","362798.043119","363564.532949","364331.424086","365098.344903","365847.545458","366614.476169","369691.851091","Mapping"
"Blocked","m150","tile","15","m150cling.wav","space","365.586796775","133","360514.927346","367381.259095","368147.762838","368914.447138","369681.823058","370448.228175","371197.958962","357381.194788","361264.392863","362031.51557","362798.043119","363564.532949","364331.424086","365098.344903","365847.545458","366614.476169","370457.833568","Mapping"
"Blocked","m150","tile","15","m150knife.wav","None","733.595656697","133","360514.927346","367381.259095","368147.762838","368914.447138","369681.823058","370448.228175","371197.958962","371964.233298","361264.392863","362031.51557","362798.043119","363564.532949","364331.424086","365098.344903","365847.545458","366614.476169","371207.302794","Mapping"
"Blocked","m150","cave","8","m150priest.wav","None","731.833369471","133","375098.031092","367381.259095","368147.762838","368914.447138","369681.823058","370448.228175","371197.958962","371964.233298","361264.392863","362031.51557","362798.043119","363564.532949","364331.424086","365098.344903","365847.545458","366614.476169","371973.543431","Mapping"
"Blocked","m150","cave","8","m150cave.wav","None","719.409553334","133","375098.031092","367381.259095","368147.762838","368914.447138","369681.823058","370448.228175","371197.958962","371964.233298","375847.673765","362031.51557","362798.043119","363564.532949","364331.424086","365098.344903","365847.545458","366614.476169","375107.895881","Mapping"
"Blocked","m150","cave","8","m150greet.wav","space","414.242620114","133","375098.031092","367381.259095","368147.762838","368914.447138","369681.823058","370448.228175","371197.958962","371964.233298","375847.673765","376614.218319","362798.043119","363564.532949","364331.424086","365098.344903","365847.545458","366614.476169","375857.012651","Mapping"
"Blocked","m150","cave","8","m150romp.wav","None","731.372391805","133","375098.031092","367381.259095","368147.762838","368914.447138","369681.823058","370448.228175","371197.958962","371964.233298","375847.673765","376614.218319","377380.796881","363564.532949","364331.424086","365098.344903","365847.545458","366614.476169","376623.305538","Mapping"
"Blocked","m150","cave","8","m150cad.wav","None","728.962696157","133","375098.031092","367381.259095","368147.762838","368914.447138","369681.823058","370448.228175","371197.958962","371964.233298","375847.673765","376614.218319","377380.796881","378147.743051","364331.424086","365098.344903","365847.545458","366614.476169","377390.183071","Mapping"
"Blocked","m150","cave","8","m150jaw.wav","space","378.325041849","133","375098.031092","367381.259095","368147.762838","368914.447138","369681.823058","370448.228175","371197.958962","371964.233298","375847.673765","376614.218319","377380.796881","378147.743051","378914.803615","365098.344903","365847.545458","366614.476169","378156.953012","Mapping"
"Blocked","m150","cave","8","m150bluff.wav","None","721.918493975","133","375098.031092","367381.259095","368147.762838","368914.447138","369681.823058","370448.228175","371197.958962","371964.233298","375847.673765","376614.218319","377380.796881","378147.743051","378914.803615","379681.510484","365847.545458","366614.476169","378924.514436","Mapping"
"Blocked","m150","cave","8","m150cave.wav","None","719.840850215","133","375098.031092","367381.259095","368147.762838","368914.447138","369681.823058","370448.228175","371197.958962","371964.233298","375847.673765","376614.218319","377380.796881","378147.743051","378914.803615","379681.510484","380430.865626","366614.476169","379691.074757","Mapping"
"Blocked","m150","cave","8","m150reek.wav","space","614.87314757","133","375098.031092","367381.259095","368147.762838","368914.447138","369681.823058","370448.228175","371197.958962","371964.233298","375847.673765","376614.218319","377380.796881","378147.743051","378914.803615","379681.510484","380430.865626","381197.621963","380440.338384","Mapping"
"Blocked","m150","cave","8","m150priest.wav","None","730.951916426","133","375098.031092","381964.275655","368147.762838","368914.447138","369681.823058","370448.228175","371197.958962","371964.233298","375847.673765","376614.218319","377380.796881","378147.743051","378914.803615","379681.510484","380430.865626","381197.621963","381207.546732","Mapping"
"Blocked","m150","cave","8","m150tile.wav","None","728.931160644","133","375098.031092","381964.275655","382730.931511","368914.447138","369681.823058","370448.228175","371197.958962","371964.233298","375847.673765","376614.218319","377380.796881","378147.743051","378914.803615","379681.510484","380430.865626","381197.621963","381973.927733","Mapping"
"Blocked","m150","cave","8","m150cave.wav","None","727.171655744","133","375098.031092","381964.275655","382730.931511","383497.656312","369681.823058","370448.228175","371197.958962","371964.233298","375847.673765","376614.218319","377380.796881","378147.743051","378914.803615","379681.510484","380430.865626","381197.621963","382740.22433","Mapping"
"Blocked","m150","cave","8","m150priest.wav","space","523.581103887","133","375098.031092","381964.275655","382730.931511","383497.656312","384264.527662","370448.228175","371197.958962","371964.233298","375847.673765","376614.218319","377380.796881","378147.743051","378914.803615","379681.510484","380430.865626","381197.621963","383507.563767","Mapping"
"Blocked","m150","cave","8","m150cave.wav","None","720.640681218","133","375098.031092","381964.275655","382730.931511","383497.656312","384264.527662","385014.068617","371197.958962","371964.233298","375847.673765","376614.218319","377380.796881","378147.743051","378914.803615","379681.510484","380430.865626","381197.621963","384274.148823","Mapping"
"Blocked","m150","cave","8","m150bluff.wav","space","597.020869143","133","375098.031092","381964.275655","382730.931511","383497.656312","384264.527662","385014.068617","385780.851853","371964.233298","375847.673765","376614.218319","377380.796881","378147.743051","378914.803615","379681.510484","380430.865626","381197.621963","385018.116313","Mapping"
"Blocked","m150","cave","8","m150jaw.wav","None","732.656078879","133","375098.031092","381964.275655","382730.931511","383497.656312","384264.527662","385014.068617","385780.851853","386547.591494","375847.673765","376614.218319","377380.796881","378147.743051","378914.803615","379681.510484","380430.865626","381197.621963","385790.107571","Mapping"
"Blocked","m150","tile","17","m150lash.wav","None","729.594027624","133","389681.210277","381964.275655","382730.931511","383497.656312","384264.527662","385014.068617","385780.851853","386547.591494","375847.673765","376614.218319","377380.796881","378147.743051","378914.803615","379681.510484","380430.865626","381197.621963","386557.400323","Mapping"
"Blocked","m150","tile","17","m150priest.wav","None","718.627036083","133","389681.210277","381964.275655","382730.931511","383497.656312","384264.527662","385014.068617","385780.851853","386547.591494","390430.659717","376614.218319","377380.796881","378147.743051","378914.803615","379681.510484","380430.865626","381197.621963","389691.370945","Mapping"
"Blocked","m150","tile","17","m150knife.wav","space","47.2611426376","133","389681.210277","381964.275655","382730.931511","383497.656312","384264.527662","385014.068617","385780.851853","386547.591494","390430.659717","391197.572496","377380.796881","378147.743051","378914.803615","379681.510484","380430.865626","381197.621963","390439.805369","Mapping"
"Blocked","m150","tile","17","m150done.wav","None","730.196297169","133","389681.210277","381964.275655","382730.931511","383497.656312","384264.527662","385014.068617","385780.851853","386547.591494","390430.659717","391197.572496","391963.83632","378147.743051","378914.803615","379681.510484","380430.865626","381197.621963","391207.418425","Mapping"
"Blocked","m150","tile","17","m150tile.wav","None","729.272487573","133","389681.210277","381964.275655","382730.931511","383497.656312","384264.527662","385014.068617","385780.851853","386547.591494","390430.659717","391197.572496","391963.83632","392730.897193","378914.803615","379681.510484","380430.865626","381197.621963","391972.92292","Mapping"
"Blocked","m150","tile","17","m150cling.wav","space","427.168533206","133","389681.210277","381964.275655","382730.931511","383497.656312","384264.527662","385014.068617","385780.851853","386547.591494","390430.659717","391197.572496","391963.83632","392730.897193","393497.849237","379681.510484","380430.865626","381197.621963","392803.837952","Mapping"
"Blocked","m150","tile","17","m150lash.wav","None","722.778613679","133","389681.210277","381964.275655","382730.931511","383497.656312","384264.527662","385014.068617","385780.851853","386547.591494","390430.659717","391197.572496","391963.83632","392730.897193","393497.849237","394264.31526","380430.865626","381197.621963","393507.319521","Mapping"
"Blocked","m150","tile","17","m150tile.wav","None","720.762185752","133","389681.210277","381964.275655","382730.931511","383497.656312","384264.527662","385014.068617","385780.851853","386547.591494","390430.659717","391197.572496","391963.83632","392730.897193","393497.849237","394264.31526","395031.269159","381197.621963","394274.024535","Mapping"
"Blocked","m150","tile","17","m150depth.wav","space","462.038323283","133","389681.210277","381964.275655","382730.931511","383497.656312","384264.527662","385014.068617","385780.851853","386547.591494","390430.659717","391197.572496","391963.83632","392730.897193","393497.849237","394264.31526","395031.269159","395780.845051","395040.961739","Mapping"
"Blocked","m150","tile","17","m150cling.wav","None","733.397476375","133","389681.210277","396547.299016","382730.931511","383497.656312","384264.527662","385014.068617","385780.851853","386547.591494","390430.659717","391197.572496","391963.83632","392730.897193","393497.849237","394264.31526","395031.269159","395780.845051","395789.846938","Mapping"
"Blocked","m150","tile","17","m150bluff.wav","None","731.548930053","133","389681.210277","396547.299016","397313.837077","383497.656312","384264.527662","385014.068617","385780.851853","386547.591494","390430.659717","391197.572496","391963.83632","392730.897193","393497.849237","394264.31526","395031.269159","395780.845051","396556.29441","Mapping"
"Blocked","m150","tile","17","m150knife.wav","None","729.057921562","133","389681.210277","396547.299016","397313.837077","398080.767788","384264.527662","385014.068617","385780.851853","386547.591494","390430.659717","391197.572496","391963.83632","392730.897193","393497.849237","394264.31526","395031.269159","395780.845051","397323.260367","Mapping"
"Blocked","m150","tile","17","m150tile.wav","None","727.193607017","133","389681.210277","396547.299016","397313.837077","398080.767788","398847.365829","385014.068617","385780.851853","386547.591494","390430.659717","391197.572496","391963.83632","392730.897193","393497.849237","394264.31526","395031.269159","395780.845051","398089.78266","Mapping"
"Blocked","m150","tile","17","m150reek.wav","space","446.074474137","133","389681.210277","396547.299016","397313.837077","398080.767788","398847.365829","399614.29283","385780.851853","386547.591494","390430.659717","391197.572496","391963.83632","392730.897193","393497.849237","394264.31526","395031.269159","395780.845051","398856.791283","Mapping"
"Blocked","m150","tile","17","m150tile.wav","None","720.735288225","133","389681.210277","396547.299016","397313.837077","398080.767788","398847.365829","399614.29283","400363.977241","386547.591494","390430.659717","391197.572496","391963.83632","392730.897193","393497.849237","394264.31526","395031.269159","395780.845051","399623.823093","Mapping"
"Blocked","m150","tile","17","m150cad.wav","space","610.071997158","133","389681.210277","396547.299016","397313.837077","398080.767788","398847.365829","399614.29283","400363.977241","401130.255905","390430.659717","391197.572496","391963.83632","392730.897193","393497.849237","394264.31526","395031.269159","395780.845051","400372.807846","Mapping"
"Blocked","m150","tile","18","m150ball.wav","None","733.702630736","133","404264.131302","396547.299016","397313.837077","398080.767788","398847.365829","399614.29283","400363.977241","401130.255905","390430.659717","391197.572496","391963.83632","392730.897193","393497.849237","394264.31526","395031.269159","395780.845051","401139.062704","Mapping"
"Blocked","m150","tile","18","m150tile.wav","None","720.152805559","133","404264.131302","396547.299016","397313.837077","398080.767788","398847.365829","399614.29283","400363.977241","401130.255905","405013.518907","391197.572496","391963.83632","392730.897193","393497.849237","394264.31526","395031.269159","395780.845051","404273.684136","Mapping"
"Blocked","m150","tile","18","m150dime.wav","space","623.950473033","133","404264.131302","396547.299016","397313.837077","398080.767788","398847.365829","399614.29283","400363.977241","401130.255905","405013.518907","405780.68459","391963.83632","392730.897193","393497.849237","394264.31526","395031.269159","395780.845051","405022.804924","Mapping"
"Blocked","m150","tile","18","m150dime.wav","None","732.433164958","133","404264.131302","396547.299016","397313.837077","398080.767788","398847.365829","399614.29283","400363.977241","401130.255905","405013.518907","405780.68459","406547.134536","392730.897193","393497.849237","394264.31526","395031.269159","395780.845051","405789.686786","Mapping"
"Blocked","m150","tile","18","m150cling.wav","None","730.632849503","133","404264.131302","396547.299016","397313.837077","398080.767788","398847.365829","399614.29283","400363.977241","401130.255905","405013.518907","405780.68459","406547.134536","407313.641989","393497.849237","394264.31526","395031.269159","395780.845051","406556.17136","Mapping"
"Blocked","m150","tile","18","m150gnash.wav","None","729.243734851","133","404264.131302","396547.299016","397313.837077","398080.767788","398847.365829","399614.29283","400363.977241","401130.255905","405013.518907","405780.68459","406547.134536","407313.641989","408080.655868","394264.31526","395031.269159","395780.845051","407322.467647","Mapping"
"Blocked","m150","tile","18","m150ball.wav","None","726.489310618","133","404264.131302","396547.299016","397313.837077","398080.767788","398847.365829","399614.29283","400363.977241","401130.255905","405013.518907","405780.68459","406547.134536","407313.641989","408080.655868","408847.147244","395031.269159","395780.845051","408089.832746","Mapping"
"Blocked","m150","tile","18","m150tile.wav","None","724.720221478","133","404264.131302","396547.299016","397313.837077","398080.767788","398847.365829","399614.29283","400363.977241","401130.255905","405013.518907","405780.68459","406547.134536","407313.641989","408080.655868","408847.147244","409614.059404","395780.845051","408856.333088","Mapping"
"Blocked","m150","tile","18","m150park.wav","space","423.01355442","133","404264.131302","396547.299016","397313.837077","398080.767788","398847.365829","399614.29283","400363.977241","401130.255905","405013.518907","405780.68459","406547.134536","407313.641989","408080.655868","408847.147244","409614.059404","410363.740105","409623.699424","Mapping"
"Blocked","m150","tile","18","m150dime.wav","None","735.395353753","133","404264.131302","411130.132546","397313.837077","398080.767788","398847.365829","399614.29283","400363.977241","401130.255905","405013.518907","405780.68459","406547.134536","407313.641989","408080.655868","408847.147244","409614.059404","410363.740105","410373.515234","Mapping"
"Blocked","m150","tile","18","m150greet.wav","None","734.668796416","133","404264.131302","411130.132546","411897.122309","398080.767788","398847.365829","399614.29283","400363.977241","401130.255905","405013.518907","405780.68459","406547.134536","407313.641989","408080.655868","408847.147244","409614.059404","410363.740105","411138.882147","Mapping"
"Blocked","m150","tile","18","m150tile.wav","None","731.853774749","133","404264.131302","411130.132546","411897.122309","412663.632544","398847.365829","399614.29283","400363.977241","401130.255905","405013.518907","405780.68459","406547.134536","407313.641989","408080.655868","408847.147244","409614.059404","410363.740105","411906.351747","Mapping"
"Blocked","m150","tile","18","m150jolt.wav","space","485.691309907","133","404264.131302","411130.132546","411897.122309","412663.632544","413430.173696","399614.29283","400363.977241","401130.255905","405013.518907","405780.68459","406547.134536","407313.641989","408080.655868","408847.147244","409614.059404","410363.740105","412672.943604","Mapping"
"Blocked","m150","tile","18","m150lash.wav","None","726.731083822","133","404264.131302","411130.132546","411897.122309","412663.632544","413430.173696","414197.374006","400363.977241","401130.255905","405013.518907","405780.68459","406547.134536","407313.641989","408080.655868","408847.147244","409614.059404","410363.740105","413439.311001","Mapping"
"Blocked","m150","tile","18","m150tile.wav","None","723.69067464","133","404264.131302","411130.132546","411897.122309","412663.632544","413430.173696","414197.374006","414963.842503","401130.255905","405013.518907","405780.68459","406547.134536","407313.641989","408080.655868","408847.147244","409614.059404","410363.740105","414207.027012","Mapping"
"Blocked","m150","tile","18","m150dime.wav","space","432.961202227","133","404264.131302","411130.132546","411897.122309","412663.632544","413430.173696","414197.374006","414963.842503","415713.59215","405013.518907","405780.68459","406547.134536","407313.641989","408080.655868","408847.147244","409614.059404","410363.740105","414973.672047","Mapping"
"Blocked","m150","ball","1","m150bluff.wav","None","735.804698896","133","418847.256072","411130.132546","411897.122309","412663.632544","413430.173696","414197.374006","414963.842503","415713.59215","405013.518907","405780.68459","406547.134536","407313.641989","408080.655868","408847.147244","409614.059404","410363.740105","415722.778304","Mapping"
"Blocked","m150","ball","1","m150ball.wav","None","719.20580836","133","418847.256072","411130.132546","411897.122309","412663.632544","413430.173696","414197.374006","414963.842503","415713.59215","419596.878649","405780.68459","406547.134536","407313.641989","408080.655868","408847.147244","409614.059404","410363.740105","418857.256898","Mapping"
"Blocked","m150","ball","1","m150cave.wav","space","496.538960841","133","418847.256072","411130.132546","411897.122309","412663.632544","413430.173696","414197.374006","414963.842503","415713.59215","419596.878649","420363.248829","406547.134536","407313.641989","408080.655868","408847.147244","409614.059404","410363.740105","419605.995239","Mapping"
"Blocked","m150","ball","1","m150reek.wav","None","732.459135819","133","418847.256072","411130.132546","411897.122309","412663.632544","413430.173696","414197.374006","414963.842503","415713.59215","419596.878649","420363.248829","421130.245084","407313.641989","408080.655868","408847.147244","409614.059404","410363.740105","420371.962876","Mapping"
"Blocked","m150","ball","1","m150ball.wav","None","729.407287203","133","418847.256072","411130.132546","411897.122309","412663.632544","413430.173696","414197.374006","414963.842503","415713.59215","419596.878649","420363.248829","421130.245084","421896.961229","408080.655868","408847.147244","409614.059404","410363.740105","421139.643332","Mapping"
"Blocked","m150","ball","1","m150gnash.wav","space","460.452883039","133","418847.256072","411130.132546","411897.122309","412663.632544","413430.173696","414197.374006","414963.842503","415713.59215","419596.878649","420363.248829","421130.245084","421896.961229","422663.99304","408847.147244","409614.059404","410363.740105","421906.037008","Mapping"
"Blocked","m150","ball","1","m150tile.wav","None","722.607022617","133","418847.256072","411130.132546","411897.122309","412663.632544","413430.173696","414197.374006","414963.842503","415713.59215","419596.878649","420363.248829","421130.245084","421896.961229","422663.99304","423429.701898","409614.059404","410363.740105","422674.052608","Mapping"
"Blocked","m150","ball","1","m150romp.wav","None","725.625480525","133","418847.256072","411130.132546","411897.122309","412663.632544","413430.173696","414197.374006","414963.842503","415713.59215","419596.878649","420363.248829","421130.245084","421896.961229","422663.99304","423429.701898","424197.273525","410363.740105","423438.347927","Mapping"
"Blocked","m150","ball","1","m150tile.wav","None","721.144324169","133","418847.256072","411130.132546","411897.122309","412663.632544","413430.173696","414197.374006","414963.842503","415713.59215","419596.878649","420363.248829","421130.245084","421896.961229","422663.99304","423429.701898","424197.273525","424963.707086","424207.330002","Mapping"
"Blocked","m150","ball","1","m150knife.wav","None","719.805604313","133","418847.256072","425713.103038","411897.122309","412663.632544","413430.173696","414197.374006","414963.842503","415713.59215","419596.878649","420363.248829","421130.245084","421896.961229","422663.99304","423429.701898","424197.273525","424963.707086","424973.309696","Mapping"
"Blocked","m150","ball","1","m150ball.wav","None","735.98865699","133","418847.256072","425713.103038","426480.128975","412663.632544","413430.173696","414197.374006","414963.842503","415713.59215","419596.878649","420363.248829","421130.245084","421896.961229","422663.99304","423429.701898","424197.273525","424963.707086","425722.115437","Mapping"
"Blocked","m150","ball","1","m150priest.wav","space","469.145596959","133","418847.256072","425713.103038","426480.128975","427246.59809","413430.173696","414197.374006","414963.842503","415713.59215","419596.878649","420363.248829","421130.245084","421896.961229","422663.99304","423429.701898","424197.273525","424963.707086","426489.262569","Mapping"
