"Condition","Talker","Target","Trial","current_stimulus","response_response","response_time_response","subject_nr","time_Audio1","time_Audio10","time_Audio11","time_Audio12","time_Audio13","time_Audio14","time_Audio15","time_Audio16","time_Audio2","time_Audio3","time_Audio4","time_Audio5","time_Audio6","time_Audio7","time_Audio8","time_Audio9","time_response","title"
"Blocked","m150","tile","16","m150priest.wav","NA","NA","165","381634.174318","NA","NA","NA","NA","NA","NA","NA","NA","NA","NA","NA","NA","NA","NA","NA","NA","Mapping"
"Blocked","m150","tile","16","m150romp.wav","None","713.978351094","165","381634.174318","NA","NA","NA","NA","NA","NA","NA","382383.275781","NA","NA","NA","NA","NA","NA","NA","381650.26776","Mapping"
"Blocked","m150","tile","16","m150tile.wav","None","735.683922656","165","381634.174318","NA","NA","NA","NA","NA","NA","NA","382383.275781","383149.673064","NA","NA","NA","NA","NA","NA","382392.709611","Mapping"
"Blocked","m150","tile","16","m150park.wav","space","383.144690655","165","381634.174318","NA","NA","NA","NA","NA","NA","NA","382383.275781","383149.673064","383916.878837","NA","NA","NA","NA","NA","383158.95911","Mapping"
"Blocked","m150","tile","16","m150ball.wav","None","730.134246405","165","381634.174318","NA","NA","NA","NA","NA","NA","NA","382383.275781","383149.673064","383916.878837","384683.708037","NA","NA","NA","NA","383927.020368","Mapping"
"Blocked","m150","tile","16","m150ball.wav","None","728.308573132","165","381634.174318","NA","NA","NA","NA","NA","NA","NA","382383.275781","383149.673064","383916.878837","384683.708037","385450.157261","NA","NA","NA","384693.124863","Mapping"
"Blocked","m150","tile","16","m150tile.wav","None","725.833324948","165","381634.174318","NA","NA","NA","NA","NA","NA","NA","382383.275781","383149.673064","383916.878837","384683.708037","385450.157261","386217.657678","NA","NA","385459.787727","Mapping"
"Blocked","m150","tile","16","m150done.wav","space","394.316080492","165","381634.174318","NA","NA","NA","NA","NA","NA","NA","382383.275781","383149.673064","383916.878837","384683.708037","385450.157261","386217.657678","386983.76341","NA","386227.75376","Mapping"
"Blocked","m150","tile","16","m150tile.wav","None","720.451530302","165","381634.174318","NA","NA","NA","NA","NA","NA","NA","382383.275781","383149.673064","383916.878837","384683.708037","385450.157261","386217.657678","386983.76341","387733.683875","386993.940496","Mapping"
"Blocked","m150","tile","16","m150gnash.wav","space","501.605696045","165","381634.174318","388499.840621","NA","NA","NA","NA","NA","NA","382383.275781","383149.673064","383916.878837","384683.708037","385450.157261","386217.657678","386983.76341","387733.683875","387744.423039","Mapping"
"Blocked","m150","tile","16","m150jaw.wav","None","733.823621646","165","381634.174318","388499.840621","389266.646941","NA","NA","NA","NA","NA","382383.275781","383149.673064","383916.878837","384683.708037","385450.157261","386217.657678","386983.76341","387733.683875","388509.538796","Mapping"
"Blocked","m150","tile","16","m150cling.wav","None","731.659402605","165","381634.174318","388499.840621","389266.646941","390033.292491","NA","NA","NA","NA","382383.275781","383149.673064","383916.878837","384683.708037","385450.157261","386217.657678","386983.76341","387733.683875","389275.99575","Mapping"
"Blocked","m150","tile","16","m150tile.wav","None","726.972322445","165","381634.174318","388499.840621","389266.646941","390033.292491","390799.554666","NA","NA","NA","382383.275781","383149.673064","383916.878837","384683.708037","385450.157261","386217.657678","386983.76341","387733.683875","390045.097688","Mapping"
"Blocked","m150","tile","16","m150knife.wav","space","413.095627911","165","381634.174318","388499.840621","389266.646941","390033.292491","390799.554666","391566.53165","NA","NA","382383.275781","383149.673064","383916.878837","384683.708037","385450.157261","386217.657678","386983.76341","387733.683875","390808.851842","Mapping"
"Blocked","m150","tile","16","m150reek.wav","None","725.156851579","165","381634.174318","388499.840621","389266.646941","390033.292491","390799.554666","391566.53165","392333.725984","NA","382383.275781","383149.673064","383916.878837","384683.708037","385450.157261","386217.657678","386983.76341","387733.683875","391575.997635","Mapping"
"Blocked","m150","tile","16","m150depth.wav","None","721.754080849","165","381634.174318","388499.840621","389266.646941","390033.292491","390799.554666","391566.53165","392333.725984","393100.196542","382383.275781","383149.673064","383916.878837","384683.708037","385450.157261","386217.657678","386983.76341","387733.683875","392343.962741","Mapping"
"Blocked","m150","tile","14","m150reek.wav","None","719.733009581","165","396267.059998","388499.840621","389266.646941","390033.292491","390799.554666","391566.53165","392333.725984","393100.196542","382383.275781","383149.673064","383916.878837","384683.708037","385450.157261","386217.657678","386983.76341","387733.683875","393110.334053","Mapping"
"Blocked","m150","tile","14","m150tile.wav","None","719.417033484","165","396267.059998","388499.840621","389266.646941","390033.292491","390799.554666","391566.53165","392333.725984","393100.196542","397016.324086","383149.673064","383916.878837","384683.708037","385450.157261","386217.657678","386983.76341","387733.683875","396277.44454","Mapping"
"Blocked","m150","tile","14","m150knife.wav","space","516.223140759","165","396267.059998","388499.840621","389266.646941","390033.292491","390799.554666","391566.53165","392333.725984","393100.196542","397016.324086","397783.216976","383916.878837","384683.708037","385450.157261","386217.657678","386983.76341","387733.683875","397025.695773","Mapping"
"Blocked","m150","tile","14","m150bluff.wav","None","732.840447919","165","396267.059998","388499.840621","389266.646941","390033.292491","390799.554666","391566.53165","392333.725984","393100.196542","397016.324086","397783.216976","398549.823261","384683.708037","385450.157261","386217.657678","386983.76341","387733.683875","397792.944831","Mapping"
"Blocked","m150","tile","14","m150cling.wav","None","730.696943356","165","396267.059998","388499.840621","389266.646941","390033.292491","390799.554666","391566.53165","392333.725984","393100.196542","397016.324086","397783.216976","398549.823261","399316.528172","385450.157261","386217.657678","386983.76341","387733.683875","398559.467021","Mapping"
"Blocked","m150","tile","14","m150cling.wav","None","729.054301046","165","396267.059998","388499.840621","389266.646941","390033.292491","390799.554666","391566.53165","392333.725984","393100.196542","397016.324086","397783.216976","398549.823261","399316.528172","400082.849089","386217.657678","386983.76341","387733.683875","399326.090001","Mapping"
"Blocked","m150","tile","14","m150tile.wav","None","727.006640751","165","396267.059998","388499.840621","389266.646941","390033.292491","390799.554666","391566.53165","392333.725984","393100.196542","397016.324086","397783.216976","398549.823261","399316.528172","400082.849089","400849.662212","386983.76341","387733.683875","400092.613118","Mapping"
"Blocked","m150","tile","14","m150depth.wav","space","394.473759225","165","396267.059998","388499.840621","389266.646941","390033.292491","390799.554666","391566.53165","392333.725984","393100.196542","397016.324086","397783.216976","398549.823261","399316.528172","400082.849089","400849.662212","401617.037722","387733.683875","400859.409855","Mapping"
"Blocked","m150","tile","14","m150dime.wav","None","721.489118645","165","396267.059998","388499.840621","389266.646941","390033.292491","390799.554666","391566.53165","392333.725984","393100.196542","397016.324086","397783.216976","398549.823261","399316.528172","400082.849089","400849.662212","401617.037722","402383.475507","401627.280353","Mapping"
"Blocked","m150","tile","14","m150tile.wav","None","719.896253664","165","396267.059998","403132.947051","389266.646941","390033.292491","390799.554666","391566.53165","392333.725984","393100.196542","397016.324086","397783.216976","398549.823261","399316.528172","400082.849089","400849.662212","401617.037722","402383.475507","402393.269526","Mapping"
"Blocked","m150","tile","14","m150gnash.wav","space","463.217396056","165","396267.059998","403132.947051","403899.616717","390033.292491","390799.554666","391566.53165","392333.725984","393100.196542","397016.324086","397783.216976","398549.823261","399316.528172","400082.849089","400849.662212","401617.037722","402383.475507","403142.594831","Mapping"
"Blocked","m150","tile","14","m150tile.wav","None","732.187472051","165","396267.059998","403132.947051","403899.616717","404666.602358","390799.554666","391566.53165","392333.725984","393100.196542","397016.324086","397783.216976","398549.823261","399316.528172","400082.849089","400849.662212","401617.037722","402383.475507","403909.522348","Mapping"
"Blocked","m150","tile","14","m150lash.wav","space","384.400556097","165","396267.059998","403132.947051","403899.616717","404666.602358","405432.817229","391566.53165","392333.725984","393100.196542","397016.324086","397783.216976","398549.823261","399316.528172","400082.849089","400849.662212","401617.037722","402383.475507","404677.359764","Mapping"
"Blocked","m150","tile","14","m150bluff.wav","None","728.780373","165","396267.059998","403132.947051","403899.616717","404666.602358","405432.817229","406199.536981","392333.725984","393100.196542","397016.324086","397783.216976","398549.823261","399316.528172","400082.849089","400849.662212","401617.037722","402383.475507","405441.94405","Mapping"
"Blocked","m150","tile","14","m150cling.wav","None","725.243111374","165","396267.059998","403132.947051","403899.616717","404666.602358","405432.817229","406199.536981","406966.935679","393100.196542","397016.324086","397783.216976","398549.823261","399316.528172","400082.849089","400849.662212","401617.037722","402383.475507","406210.034371","Mapping"
"Blocked","m150","tile","14","m150lash.wav","None","722.660888918","165","396267.059998","403132.947051","403899.616717","404666.602358","405432.817229","406199.536981","406966.935679","407733.544747","397016.324086","397783.216976","398549.823261","399316.528172","400082.849089","400849.662212","401617.037722","402383.475507","406977.103799","Mapping"
"Blocked","m150","done","22","m150lash.wav","None","720.736588817","165","410850.013125","403132.947051","403899.616717","404666.602358","405432.817229","406199.536981","406966.935679","407733.544747","397016.324086","397783.216976","398549.823261","399316.528172","400082.849089","400849.662212","401617.037722","402383.475507","407743.534164","Mapping"
"Blocked","m150","done","22","m150knife.wav","None","720.498834038","165","410850.013125","403132.947051","403899.616717","404666.602358","405432.817229","406199.536981","406966.935679","407733.544747","411599.727679","397783.216976","398549.823261","399316.528172","400082.849089","400849.662212","401617.037722","402383.475507","410860.094057","Mapping"
"Blocked","m150","done","22","m150priest.wav","None","735.874682898","165","410850.013125","403132.947051","403899.616717","404666.602358","405432.817229","406199.536981","406966.935679","407733.544747","411599.727679","412366.276149","398549.823261","399316.528172","400082.849089","400849.662212","401617.037722","402383.475507","411609.214688","Mapping"
"Blocked","m150","done","22","m150gnash.wav","None","733.904006891","165","410850.013125","403132.947051","403899.616717","404666.602358","405432.817229","406199.536981","406966.935679","407733.544747","411599.727679","412366.276149","413132.673123","399316.528172","400082.849089","400849.662212","401617.037722","402383.475507","412375.569306","Mapping"
"Blocked","m150","done","22","m150done.wav","None","732.311760075","165","410850.013125","403132.947051","403899.616717","404666.602358","405432.817229","406199.536981","406966.935679","407733.544747","411599.727679","412366.276149","413132.673123","413899.527984","400082.849089","400849.662212","401617.037722","402383.475507","413141.684931","Mapping"
"Blocked","m150","done","22","m150dime.wav","space","456.24737395","165","410850.013125","403132.947051","403899.616717","404666.602358","405432.817229","406199.536981","406966.935679","407733.544747","411599.727679","412366.276149","413132.673123","413899.527984","414665.845809","400849.662212","401617.037722","402383.475507","413909.385383","Mapping"
"Blocked","m150","done","22","m150done.wav","None","728.266216349","165","410850.013125","403132.947051","403899.616717","404666.602358","405432.817229","406199.536981","406966.935679","407733.544747","411599.727679","412366.276149","413132.673123","413899.527984","414665.845809","415433.109708","401617.037722","402383.475507","414674.847106","Mapping"
"Blocked","m150","done","22","m150gnash.wav","space","514.106843853","165","410850.013125","403132.947051","403899.616717","404666.602358","405432.817229","406199.536981","406966.935679","407733.544747","411599.727679","412366.276149","413132.673123","413899.527984","414665.845809","415433.109708","416199.946637","402383.475507","415443.50507","Mapping"
"Blocked","m150","done","22","m150tile.wav","None","721.574450843","165","410850.013125","403132.947051","403899.616717","404666.602358","405432.817229","406199.536981","406966.935679","407733.544747","411599.727679","412366.276149","413132.673123","413899.527984","414665.845809","415433.109708","416199.946637","416966.658968","416209.990468","Mapping"
"Blocked","m150","done","22","m150reek.wav","None","719.176805345","165","410850.013125","417716.040233","403899.616717","404666.602358","405432.817229","406199.536981","406966.935679","407733.544747","411599.727679","412366.276149","413132.673123","413899.527984","414665.845809","415433.109708","416199.946637","416966.658968","416976.866971","Mapping"
"Blocked","m150","done","22","m150done.wav","None","735.041767824","165","410850.013125","417716.040233","418482.961876","404666.602358","405432.817229","406199.536981","406966.935679","407733.544747","411599.727679","412366.276149","413132.673123","413899.527984","414665.845809","415433.109708","416199.946637","416966.658968","417725.506528","Mapping"
"Blocked","m150","done","22","m150park.wav","space","505.232927389","165","410850.013125","417716.040233","418482.961876","419249.209519","405432.817229","406199.536981","406966.935679","407733.544747","411599.727679","412366.276149","413132.673123","413899.527984","414665.845809","415433.109708","416199.946637","416966.658968","418492.354896","Mapping"
"Blocked","m150","done","22","m150tile.wav","None","729.64698798","165","410850.013125","417716.040233","418482.961876","419249.209519","420016.335526","406199.536981","406966.935679","407733.544747","411599.727679","412366.276149","413132.673123","413899.527984","414665.845809","415433.109708","416199.946637","416966.658968","419259.196153","Mapping"
"Blocked","m150","done","22","m150done.wav","None","726.857928094","165","410850.013125","417716.040233","418482.961876","419249.209519","420016.335526","420782.64253","406966.935679","407733.544747","411599.727679","412366.276149","413132.673123","413899.527984","414665.845809","415433.109708","416199.946637","416966.658968","420026.473655","Mapping"
"Blocked","m150","done","22","m150cling.wav","space","390.107601881","165","410850.013125","417716.040233","418482.961876","419249.209519","420016.335526","420782.64253","421549.296737","407733.544747","411599.727679","412366.276149","413132.673123","413899.527984","414665.845809","415433.109708","416199.946637","416966.658968","420791.443172","Mapping"
"Blocked","m150","done","22","m150reek.wav","None","723.615618655","165","410850.013125","417716.040233","418482.961876","419249.209519","420016.335526","420782.64253","421549.296737","422316.560635","411599.727679","412366.276149","413132.673123","413899.527984","414665.845809","415433.109708","416199.946637","416966.658968","421558.740771","Mapping"
"Blocked","m150","cave","8","m150depth.wav","None","720.02734337","165","425433.207097","417716.040233","418482.961876","419249.209519","420016.335526","420782.64253","421549.296737","422316.560635","411599.727679","412366.276149","413132.673123","413899.527984","414665.845809","415433.109708","416199.946637","416966.658968","422326.71175","Mapping"
"Blocked","m150","cave","8","m150jolt.wav","None","720.163688995","165","425433.207097","417716.040233","418482.961876","419249.209519","420016.335526","420782.64253","421549.296737","422316.560635","426182.798292","412366.276149","413132.673123","413899.527984","414665.845809","415433.109708","416199.946637","416966.658968","425443.521457","Mapping"
"Blocked","m150","cave","8","m150cave.wav","None","735.712675843","165","425433.207097","417716.040233","418482.961876","419249.209519","420016.335526","420782.64253","421549.296737","422316.560635","426182.798292","426949.414161","413132.673123","413899.527984","414665.845809","415433.109708","416199.946637","416966.658968","426192.401241","Mapping"
"Blocked","m150","cave","8","m150depth.wav","space","398.66368752","165","425433.207097","417716.040233","418482.961876","419249.209519","420016.335526","420782.64253","421549.296737","422316.560635","426182.798292","426949.414161","427716.057856","413899.527984","414665.845809","415433.109708","416199.946637","416966.658968","426958.792959","Mapping"
"Blocked","m150","cave","8","m150cave.wav","None","730.85987824","165","425433.207097","417716.040233","418482.961876","419249.209519","420016.335526","420782.64253","421549.296737","422316.560635","426182.798292","426949.414161","427716.057856","428482.721648","414665.845809","415433.109708","416199.946637","416966.658968","427725.686776","Mapping"
"Blocked","m150","cave","8","m150romp.wav","space","488.942850148","165","425433.207097","417716.040233","418482.961876","419249.209519","420016.335526","420782.64253","421549.296737","422316.560635","426182.798292","426949.414161","427716.057856","428482.721648","429249.174582","415433.109708","416199.946637","416966.658968","428492.491242","Mapping"
"Blocked","m150","cave","8","m150cave.wav","None","726.546898717","165","425433.207097","417716.040233","418482.961876","419249.209519","420016.335526","420782.64253","421549.296737","422316.560635","426182.798292","426949.414161","427716.057856","428482.721648","429249.174582","430016.538035","416199.946637","416966.658968","429258.387354","Mapping"
"Blocked","m150","cave","8","m150lash.wav","space","378.865720471","165","425433.207097","417716.040233","418482.961876","419249.209519","420016.335526","420782.64253","421549.296737","422316.560635","426182.798292","426949.414161","427716.057856","428482.721648","429249.174582","430016.538035","430783.161015","416966.658968","430026.529307","Mapping"
"Blocked","m150","cave","8","m150bluff.wav","None","720.162143232","165","425433.207097","417716.040233","418482.961876","419249.209519","420016.335526","420782.64253","421549.296737","422316.560635","426182.798292","426949.414161","427716.057856","428482.721648","429249.174582","430016.538035","430783.161015","431532.809407","430793.266681","Mapping"
"Blocked","m150","cave","8","m150cave.wav","None","735.395153984","165","425433.207097","432299.036953","418482.961876","419249.209519","420016.335526","420782.64253","421549.296737","422316.560635","426182.798292","426949.414161","427716.057856","428482.721648","429249.174582","430016.538035","430783.161015","431532.809407","431542.555813","Mapping"
"Blocked","m150","cave","8","m150tile.wav","space","408.391233766","165","425433.207097","432299.036953","433065.587896","419249.209519","420016.335526","420782.64253","421549.296737","422316.560635","426182.798292","426949.414161","427716.057856","428482.721648","429249.174582","430016.538035","430783.161015","431532.809407","432309.014003","Mapping"
"Blocked","m150","cave","8","m150cling.wav","None","731.741024647","165","425433.207097","432299.036953","433065.587896","433832.678966","420016.335526","420782.64253","421549.296737","422316.560635","426182.798292","426949.414161","427716.057856","428482.721648","429249.174582","430016.538035","430783.161015","431532.809407","433074.718118","Mapping"
"Blocked","m150","cave","8","m150bluff.wav","None","728.734924225","165","425433.207097","432299.036953","433065.587896","433832.678966","434599.164055","420782.64253","421549.296737","422316.560635","426182.798292","426949.414161","427716.057856","428482.721648","429249.174582","430016.538035","430783.161015","431532.809407","433842.23523","Mapping"
"Blocked","m150","cave","8","m150park.wav","None","726.917598629","165","425433.207097","432299.036953","433065.587896","433832.678966","434599.164055","435366.042413","421549.296737","422316.560635","426182.798292","426949.414161","427716.057856","428482.721648","429249.174582","430016.538035","430783.161015","431532.809407","434608.597577","Mapping"
"Blocked","m150","cave","8","m150tile.wav","None","724.145543296","165","425433.207097","432299.036953","433065.587896","433832.678966","434599.164055","435366.042413","436132.519773","422316.560635","426182.798292","426949.414161","427716.057856","428482.721648","429249.174582","430016.538035","430783.161015","431532.809407","435375.832722","Mapping"
"Blocked","m150","cave","8","m150romp.wav","None","722.731380491","165","425433.207097","432299.036953","433065.587896","433832.678966","434599.164055","435366.042413","436132.519773","436898.974562","426182.798292","426949.414161","427716.057856","428482.721648","429249.174582","430016.538035","430783.161015","431532.809407","436141.795306","Mapping"
"Blocked","m150","ball","4","m150depth.wav","None","722.969444469","165","440016.273691","432299.036953","433065.587896","433832.678966","434599.164055","435366.042413","436132.519773","436898.974562","426182.798292","426949.414161","427716.057856","428482.721648","429249.174582","430016.538035","430783.161015","431532.809407","436908.046969","Mapping"
"Blocked","m150","ball","4","m150cling.wav","None","719.267702661","165","440016.273691","432299.036953","433065.587896","433832.678966","434599.164055","435366.042413","436132.519773","436898.974562","440765.603015","426949.414161","427716.057856","428482.721648","429249.174582","430016.538035","430783.161015","431532.809407","440026.862596","Mapping"
"Blocked","m150","ball","4","m150dime.wav","None","734.933556756","165","440016.273691","432299.036953","433065.587896","433832.678966","434599.164055","435366.042413","436132.519773","436898.974562","440765.603015","441532.61339","427716.057856","428482.721648","429249.174582","430016.538035","430783.161015","431532.809407","440775.696005","Mapping"
"Blocked","m150","ball","4","m150ball.wav","None","733.064599102","165","440016.273691","432299.036953","433065.587896","433832.678966","434599.164055","435366.042413","436132.519773","436898.974562","440765.603015","441532.61339","442299.074982","428482.721648","429249.174582","430016.538035","430783.161015","431532.809407","441542.507891","Mapping"
"Blocked","m150","ball","4","m150jaw.wav","space","416.56765365","165","440016.273691","432299.036953","433065.587896","433832.678966","434599.164055","435366.042413","436132.519773","436898.974562","440765.603015","441532.61339","442299.074982","443065.416305","429249.174582","430016.538035","430783.161015","431532.809407","442308.651651","Mapping"
"Blocked","m150","ball","4","m150done.wav","None","729.742832016","165","440016.273691","432299.036953","433065.587896","433832.678966","434599.164055","435366.042413","436132.519773","436898.974562","440765.603015","441532.61339","442299.074982","443065.416305","443832.737709","430016.538035","430783.161015","431532.809407","443074.453156","Mapping"
"Blocked","m150","ball","4","m150ball.wav","None","726.604405092","165","440016.273691","432299.036953","433065.587896","433832.678966","434599.164055","435366.042413","436132.519773","436898.974562","440765.603015","441532.61339","442299.074982","443065.416305","443832.737709","444599.068829","430783.161015","431532.809407","443842.727745","Mapping"
"Blocked","m150","ball","4","m150dime.wav","space","412.809641566","165","440016.273691","432299.036953","433065.587896","433832.678966","434599.164055","435366.042413","436132.519773","436898.974562","440765.603015","441532.61339","442299.074982","443065.416305","443832.737709","444599.068829","445366.534309","431532.809407","444608.389503","Mapping"
"Blocked","m150","ball","4","m150ball.wav","None","721.337932395","165","440016.273691","432299.036953","433065.587896","433832.678966","434599.164055","435366.042413","436132.519773","436898.974562","440765.603015","441532.61339","442299.074982","443065.416305","443832.737709","444599.068829","445366.534309","446132.88769","445376.689444","Mapping"
"Blocked","m150","ball","4","m150greet.wav","space","414.247919805","165","440016.273691","446882.319041","433065.587896","433832.678966","434599.164055","435366.042413","436132.519773","436898.974562","440765.603015","441532.61339","442299.074982","443065.416305","443832.737709","444599.068829","445366.534309","446132.88769","446142.905551","Mapping"
"Blocked","m150","ball","4","m150dime.wav","None","734.724246198","165","440016.273691","446882.319041","447649.104029","433832.678966","434599.164055","435366.042413","436132.519773","436898.974562","440765.603015","441532.61339","442299.074982","443065.416305","443832.737709","444599.068829","445366.534309","446132.88769","446891.990627","Mapping"
"Blocked","m150","ball","4","m150ball.wav","None","732.117289677","165","440016.273691","446882.319041","447649.104029","448415.735975","434599.164055","435366.042413","436132.519773","436898.974562","440765.603015","441532.61339","442299.074982","443065.416305","443832.737709","444599.068829","445366.534309","446132.88769","447659.20042","Mapping"
"Blocked","m150","ball","4","m150jolt.wav","space","435.999867506","165","440016.273691","446882.319041","447649.104029","448415.735975","449182.142534","435366.042413","436132.519773","436898.974562","440765.603015","441532.61339","442299.074982","443065.416305","443832.737709","444599.068829","445366.534309","446132.88769","448425.137961","Mapping"
"Blocked","m150","ball","4","m150gnash.wav","None","729.026784655","165","440016.273691","446882.319041","447649.104029","448415.735975","449182.142534","449948.9841","436132.519773","436898.974562","440765.603015","441532.61339","442299.074982","443065.416305","443832.737709","444599.068829","445366.534309","446132.88769","449191.139192","Mapping"
"Blocked","m150","ball","4","m150jaw.wav","None","725.827450631","165","440016.273691","446882.319041","447649.104029","448415.735975","449182.142534","449948.9841","450716.132986","436898.974562","440765.603015","441532.61339","442299.074982","443065.416305","443832.737709","444599.068829","445366.534309","446132.88769","449958.902098","Mapping"
"Blocked","m150","ball","4","m150gnash.wav","None","722.800944699","165","440016.273691","446882.319041","447649.104029","448415.735975","449182.142534","449948.9841","450716.132986","451482.386812","440765.603015","441532.61339","442299.074982","443065.416305","443832.737709","444599.068829","445366.534309","446132.88769","450726.641506","Mapping"
"Blocked","m150","cave","9","m150dime.wav","None","722.206093604","165","454599.445403","446882.319041","447649.104029","448415.735975","449182.142534","449948.9841","450716.132986","451482.386812","440765.603015","441532.61339","442299.074982","443065.416305","443832.737709","444599.068829","445366.534309","446132.88769","451491.950187","Mapping"
"Blocked","m150","cave","9","m150cave.wav","None","720.080521423","165","454599.445403","446882.319041","447649.104029","448415.735975","449182.142534","449948.9841","450716.132986","451482.386812","455348.975381","441532.61339","442299.074982","443065.416305","443832.737709","444599.068829","445366.534309","446132.88769","454609.894871","Mapping"
"Blocked","m150","cave","9","m150depth.wav","space","486.314560752","165","454599.445403","446882.319041","447649.104029","448415.735975","449182.142534","449948.9841","450716.132986","451482.386812","455348.975381","456115.743983","442299.074982","443065.416305","443832.737709","444599.068829","445366.534309","446132.88769","455358.701691","Mapping"
"Blocked","m150","cave","9","m150cave.wav","None","733.60287142","165","454599.445403","446882.319041","447649.104029","448415.735975","449182.142534","449948.9841","450716.132986","451482.386812","455348.975381","456115.743983","456882.309766","443065.416305","443832.737709","444599.068829","445366.534309","446132.88769","456125.027555","Mapping"
"Blocked","m150","cave","9","m150cad.wav","space","424.966678722","165","454599.445403","446882.319041","447649.104029","448415.735975","449182.142534","449948.9841","450716.132986","451482.386812","455348.975381","456115.743983","456882.309766","457648.886061","443832.737709","444599.068829","445366.534309","446132.88769","456892.050298","Mapping"
"Blocked","m150","cave","9","m150bluff.wav","None","728.708026232","165","454599.445403","446882.319041","447649.104029","448415.735975","449182.142534","449948.9841","450716.132986","451482.386812","455348.975381","456115.743983","456882.309766","457648.886061","458415.593755","444599.068829","445366.534309","446132.88769","457658.533531","Mapping"
"Blocked","m150","cave","9","m150gnash.wav","None","727.266037837","165","454599.445403","446882.319041","447649.104029","448415.735975","449182.142534","449948.9841","450716.132986","451482.386812","455348.975381","456115.743983","456882.309766","457648.886061","458415.593755","459182.26373","445366.534309","446132.88769","458425.209999","Mapping"
"Blocked","m150","cave","9","m150cave.wav","None","725.109548308","165","454599.445403","446882.319041","447649.104029","448415.735975","449182.142534","449948.9841","450716.132986","451482.386812","455348.975381","456115.743983","456882.309766","457648.886061","458415.593755","459182.26373","459948.976989","446132.88769","459191.845346","Mapping"
"Blocked","m150","cave","9","m150cling.wav","space","430.481727235","165","454599.445403","446882.319041","447649.104029","448415.735975","449182.142534","449948.9841","450716.132986","451482.386812","455348.975381","456115.743983","456882.309766","457648.886061","458415.593755","459182.26373","459948.976989","460716.11258","459958.473583","Mapping"
"Blocked","m150","cave","9","m150bluff.wav","None","718.865467003","165","454599.445403","461465.404185","447649.104029","448415.735975","449182.142534","449948.9841","450716.132986","451482.386812","455348.975381","456115.743983","456882.309766","457648.886061","458415.593755","459182.26373","459948.976989","460716.11258","460726.795166","Mapping"
"Blocked","m150","cave","9","m150park.wav","None","734.880069736","165","454599.445403","461465.404185","462232.002431","448415.735975","449182.142534","449948.9841","450716.132986","451482.386812","455348.975381","456115.743983","456882.309766","457648.886061","458415.593755","459182.26373","459948.976989","460716.11258","461475.378762","Mapping"
"Blocked","m150","cave","9","m150knife.wav","None","734.164022375","165","454599.445403","461465.404185","462232.002431","462998.471443","449182.142534","449948.9841","450716.132986","451482.386812","455348.975381","456115.743983","456882.309766","457648.886061","458415.593755","459182.26373","459948.976989","460716.11258","462241.005583","Mapping"
"Blocked","m150","cave","9","m150cling.wav","None","731.913852738","165","454599.445403","461465.404185","462232.002431","462998.471443","463765.518301","449948.9841","450716.132986","451482.386812","455348.975381","456115.743983","456882.309766","457648.886061","458415.593755","459182.26373","459948.976989","460716.11258","463007.872192","Mapping"
"Blocked","m150","cave","9","m150cave.wav","None","729.509714758","165","454599.445403","461465.404185","462232.002431","462998.471443","463765.518301","464532.22414","450716.132986","451482.386812","455348.975381","456115.743983","456882.309766","457648.886061","458415.593755","459182.26373","459948.976989","460716.11258","463774.968827","Mapping"
"Blocked","m150","cave","9","m150cling.wav","space","534.991558176","165","454599.445403","461465.404185","462232.002431","462998.471443","463765.518301","464532.22414","465298.756223","451482.386812","455348.975381","456115.743983","456882.309766","457648.886061","458415.593755","459182.26373","459948.976989","460716.11258","464541.889233","Mapping"
"Blocked","m150","cave","9","m150romp.wav","None","725.137992064","165","454599.445403","461465.404185","462232.002431","462998.471443","463765.518301","464532.22414","465298.756223","466066.150284","455348.975381","456115.743983","456882.309766","457648.886061","458415.593755","459182.26373","459948.976989","460716.11258","465308.08679","Mapping"
"Blocked","m150","cave","10","m150romp.wav","None","720.944353845","165","469182.593619","461465.404185","462232.002431","462998.471443","463765.518301","464532.22414","465298.756223","466066.150284","455348.975381","456115.743983","456882.309766","457648.886061","458415.593755","459182.26373","459948.976989","460716.11258","466076.799479","Mapping"
"Blocked","m150","cave","10","m150jaw.wav","None","720.176365459","165","469182.593619","461465.404185","462232.002431","462998.471443","463765.518301","464532.22414","465298.756223","466066.150284","469932.297662","456115.743983","456882.309766","457648.886061","458415.593755","459182.26373","459948.976989","460716.11258","469192.613025","Mapping"
"Blocked","m150","cave","10","m150jolt.wav","None","735.100201797","165","469182.593619","461465.404185","462232.002431","462998.471443","463765.518301","464532.22414","465298.756223","466066.150284","469932.297662","470698.340941","456882.309766","457648.886061","458415.593755","459182.26373","459948.976989","460716.11258","469942.381377","Mapping"
"Blocked","m150","cave","10","m150cave.wav","None","734.729501884","165","469182.593619","461465.404185","462232.002431","462998.471443","463765.518301","464532.22414","465298.756223","466066.150284","469932.297662","470698.340941","471465.404185","457648.886061","458415.593755","459182.26373","459948.976989","460716.11258","470707.439008","Mapping"
"Blocked","m150","cave","10","m150greet.wav","space","401.640107157","165","469182.593619","461465.404185","462232.002431","462998.471443","463765.518301","464532.22414","465298.756223","466066.150284","469932.297662","470698.340941","471465.404185","472232.187627","458415.593755","459182.26373","459948.976989","460716.11258","471475.171924","Mapping"
"Blocked","m150","cave","10","m150lash.wav","None","728.340418078","165","469182.593619","461465.404185","462232.002431","462998.471443","463765.518301","464532.22414","465298.756223","466066.150284","469932.297662","470698.340941","471465.404185","472232.187627","472998.627885","459182.26373","459948.976989","460716.11258","472242.393156","Mapping"
"Blocked","m150","cave","10","m150dime.wav","None","728.140382562","165","469182.593619","461465.404185","462232.002431","462998.471443","463765.518301","464532.22414","465298.756223","466066.150284","469932.297662","470698.340941","471465.404185","472232.187627","472998.627885","473765.345473","459948.976989","460716.11258","473007.866936","Mapping"
"Blocked","m150","cave","10","m150cave.wav","None","725.970288971","165","469182.593619","461465.404185","462232.002431","462998.471443","463765.518301","464532.22414","465298.756223","466066.150284","469932.297662","470698.340941","471465.404185","472232.187627","472998.627885","473765.345473","474531.792224","460716.11258","473774.980576","Mapping"
"Blocked","m150","cave","10","m150cling.wav","space","463.008703664","165","469182.593619","461465.404185","462232.002431","462998.471443","463765.518301","464532.22414","465298.756223","466066.150284","469932.297662","470698.340941","471465.404185","472232.187627","472998.627885","473765.345473","474531.792224","475298.940182","474541.73712","Mapping"
"Blocked","m150","cave","10","m150dime.wav","None","720.543664182","165","469182.593619","476065.701982","462232.002431","462998.471443","463765.518301","464532.22414","465298.756223","466066.150284","469932.297662","470698.340941","471465.404185","472232.187627","472998.627885","473765.345473","474531.792224","475298.940182","475309.629569","Mapping"
"Blocked","m150","cave","10","m150romp.wav","None","718.963475199","165","469182.593619","476065.701982","476815.201351","462998.471443","463765.518301","464532.22414","465298.756223","466066.150284","469932.297662","470698.340941","471465.404185","472232.187627","472998.627885","473765.345473","474531.792224","475298.940182","476075.949559","Mapping"
"Blocked","m150","cave","10","m150cave.wav","None","734.744033078","165","469182.593619","476065.701982","476815.201351","477582.020039","463765.518301","464532.22414","465298.756223","466066.150284","469932.297662","470698.340941","471465.404185","472232.187627","472998.627885","473765.345473","474531.792224","475298.940182","476825.004955","Mapping"
"Blocked","m150","cave","10","m150done.wav","space","301.216631196","165","469182.593619","476065.701982","476815.201351","477582.020039","478348.509456","464532.22414","465298.756223","466066.150284","469932.297662","470698.340941","471465.404185","472232.187627","472998.627885","473765.345473","474531.792224","475298.940182","477591.498082","Mapping"
"Blocked","m150","cave","10","m150cave.wav","None","730.718585663","165","469182.593619","476065.701982","476815.201351","477582.020039","478348.509456","479115.32938","465298.756223","466066.150284","469932.297662","470698.340941","471465.404185","472232.187627","472998.627885","473765.345473","474531.792224","475298.940182","478357.736759","Mapping"
"Blocked","m150","cave","10","m150knife.wav","space","695.692554815","165","469182.593619","476065.701982","476815.201351","477582.020039","478348.509456","479115.32938","479881.856826","466066.150284","469932.297662","470698.340941","471465.404185","472232.187627","472998.627885","473765.345473","474531.792224","475298.940182","479124.985507","Mapping"
"Blocked","m150","cave","10","m150done.wav","None","725.605463609","165","469182.593619","476065.701982","476815.201351","477582.020039","478348.509456","479115.32938","479881.856826","480648.893172","469932.297662","470698.340941","471465.404185","472232.187627","472998.627885","473765.345473","474531.792224","475298.940182","479891.717626","Mapping"
"Blocked","m150","ball","1","m150cad.wav","None","723.141036229","165","483765.337743","476065.701982","476815.201351","477582.020039","478348.509456","479115.32938","479881.856826","480648.893172","469932.297662","470698.340941","471465.404185","472232.187627","472998.627885","473765.345473","474531.792224","475298.940182","480658.97936","Mapping"
"Blocked","m150","ball","1","m150gnash.wav","None","721.162630944","165","483765.337743","476065.701982","476815.201351","477582.020039","478348.509456","479115.32938","479881.856826","480648.893172","484515.207813","470698.340941","471465.404185","472232.187627","472998.627885","473765.345473","474531.792224","475298.940182","483774.464255","Mapping"
"Blocked","m150","ball","1","m150reek.wav","None","735.622087959","165","483765.337743","476065.701982","476815.201351","477582.020039","478348.509456","479115.32938","479881.856826","480648.893172","484515.207813","485281.889536","471465.404185","472232.187627","472998.627885","473765.345473","474531.792224","475298.940182","484524.841989","Mapping"
"Blocked","m150","ball","1","m150jolt.wav","None","733.997068368","165","483765.337743","476065.701982","476815.201351","477582.020039","478348.509456","479115.32938","479881.856826","480648.893172","484515.207813","485281.889536","486048.068543","472232.187627","472998.627885","473765.345473","474531.792224","475298.940182","485292.002314","Mapping"
"Blocked","m150","ball","1","m150ball.wav","None","733.342237538","165","483765.337743","476065.701982","476815.201351","477582.020039","478348.509456","479115.32938","479881.856826","480648.893172","484515.207813","485281.889536","486048.068543","486815.208462","472998.627885","473765.345473","474531.792224","475298.940182","486057.450742","Mapping"
"Blocked","m150","ball","1","m150park.wav","space","355.201221304","165","483765.337743","476065.701982","476815.201351","477582.020039","478348.509456","479115.32938","479881.856826","480648.893172","484515.207813","485281.889536","486048.068543","486815.208462","487581.842573","473765.345473","474531.792224","475298.940182","486825.360814","Mapping"
"Blocked","m150","ball","1","m150ball.wav","None","728.260650998","165","483765.337743","476065.701982","476815.201351","477582.020039","478348.509456","479115.32938","479881.856826","480648.893172","484515.207813","485281.889536","486048.068543","486815.208462","487581.842573","488348.385786","474531.792224","475298.940182","487591.578158","Mapping"
"Blocked","m150","ball","1","m150tile.wav","space","694.059806177","165","483765.337743","476065.701982","476815.201351","477582.020039","478348.509456","479115.32938","479881.856826","480648.893172","484515.207813","485281.889536","486048.068543","486815.208462","487581.842573","488348.385786","489115.588777","475298.940182","488358.477231","Mapping"
"Blocked","m150","ball","1","m150ball.wav","None","722.740964731","165","483765.337743","476065.701982","476815.201351","477582.020039","478348.509456","479115.32938","479881.856826","480648.893172","484515.207813","485281.889536","486048.068543","486815.208462","487581.842573","488348.385786","489115.588777","489882.21856","489126.085858","Mapping"
"Blocked","m150","ball","1","m150greet.wav","space","464.064533124","165","483765.337743","490648.81155","476815.201351","477582.020039","478348.509456","479115.32938","479881.856826","480648.893172","484515.207813","485281.889536","486048.068543","486815.208462","487581.842573","488348.385786","489115.588777","489882.21856","489892.446041","Mapping"
"Blocked","m150","ball","1","m150ball.wav","None","718.999030301","165","483765.337743","490648.81155","491398.140565","477582.020039","478348.509456","479115.32938","479881.856826","480648.893172","484515.207813","485281.889536","486048.068543","486815.208462","487581.842573","488348.385786","489115.588777","489882.21856","490658.991727","Mapping"
"Blocked","m150","ball","1","m150done.wav","space","636.454477208","165","483765.337743","490648.81155","491398.140565","492165.115385","478348.509456","479115.32938","479881.856826","480648.893172","484515.207813","485281.889536","486048.068543","486815.208462","487581.842573","488348.385786","489115.588777","489882.21856","491408.027336","Mapping"
"Blocked","m150","ball","1","m150dime.wav","None","731.902722502","165","483765.337743","490648.81155","491398.140565","492165.115385","492931.793708","479115.32938","479881.856826","480648.893172","484515.207813","485281.889536","486048.068543","486815.208462","487581.842573","488348.385786","489115.588777","489882.21856","492174.944959","Mapping"
"Blocked","m150","ball","1","m150cad.wav","None","729.801884154","165","483765.337743","490648.81155","491398.140565","492165.115385","492931.793708","493698.315279","479881.856826","480648.893172","484515.207813","485281.889536","486048.068543","486815.208462","487581.842573","488348.385786","489115.588777","489882.21856","492941.97203","Mapping"
"Blocked","m150","ball","1","m150cling.wav","None","728.50922728","165","483765.337743","490648.81155","491398.140565","492165.115385","492931.793708","493698.315279","494465.090682","480648.893172","484515.207813","485281.889536","486048.068543","486815.208462","487581.842573","488348.385786","489115.588777","489882.21856","493708.093221","Mapping"
"Blocked","m150","ball","1","m150gnash.wav","None","726.334496168","165","483765.337743","490648.81155","491398.140565","492165.115385","492931.793708","493698.315279","494465.090682","495231.515482","484515.207813","485281.889536","486048.068543","486815.208462","487581.842573","488348.385786","489115.588777","489882.21856","494475.107307","Mapping"
"Blocked","m150","tile","15","m150gnash.wav","None","725.797460647","165","498348.685994","490648.81155","491398.140565","492165.115385","492931.793708","493698.315279","494465.090682","495231.515482","484515.207813","485281.889536","486048.068543","486815.208462","487581.842573","488348.385786","489115.588777","489882.21856","495240.618806","Mapping"
"Blocked","m150","tile","15","m150cad.wav","None","720.586948562","165","498348.685994","490648.81155","491398.140565","492165.115385","492931.793708","493698.315279","494465.090682","495231.515482","499115.511793","485281.889536","486048.068543","486815.208462","487581.842573","488348.385786","489115.588777","489882.21856","498358.800627","Mapping"
"Blocked","m150","tile","15","m150bluff.wav","None","718.656465178","165","498348.685994","490648.81155","491398.140565","492165.115385","492931.793708","493698.315279","494465.090682","495231.515482","499115.511793","499864.841426","486048.068543","486815.208462","487581.842573","488348.385786","489115.588777","489882.21856","499125.64714","Mapping"
"Blocked","m150","tile","15","m150cad.wav","None","735.203466145","165","498348.685994","490648.81155","491398.140565","492165.115385","492931.793708","493698.315279","494465.090682","495231.515482","499115.511793","499864.841426","500647.880317","486815.208462","487581.842573","488348.385786","489115.588777","489882.21856","499874.617513","Mapping"
"Blocked","m150","tile","15","m150tile.wav","None","721.614334267","165","498348.685994","490648.81155","491398.140565","492165.115385","492931.793708","493698.315279","494465.090682","495231.515482","499115.511793","499864.841426","500647.880317","501398.402126","487581.842573","488348.385786","489115.588777","489882.21856","500656.80061","Mapping"
"Blocked","m150","tile","15","m150jolt.wav","space","388.15052947","165","498348.685994","490648.81155","491398.140565","492165.115385","492931.793708","493698.315279","494465.090682","495231.515482","499115.511793","499864.841426","500647.880317","501398.402126","502164.874848","488348.385786","489115.588777","489882.21856","501408.217478","Mapping"
"Blocked","m150","tile","15","m150lash.wav","None","733.271745965","165","498348.685994","490648.81155","491398.140565","492165.115385","492931.793708","493698.315279","494465.090682","495231.515482","499115.511793","499864.841426","500647.880317","501398.402126","502164.874848","502931.582851","489115.588777","489882.21856","502174.615998","Mapping"
"Blocked","m150","tile","15","m150tile.wav","None","732.113270322","165","498348.685994","490648.81155","491398.140565","492165.115385","492931.793708","493698.315279","494465.090682","495231.515482","499115.511793","499864.841426","500647.880317","501398.402126","502164.874848","502931.582851","503698.171204","489882.21856","502940.832105","Mapping"
"Blocked","m150","tile","15","m150romp.wav","space","496.590581955","165","498348.685994","490648.81155","491398.140565","492165.115385","492931.793708","493698.315279","494465.090682","495231.515482","499115.511793","499864.841426","500647.880317","501398.402126","502164.874848","502931.582851","503698.171204","504464.895593","503707.733651","Mapping"
"Blocked","m150","tile","15","m150jaw.wav","None","727.937564021","165","498348.685994","505231.61349","491398.140565","492165.115385","492931.793708","493698.315279","494465.090682","495231.515482","499115.511793","499864.841426","500647.880317","501398.402126","502164.874848","502931.582851","503698.171204","504464.895593","504474.175147","Mapping"
"Blocked","m150","tile","15","m150tile.wav","None","725.875990698","165","498348.685994","505231.61349","505998.201534","492165.115385","492931.793708","493698.315279","494465.090682","495231.515482","499115.511793","499864.841426","500647.880317","501398.402126","502164.874848","502931.582851","503698.171204","504464.895593","505241.274873","Mapping"
"Blocked","m150","tile","15","m150romp.wav","space","545.401451644","165","498348.685994","505231.61349","505998.201534","506764.756496","492931.793708","493698.315279","494465.090682","495231.515482","499115.511793","499864.841426","500647.880317","501398.402126","502164.874848","502931.582851","503698.171204","504464.895593","506002.883977","Mapping"
"Blocked","m150","tile","15","m150tile.wav","None","722.728597932","165","498348.685994","505231.61349","505998.201534","506764.756496","507531.889923","493698.315279","494465.090682","495231.515482","499115.511793","499864.841426","500647.880317","501398.402126","502164.874848","502931.582851","503698.171204","504464.895593","506774.010388","Mapping"
"Blocked","m150","tile","15","m150reek.wav","None","720.108037814","165","498348.685994","505231.61349","505998.201534","506764.756496","507531.889923","508281.875314","494465.090682","495231.515482","499115.511793","499864.841426","500647.880317","501398.402126","502164.874848","502931.582851","503698.171204","504464.895593","507541.742994","Mapping"
"Blocked","m150","tile","15","m150priest.wav","space","0.0333907082677","165","498348.685994","505231.61349","505998.201534","506764.756496","507531.889923","508281.875314","509048.055867","495231.515482","499115.511793","499864.841426","500647.880317","501398.402126","502164.874848","502931.582851","503698.171204","504464.895593","508291.82794","Mapping"
"Blocked","m150","tile","15","m150gnash.wav","None","733.207437675","165","498348.685994","505231.61349","505998.201534","506764.756496","507531.889923","508281.875314","509048.055867","509814.993586","499115.511793","499864.841426","500647.880317","501398.402126","502164.874848","502931.582851","503698.171204","504464.895593","509057.932126","Mapping"
"Blocked","m150","cave","12","m150cling.wav","None","732.063493226","165","512948.356477","505231.61349","505998.201534","506764.756496","507531.889923","508281.875314","509048.055867","509814.993586","499115.511793","499864.841426","500647.880317","501398.402126","502164.874848","502931.582851","503698.171204","504464.895593","509824.109277","Mapping"
"Blocked","m150","cave","12","m150bluff.wav","None","720.38567625","165","512948.356477","505231.61349","505998.201534","506764.756496","507531.889923","508281.875314","509048.055867","509814.993586","513715.351084","499864.841426","500647.880317","501398.402126","502164.874848","502931.582851","503698.171204","504464.895593","512958.588595","Mapping"
"Blocked","m150","cave","12","m150dime.wav","None","718.691401882","165","512948.356477","505231.61349","505998.201534","506764.756496","507531.889923","508281.875314","509048.055867","509814.993586","513715.351084","514464.709471","500647.880317","501398.402126","502164.874848","502931.582851","503698.171204","504464.895593","513725.363071","Mapping"
"Blocked","m150","cave","12","m150romp.wav","None","734.575842274","165","512948.356477","505231.61349","505998.201534","506764.756496","507531.889923","508281.875314","509048.055867","509814.993586","513715.351084","514464.709471","515231.253612","501398.402126","502164.874848","502931.582851","503698.171204","504464.895593","514474.262025","Mapping"
"Blocked","m150","cave","12","m150park.wav","None","733.321213629","165","512948.356477","505231.61349","505998.201534","506764.756496","507531.889923","508281.875314","509048.055867","509814.993586","513715.351084","514464.709471","515231.253612","515997.832689","502164.874848","502931.582851","503698.171204","504464.895593","515240.445978","Mapping"
"Blocked","m150","cave","12","m150cad.wav","None","731.718454743","165","512948.356477","505231.61349","505998.201534","506764.756496","507531.889923","508281.875314","509048.055867","509814.993586","513715.351084","514464.709471","515231.253612","515997.832689","516764.342821","502931.582851","503698.171204","504464.895593","516006.945288","Mapping"
"Blocked","m150","cave","12","m150cave.wav","None","730.715493904","165","512948.356477","505231.61349","505998.201534","506764.756496","507531.889923","508281.875314","509048.055867","509814.993586","513715.351084","514464.709471","515231.253612","515997.832689","516764.342821","517531.473465","503698.171204","504464.895593","516773.472734","Mapping"
"Blocked","m150","cave","12","m150lash.wav","space","478.792662732","165","512948.356477","505231.61349","505998.201534","506764.756496","507531.889923","508281.875314","509048.055867","509814.993586","513715.351084","514464.709471","515231.253612","515997.832689","516764.342821","517531.473465","518298.400673","504464.895593","517541.341068","Mapping"
"Blocked","m150","cave","12","m150cave.wav","None","724.719988648","165","512948.356477","505231.61349","505998.201534","506764.756496","507531.889923","508281.875314","509048.055867","509814.993586","513715.351084","514464.709471","515231.253612","515997.832689","516764.342821","517531.473465","518298.400673","519065.012523","518308.452543","Mapping"
"Blocked","m150","cave","12","m150reek.wav","space","400.34404886","165","512948.356477","519831.140825","505998.201534","506764.756496","507531.889923","508281.875314","509048.055867","509814.993586","513715.351084","514464.709471","515231.253612","515997.832689","516764.342821","517531.473465","518298.400673","519065.012523","519075.737465","Mapping"
"Blocked","m150","cave","12","m150cave.wav","None","721.872803988","165","512948.356477","519831.140825","520597.720521","506764.756496","507531.889923","508281.875314","509048.055867","509814.993586","513715.351084","514464.709471","515231.253612","515997.832689","516764.342821","517531.473465","518298.400673","519065.012523","519840.361635","Mapping"
"Blocked","m150","cave","12","m150reek.wav","space","509.193448117","165","512948.356477","519831.140825","520597.720521","521347.532156","507531.889923","508281.875314","509048.055867","509814.993586","513715.351084","514464.709471","515231.253612","515997.832689","516764.342821","517531.473465","518298.400673","519065.012523","520606.87795","Mapping"
"Blocked","m150","cave","12","m150gnash.wav","None","739.767804043","165","512948.356477","519831.140825","520597.720521","521347.532156","522114.623536","508281.875314","509048.055867","509814.993586","513715.351084","514464.709471","515231.253612","515997.832689","516764.342821","517531.473465","518298.400673","519065.012523","521351.774335","Mapping"
"Blocked","m150","cave","12","m150ball.wav","None","732.296919683","165","512948.356477","519831.140825","520597.720521","521347.532156","522114.623536","522881.325355","509048.055867","509814.993586","513715.351084","514464.709471","515231.253612","515997.832689","516764.342821","517531.473465","518298.400673","519065.012523","522124.261422","Mapping"
"Blocked","m150","cave","12","m150cave.wav","None","730.359634385","165","512948.356477","519831.140825","520597.720521","521347.532156","522114.623536","522881.325355","523648.196294","509814.993586","513715.351084","514464.709471","515231.253612","515997.832689","516764.342821","517531.473465","518298.400673","519065.012523","522891.192958","Mapping"
"Blocked","m150","cave","12","m150done.wav","space","602.173247142","165","512948.356477","519831.140825","520597.720521","521347.532156","522114.623536","522881.325355","523648.196294","524414.353967","513715.351084","514464.709471","515231.253612","515997.832689","516764.342821","517531.473465","518298.400673","519065.012523","523657.846546","Mapping"
"Blocked","m150","ball","2","m150priest.wav","None","365.37799798","165","527547.943791","519831.140825","520597.720521","521347.532156","522114.623536","522881.325355","523648.196294","524414.353967","513715.351084","514464.709471","515231.253612","515997.832689","516764.342821","517531.473465","518298.400673","519065.012523","524785.155188","Mapping"
"Blocked","m150","ball","2","m150ball.wav","None","721.411825158","165","527547.943791","519831.140825","520597.720521","521347.532156","522114.623536","522881.325355","523648.196294","524414.353967","528314.996214","514464.709471","515231.253612","515997.832689","516764.342821","517531.473465","518298.400673","519065.012523","527557.593735","Mapping"
"Blocked","m150","ball","2","m150priest.wav","space","710.435833549","165","527547.943791","519831.140825","520597.720521","521347.532156","522114.623536","522881.325355","523648.196294","524414.353967","528314.996214","529064.686653","515231.253612","515997.832689","516764.342821","517531.473465","518298.400673","519065.012523","528325.542454","Mapping"
"Blocked","m150","ball","2","m150ball.wav","None","734.183500288","165","527547.943791","519831.140825","520597.720521","521347.532156","522114.623536","522881.325355","523648.196294","524414.353967","528314.996214","529064.686653","529831.260475","515997.832689","516764.342821","517531.473465","518298.400673","519065.012523","529073.924777","Mapping"
"Blocked","m150","ball","2","m150cad.wav","space","427.174491575","165","527547.943791","519831.140825","520597.720521","521347.532156","522114.623536","522881.325355","523648.196294","524414.353967","528314.996214","529064.686653","529831.260475","530597.811109","516764.342821","517531.473465","518298.400673","519065.012523","529840.765107","Mapping"
"Blocked","m150","ball","2","m150park.wav","None","730.111058569","165","527547.943791","519831.140825","520597.720521","521347.532156","522114.623536","522881.325355","523648.196294","524414.353967","528314.996214","529064.686653","529831.260475","530597.811109","531364.524986","517531.473465","518298.400673","519065.012523","530607.123744","Mapping"
"Blocked","m150","ball","2","m150priest.wav","None","727.556043305","165","527547.943791","519831.140825","520597.720521","521347.532156","522114.623536","522881.325355","523648.196294","524414.353967","528314.996214","529064.686653","529831.260475","530597.811109","531364.524986","532131.25896","518298.400673","519065.012523","531375.431723","Mapping"
"Blocked","m150","ball","2","m150dime.wav","None","725.368017796","165","527547.943791","519831.140825","520597.720521","521347.532156","522114.623536","522881.325355","523648.196294","524414.353967","528314.996214","529064.686653","529831.260475","530597.811109","531364.524986","532131.25896","532897.889979","519065.012523","532146.831444","Mapping"
"Blocked","m150","ball","2","m150gnash.wav","None","729.247535113","165","527547.943791","519831.140825","520597.720521","521347.532156","522114.623536","522881.325355","523648.196294","524414.353967","528314.996214","529064.686653","529831.260475","530597.811109","531364.524986","532131.25896","532897.889979","533664.483897","532908.088398","Mapping"
"Blocked","m150","ball","2","m150depth.wav","None","728.625476593","165","527547.943791","534430.962802","520597.720521","521347.532156","522114.623536","522881.325355","523648.196294","524414.353967","528314.996214","529064.686653","529831.260475","530597.811109","531364.524986","532131.25896","532897.889979","533664.483897","533673.87568","Mapping"
"Blocked","m150","ball","2","m150knife.wav","None","726.787436288","165","527547.943791","534430.962802","535197.698013","521347.532156","522114.623536","522881.325355","523648.196294","524414.353967","528314.996214","529064.686653","529831.260475","530597.811109","531364.524986","532131.25896","532897.889979","533664.483897","534440.853593","Mapping"
"Blocked","m150","ball","2","m150ball.wav","None","725.527242292","165","527547.943791","534430.962802","535197.698013","535964.100243","522114.623536","522881.325355","523648.196294","524414.353967","528314.996214","529064.686653","529831.260475","530597.811109","531364.524986","532131.25896","532897.889979","533664.483897","535207.280557","Mapping"
"Blocked","m150","ball","2","m150bluff.wav","space","430.657647317","165","527547.943791","534430.962802","535197.698013","535964.100243","536731.037653","522881.325355","523648.196294","524414.353967","528314.996214","529064.686653","529831.260475","530597.811109","531364.524986","532131.25896","532897.889979","533664.483897","535973.193364","Mapping"
"Blocked","m150","ball","2","m150jaw.wav","None","722.427771427","165","527547.943791","534430.962802","535197.698013","535964.100243","536731.037653","537498.082038","523648.196294","524414.353967","528314.996214","529064.686653","529831.260475","530597.811109","531364.524986","532131.25896","532897.889979","533664.483897","536740.223218","Mapping"
"Blocked","m150","ball","2","m150ball.wav","None","719.928407809","165","527547.943791","534430.962802","535197.698013","535964.100243","536731.037653","537498.082038","538264.223634","524414.353967","528314.996214","529064.686653","529831.260475","530597.811109","531364.524986","532131.25896","532897.889979","533664.483897","537508.401035","Mapping"
"Blocked","m150","ball","2","m150dime.wav","space","538.367739879","165","527547.943791","534430.962802","535197.698013","535964.100243","536731.037653","537498.082038","538264.223634","539014.207789","528314.996214","529064.686653","529831.260475","530597.811109","531364.524986","532131.25896","532897.889979","533664.483897","538273.440116","Mapping"
"Blocked","m150","done","19","m150gnash.wav","None","734.333758941","165","542148.078962","534430.962802","535197.698013","535964.100243","536731.037653","537498.082038","538264.223634","539014.207789","528314.996214","529064.686653","529831.260475","530597.811109","531364.524986","532131.25896","532897.889979","533664.483897","539023.548559","Mapping"
"Blocked","m150","done","19","m150cling.wav","None","719.598828116","165","542148.078962","534430.962802","535197.698013","535964.100243","536731.037653","537498.082038","538264.223634","539014.207789","542897.384479","529064.686653","529831.260475","530597.811109","531364.524986","532131.25896","532897.889979","533664.483897","542158.204415","Mapping"
"Blocked","m150","done","19","m150cave.wav","None","736.611445202","165","542148.078962","534430.962802","535197.698013","535964.100243","536731.037653","537498.082038","538264.223634","539014.207789","542897.384479","543664.595818","529831.260475","530597.811109","531364.524986","532131.25896","532897.889979","533664.483897","542906.529851","Mapping"
"Blocked","m150","done","19","m150done.wav","None","734.403323382","165","542148.078962","534430.962802","535197.698013","535964.100243","536731.037653","537498.082038","538264.223634","539014.207789","542897.384479","543664.595818","544430.972077","530597.811109","531364.524986","532131.25896","532897.889979","533664.483897","543673.923293","Mapping"
"Blocked","m150","done","19","m150depth.wav","space","354.839178268","165","542148.078962","534430.962802","535197.698013","535964.100243","536731.037653","537498.082038","538264.223634","539014.207789","542897.384479","543664.595818","544430.972077","545197.54188","531364.524986","532131.25896","532897.889979","533664.483897","544440.886674","Mapping"
"Blocked","m150","done","19","m150done.wav","None","730.400754604","165","542148.078962","534430.962802","535197.698013","535964.100243","536731.037653","537498.082038","538264.223634","539014.207789","542897.384479","543664.595818","544430.972077","545197.54188","545964.25483","532131.25896","532897.889979","533664.483897","545207.167399","Mapping"
"Blocked","m150","done","19","m150reek.wav","None","728.892603191","165","542148.078962","534430.962802","535197.698013","535964.100243","536731.037653","537498.082038","538264.223634","539014.207789","542897.384479","543664.595818","544430.972077","545197.54188","545964.25483","546731.018175","532897.889979","533664.483897","545973.955169","Mapping"
"Blocked","m150","done","19","m150greet.wav","space","87.1487744153","165","542148.078962","534430.962802","535197.698013","535964.100243","536731.037653","537498.082038","538264.223634","539014.207789","542897.384479","543664.595818","544430.972077","545197.54188","545964.25483","546731.018175","547497.489969","533664.483897","546740.534556","Mapping"
"Blocked","m150","done","19","m150reek.wav","None","724.520880496","165","542148.078962","534430.962802","535197.698013","535964.100243","536731.037653","537498.082038","538264.223634","539014.207789","542897.384479","543664.595818","544430.972077","545197.54188","545964.25483","546731.018175","547497.489969","548264.814775","547507.482169","Mapping"
"Blocked","m150","done","19","m150tile.wav","None","722.470437409","165","542148.078962","549031.431572","535197.698013","535964.100243","536731.037653","537498.082038","538264.223634","539014.207789","542897.384479","543664.595818","544430.972077","545197.54188","545964.25483","546731.018175","547497.489969","548264.814775","548274.598591","Mapping"
"Blocked","m150","done","19","m150done.wav","None","720.761013683","165","542148.078962","549031.431572","549797.744451","535964.100243","536731.037653","537498.082038","538264.223634","539014.207789","542897.384479","543664.595818","544430.972077","545197.54188","545964.25483","546731.018175","547497.489969","548264.814775","549041.61917","Mapping"
"Blocked","m150","done","19","m150park.wav","space","435.66905125","165","542148.078962","549031.431572","549797.744451","550547.006684","536731.037653","537498.082038","538264.223634","539014.207789","542897.384479","543664.595818","544430.972077","545197.54188","545964.25483","546731.018175","547497.489969","548264.814775","549807.962348","Mapping"
"Blocked","m150","done","19","m150done.wav","None","734.986116644","165","542148.078962","549031.431572","549797.744451","550547.006684","551314.135782","537498.082038","538264.223634","539014.207789","542897.384479","543664.595818","544430.972077","545197.54188","545964.25483","546731.018175","547497.489969","548264.814775","550556.677033","Mapping"
"Blocked","m150","done","19","m150ball.wav","None","733.172191773","165","542148.078962","549031.431572","549797.744451","550547.006684","551314.135782","552080.997754","538264.223634","539014.207789","542897.384479","543664.595818","544430.972077","545197.54188","545964.25483","546731.018175","547497.489969","548264.814775","551323.738422","Mapping"
"Blocked","m150","done","19","m150ball.wav","None","731.298596365","165","542148.078962","549031.431572","549797.744451","550547.006684","551314.135782","552080.997754","552847.44296","539014.207789","542897.384479","543664.595818","544430.972077","545197.54188","545964.25483","546731.018175","547497.489969","548264.814775","552090.85299","Mapping"
"Blocked","m150","done","19","m150bluff.wav","None","730.524115264","165","542148.078962","549031.431572","549797.744451","550547.006684","551314.135782","552080.997754","552847.44296","553614.320081","542897.384479","543664.595818","544430.972077","545197.54188","545964.25483","546731.018175","547497.489969","548264.814775","552857.330349","Mapping"
"Blocked","m150","tile","18","m150reek.wav","None","729.000814026","165","556747.667204","549031.431572","549797.744451","550547.006684","551314.135782","552080.997754","552847.44296","553614.320081","542897.384479","543664.595818","544430.972077","545197.54188","545964.25483","546731.018175","547497.489969","548264.814775","553624.134196","Mapping"
"Blocked","m150","tile","18","m150tile.wav","None","721.17623454","165","556747.667204","549031.431572","549797.744451","550547.006684","551314.135782","552080.997754","552847.44296","553614.320081","557514.746834","543664.595818","544430.972077","545197.54188","545964.25483","546731.018175","547497.489969","548264.814775","556757.444836","Mapping"
"Blocked","m150","tile","18","m150lash.wav","space","526.453095255","165","556747.667204","549031.431572","549797.744451","550547.006684","551314.135782","552080.997754","552847.44296","553614.320081","557514.746834","558264.002575","544430.972077","545197.54188","545964.25483","546731.018175","547497.489969","548264.814775","557525.048208","Mapping"
"Blocked","m150","tile","18","m150tile.wav","None","678.649638547","165","556747.667204","549031.431572","549797.744451","550547.006684","551314.135782","552080.997754","552847.44296","553614.320081","557514.746834","558264.002575","559030.839195","545197.54188","545964.25483","546731.018175","547497.489969","548264.814775","558329.446396","Mapping"
"Blocked","m150","tile","18","m150reek.wav","space","395.172183635","165","556747.667204","549031.431572","549797.744451","550547.006684","551314.135782","552080.997754","552847.44296","553614.320081","557514.746834","558264.002575","559030.839195","559797.310679","545964.25483","546731.018175","547497.489969","548264.814775","559040.318474","Mapping"
"Blocked","m150","tile","18","m150greet.wav","None","731.282519177","165","556747.667204","549031.431572","549797.744451","550547.006684","551314.135782","552080.997754","552847.44296","553614.320081","557514.746834","558264.002575","559030.839195","559797.310679","560564.083609","546731.018175","547497.489969","548264.814775","559806.404728","Mapping"
"Blocked","m150","tile","18","m150tile.wav","None","730.52720679","165","556747.667204","549031.431572","549797.744451","550547.006684","551314.135782","552080.997754","552847.44296","553614.320081","557514.746834","558264.002575","559030.839195","559797.310679","560564.083609","561330.860558","547497.489969","548264.814775","560573.346776","Mapping"
"Blocked","m150","tile","18","m150cling.wav","space","495.106855175","165","556747.667204","549031.431572","549797.744451","550547.006684","551314.135782","552080.997754","552847.44296","553614.320081","557514.746834","558264.002575","559030.839195","559797.310679","560564.083609","561330.860558","562097.271445","548264.814775","561340.3689","Mapping"
"Blocked","m150","tile","18","m150reek.wav","None","726.537623676","165","556747.667204","549031.431572","549797.744451","550547.006684","551314.135782","552080.997754","552847.44296","553614.320081","557514.746834","558264.002575","559030.839195","559797.310679","560564.083609","561330.860558","562097.271445","562864.104046","562106.866665","Mapping"
"Blocked","m150","tile","18","m150tile.wav","None","725.379148033","165","556747.667204","563631.418958","549797.744451","550547.006684","551314.135782","552080.997754","552847.44296","553614.320081","557514.746834","558264.002575","559030.839195","559797.310679","560564.083609","561330.860558","562097.271445","562864.104046","562873.335986","Mapping"
"Blocked","m150","tile","18","m150cling.wav","space","378.468740731","165","556747.667204","563631.418958","564397.162029","550547.006684","551314.135782","552080.997754","552847.44296","553614.320081","557514.746834","558264.002575","559030.839195","559797.310679","560564.083609","561330.860558","562097.271445","562864.104046","563640.933793","Mapping"
"Blocked","m150","tile","18","m150park.wav","None","722.678511636","165","556747.667204","563631.418958","564397.162029","565163.813453","551314.135782","552080.997754","552847.44296","553614.320081","557514.746834","558264.002575","559030.839195","559797.310679","560564.083609","561330.860558","562097.271445","562864.104046","564406.049858","Mapping"
"Blocked","m150","tile","18","m150lash.wav","None","721.213953802","165","556747.667204","563631.418958","564397.162029","565163.813453","565913.837182","552080.997754","552847.44296","553614.320081","557514.746834","558264.002575","559030.839195","559797.310679","560564.083609","561330.860558","562097.271445","562864.104046","565172.982631","Mapping"
"Blocked","m150","tile","18","m150jolt.wav","None","736.689975485","165","556747.667204","563631.418958","564397.162029","565163.813453","565913.837182","566680.575794","552847.44296","553614.320081","557514.746834","558264.002575","559030.839195","559797.310679","560564.083609","561330.860558","562097.271445","562864.104046","565922.899076","Mapping"
"Blocked","m150","tile","18","m150cling.wav","None","735.097728204","165","556747.667204","563631.418958","564397.162029","565163.813453","565913.837182","566680.575794","567447.164456","553614.320081","557514.746834","558264.002575","559030.839195","559797.310679","560564.083609","561330.860558","562097.271445","562864.104046","566689.859057","Mapping"
"Blocked","m150","tile","18","m150ball.wav","None","733.945745509","165","556747.667204","563631.418958","564397.162029","565163.813453","565913.837182","566680.575794","567447.164456","568213.551227","557514.746834","558264.002575","559030.839195","559797.310679","560564.083609","561330.860558","562097.271445","562864.104046","567456.595813","Mapping"
"Blocked","m150","tile","17","m150done.wav","None","733.474873239","165","571347.484544","563631.418958","564397.162029","565163.813453","565913.837182","566680.575794","567447.164456","568213.551227","557514.746834","558264.002575","559030.839195","559797.310679","560564.083609","561330.860558","562097.271445","562864.104046","568222.642802","Mapping"
"Blocked","m150","tile","17","m150dime.wav","None","721.046690596","165","571347.484544","563631.418958","564397.162029","565163.813453","565913.837182","566680.575794","567447.164456","568213.551227","572114.359192","558264.002575","559030.839195","559797.310679","560564.083609","561330.860558","562097.271445","562864.104046","571357.228476","Mapping"
"Blocked","m150","tile","17","m150tile.wav","None","719.310059445","165","571347.484544","563631.418958","564397.162029","565163.813453","565913.837182","566680.575794","567447.164456","568213.551227","572114.359192","572863.829499","559030.839195","559797.310679","560564.083609","561330.860558","562097.271445","562864.104046","572124.473206","Mapping"
"Blocked","m150","tile","17","m150cling.wav","space","498.018657556","165","571347.484544","563631.418958","564397.162029","565163.813453","565913.837182","566680.575794","567447.164456","568213.551227","572114.359192","572863.829499","573630.663027","559797.310679","560564.083609","561330.860558","562097.271445","562864.104046","572873.269204","Mapping"
"Blocked","m150","tile","17","m150lash.wav","None","733.12365124","165","571347.484544","563631.418958","564397.162029","565163.813453","565913.837182","566680.575794","567447.164456","568213.551227","572114.359192","572863.829499","573630.663027","574397.112561","560564.083609","561330.860558","562097.271445","562864.104046","573640.188992","Mapping"
"Blocked","m150","tile","17","m150tile.wav","None","732.203858439","165","571347.484544","563631.418958","564397.162029","565163.813453","565913.837182","566680.575794","567447.164456","568213.551227","572114.359192","572863.829499","573630.663027","574397.112561","575163.869414","561330.860558","562097.271445","562864.104046","574406.616883","Mapping"
"Blocked","m150","tile","17","m150dime.wav","space","373.622126644","165","571347.484544","563631.418958","564397.162029","565163.813453","565913.837182","566680.575794","567447.164456","568213.551227","572114.359192","572863.829499","573630.663027","574397.112561","575163.869414","575930.578344","562097.271445","562864.104046","575173.650756","Mapping"
"Blocked","m150","tile","17","m150greet.wav","None","728.406272363","165","571347.484544","563631.418958","564397.162029","565163.813453","565913.837182","566680.575794","567447.164456","568213.551227","572114.359192","572863.829499","573630.663027","574397.112561","575163.869414","575930.578344","576697.083839","562864.104046","575940.084522","Mapping"
"Blocked","m150","tile","17","m150cad.wav","None","728.101735469","165","571347.484544","563631.418958","564397.162029","565163.813453","565913.837182","566680.575794","567447.164456","568213.551227","572114.359192","572863.829499","573630.663027","574397.112561","575163.869414","575930.578344","576697.083839","577463.874391","576706.596818","Mapping"
"Blocked","m150","tile","17","m150gnash.wav","None","727.033848176","165","571347.484544","578230.472638","564397.162029","565163.813453","565913.837182","566680.575794","567447.164456","568213.551227","572114.359192","572863.829499","573630.663027","574397.112561","575163.869414","575930.578344","576697.083839","577463.874391","577473.221344","Mapping"
"Blocked","m150","tile","17","m150cave.wav","None","725.775818573","165","571347.484544","578230.472638","578997.127154","565163.813453","565913.837182","566680.575794","567447.164456","568213.551227","572114.359192","572863.829499","573630.663027","574397.112561","575163.869414","575930.578344","576697.083839","577463.874391","578239.91327","Mapping"
"Blocked","m150","tile","17","m150tile.wav","None","724.761108868","165","571347.484544","578230.472638","578997.127154","579764.118979","565913.837182","566680.575794","567447.164456","568213.551227","572114.359192","572863.829499","573630.663027","574397.112561","575163.869414","575930.578344","576697.083839","577463.874391","579006.552019","Mapping"
"Blocked","m150","tile","17","m150cad.wav","space","388.580590719","165","571347.484544","578230.472638","578997.127154","579764.118979","580530.680434","566680.575794","567447.164456","568213.551227","572114.359192","572863.829499","573630.663027","574397.112561","575163.869414","575930.578344","576697.083839","577463.874391","579774.599055","Mapping"
"Blocked","m150","tile","17","m150done.wav","None","720.339300111","165","571347.484544","578230.472638","578997.127154","579764.118979","580530.680434","581297.552917","567447.164456","568213.551227","572114.359192","572863.829499","573630.663027","574397.112561","575163.869414","575930.578344","576697.083839","577463.874391","580540.818563","Mapping"
"Blocked","m150","tile","17","m150tile.wav","None","720.59498704","165","571347.484544","578230.472638","578997.127154","579764.118979","580530.680434","581297.552917","582063.65834","568213.551227","572114.359192","572863.829499","573630.663027","574397.112561","575163.869414","575930.578344","576697.083839","577463.874391","581306.847929","Mapping"
"Blocked","m150","tile","17","m150cad.wav","space","682.554508327","165","571347.484544","578230.472638","578997.127154","579764.118979","580530.680434","581297.552917","582063.65834","582813.672794","572114.359192","572863.829499","573630.663027","574397.112561","575163.869414","575930.578344","576697.083839","577463.874391","582072.569358","Mapping"
"Blocked","m150","ball","6","m150knife.wav","None","733.960585902","165","585947.372993","578230.472638","578997.127154","579764.118979","580530.680434","581297.552917","582063.65834","582813.672794","572114.359192","572863.829499","573630.663027","574397.112561","575163.869414","575930.578344","576697.083839","577463.874391","582823.215764","Mapping"
"Blocked","m150","ball","6","m150priest.wav","None","720.602716552","165","585947.372993","578230.472638","578997.127154","579764.118979","580530.680434","581297.552917","582063.65834","582813.672794","586714.010196","572863.829499","573630.663027","574397.112561","575163.869414","575930.578344","576697.083839","577463.874391","585957.401676","Mapping"
"Blocked","m150","ball","6","m150ball.wav","None","719.411777798","165","585947.372993","578230.472638","578997.127154","579764.118979","580530.680434","581297.552917","582063.65834","582813.672794","586714.010196","587463.677138","573630.663027","574397.112561","575163.869414","575930.578344","576697.083839","577463.874391","586724.12421","Mapping"
"Blocked","m150","ball","6","m150priest.wav","space","393.974134","165","585947.372993","578230.472638","578997.127154","579764.118979","580530.680434","581297.552917","582063.65834","582813.672794","586714.010196","587463.677138","588230.118633","574397.112561","575163.869414","575930.578344","576697.083839","577463.874391","587473.102621","Mapping"
"Blocked","m150","ball","6","m150romp.wav","None","734.342106618","165","585947.372993","578230.472638","578997.127154","579764.118979","580530.680434","581297.552917","582063.65834","582813.672794","586714.010196","587463.677138","588230.118633","588996.651025","575163.869414","575930.578344","576697.083839","577463.874391","588239.051911","Mapping"
"Blocked","m150","ball","6","m150ball.wav","None","732.988851611","165","585947.372993","578230.472638","578997.127154","579764.118979","580530.680434","581297.552917","582063.65834","582813.672794","586714.010196","587463.677138","588230.118633","588996.651025","589763.685208","575930.578344","576697.083839","577463.874391","589005.829788","Mapping"
"Blocked","m150","ball","6","m150dime.wav","space","670.051505323","165","585947.372993","578230.472638","578997.127154","579764.118979","580530.680434","581297.552917","582063.65834","582813.672794","586714.010196","587463.677138","588230.118633","588996.651025","589763.685208","590530.41207","576697.083839","577463.874391","589772.996606","Mapping"
"Blocked","m150","ball","6","m150ball.wav","None","728.541690391","165","585947.372993","578230.472638","578997.127154","579764.118979","580530.680434","581297.552917","582063.65834","582813.672794","586714.010196","587463.677138","588230.118633","588996.651025","589763.685208","590530.41207","591297.223647","577463.874391","590539.886403","Mapping"
"Blocked","m150","ball","6","m150priest.wav","space","536.095928168","165","585947.372993","578230.472638","578997.127154","579764.118979","580530.680434","581297.552917","582063.65834","582813.672794","586714.010196","587463.677138","588230.118633","588996.651025","589763.685208","590530.41207","591297.223647","592063.189014","591306.913165","Mapping"
"Blocked","m150","ball","6","m150bluff.wav","None","726.202169666","165","585947.372993","592830.873389","578997.127154","579764.118979","580530.680434","581297.552917","582063.65834","582813.672794","586714.010196","587463.677138","588230.118633","588996.651025","589763.685208","590530.41207","591297.223647","592063.189014","592072.038196","Mapping"
"Blocked","m150","ball","6","m150greet.wav","None","723.006236134","165","585947.372993","592830.873389","593597.088569","579764.118979","580530.680434","581297.552917","582063.65834","582813.672794","586714.010196","587463.677138","588230.118633","588996.651025","589763.685208","590530.41207","591297.223647","592063.189014","592840.787986","Mapping"
"Blocked","m150","ball","6","m150tile.wav","None","721.657000482","165","585947.372993","592830.873389","593597.088569","594363.946521","580530.680434","581297.552917","582063.65834","582813.672794","586714.010196","587463.677138","588230.118633","588996.651025","589763.685208","590530.41207","591297.223647","592063.189014","593607.550404","Mapping"
"Blocked","m150","ball","6","m150ball.wav","None","720.803988865","165","585947.372993","592830.873389","593597.088569","594363.946521","595130.72378","581297.552917","582063.65834","582813.672794","586714.010196","587463.677138","588230.118633","588996.651025","589763.685208","590530.41207","591297.223647","592063.189014","594373.97644","Mapping"
"Blocked","m150","ball","6","m150jolt.wav","space","518.608419457","165","585947.372993","592830.873389","593597.088569","594363.946521","595130.72378","595896.588665","582063.65834","582813.672794","586714.010196","587463.677138","588230.118633","588996.651025","589763.685208","590530.41207","591297.223647","592063.189014","595140.362593","Mapping"
"Blocked","m150","ball","6","m150cling.wav","None","721.036796924","165","585947.372993","592830.873389","593597.088569","594363.946521","595130.72378","595896.588665","596646.467082","582813.672794","586714.010196","587463.677138","588230.118633","588996.651025","589763.685208","590530.41207","591297.223647","592063.189014","595905.364264","Mapping"
"Blocked","m150","ball","6","m150reek.wav","None","736.167780124","165","585947.372993","592830.873389","593597.088569","594363.946521","595130.72378","595896.588665","596646.467082","597413.436647","586714.010196","587463.677138","588230.118633","588996.651025","589763.685208","590530.41207","591297.223647","592063.189014","596655.839697","Mapping"
"Blocked","m150","done","23","m150depth.wav","None","734.707550611","165","600547.003901","592830.873389","593597.088569","594363.946521","595130.72378","595896.588665","596646.467082","597413.436647","586714.010196","587463.677138","588230.118633","588996.651025","589763.685208","590530.41207","591297.223647","592063.189014","597422.732895","Mapping"
"Blocked","m150","done","23","m150done.wav","None","721.021338133","165","600547.003901","592830.873389","593597.088569","594363.946521","595130.72378","595896.588665","596646.467082","597413.436647","601313.395001","587463.677138","588230.118633","588996.651025","589763.685208","590530.41207","591297.223647","592063.189014","600556.703931","Mapping"
"Blocked","m150","done","23","m150tile.wav","space","454.214244615","165","600547.003901","592830.873389","593597.088569","594363.946521","595130.72378","595896.588665","596646.467082","597413.436647","601313.395001","602063.239719","588230.118633","588996.651025","589763.685208","590530.41207","591297.223647","592063.189014","601316.666064","Mapping"
"Blocked","m150","done","23","m150cling.wav","None","735.762143508","165","600547.003901","592830.873389","593597.088569","594363.946521","595130.72378","595896.588665","596646.467082","597413.436647","601313.395001","602063.239719","602830.072628","588996.651025","589763.685208","590530.41207","591297.223647","592063.189014","602072.548025","Mapping"
"Blocked","m150","done","23","m150done.wav","None","734.538123244","165","600547.003901","592830.873389","593597.088569","594363.946521","595130.72378","595896.588665","596646.467082","597413.436647","601313.395001","602063.239719","602830.072628","603597.15535","589763.685208","590530.41207","591297.223647","592063.189014","602839.389591","Mapping"
"Blocked","m150","done","23","m150cad.wav","space","444.098375505","165","600547.003901","592830.873389","593597.088569","594363.946521","595130.72378","595896.588665","596646.467082","597413.436647","601313.395001","602063.239719","602830.072628","603597.15535","604363.471939","590530.41207","591297.223647","592063.189014","603606.739131","Mapping"
"Blocked","m150","done","23","m150done.wav","None","730.686122319","165","600547.003901","592830.873389","593597.088569","594363.946521","595130.72378","595896.588665","596646.467082","597413.436647","601313.395001","602063.239719","602830.072628","603597.15535","604363.471939","605130.119344","591297.223647","592063.189014","604372.779318","Mapping"
"Blocked","m150","done","23","m150cad.wav","space","439.10552212","165","600547.003901","592830.873389","593597.088569","594363.946521","595130.72378","595896.588665","596646.467082","597413.436647","601313.395001","602063.239719","602830.072628","603597.15535","604363.471939","605130.119344","605896.648645","592063.189014","605139.711472","Mapping"
"Blocked","m150","done","23","m150done.wav","None","727.41134977","165","600547.003901","592830.873389","593597.088569","594363.946521","595130.72378","595896.588665","596646.467082","597413.436647","601313.395001","602063.239719","602830.072628","603597.15535","604363.471939","605130.119344","605896.648645","606663.395295","605906.273545","Mapping"
"Blocked","m150","done","23","m150lash.wav","space","618.009456433","165","600547.003901","607430.520683","593597.088569","594363.946521","595130.72378","595896.588665","596646.467082","597413.436647","601313.395001","602063.239719","602830.072628","603597.15535","604363.471939","605130.119344","605896.648645","606663.395295","606672.780895","Mapping"
"Blocked","m150","done","23","m150cad.wav","None","722.459925571","165","600547.003901","607430.520683","608196.929097","594363.946521","595130.72378","595896.588665","596646.467082","597413.436647","601313.395001","602063.239719","602830.072628","603597.15535","604363.471939","605130.119344","605896.648645","606663.395295","607440.605326","Mapping"
"Blocked","m150","done","23","m150romp.wav","None","721.580634359","165","600547.003901","607430.520683","608196.929097","608963.137475","595130.72378","595896.588665","596646.467082","597413.436647","601313.395001","602063.239719","602830.072628","603597.15535","604363.471939","605130.119344","605896.648645","606663.395295","608207.240364","Mapping"
"Blocked","m150","done","23","m150ball.wav","None","721.831374569","165","600547.003901","607430.520683","608196.929097","608963.137475","609730.680248","595896.588665","596646.467082","597413.436647","601313.395001","602063.239719","602830.072628","603597.15535","604363.471939","605130.119344","605896.648645","606663.395295","608972.502669","Mapping"
"Blocked","m150","done","23","m150bluff.wav","None","719.026546692","165","600547.003901","607430.520683","608196.929097","608963.137475","609730.680248","610480.139734","596646.467082","597413.436647","601313.395001","602063.239719","602830.072628","603597.15535","604363.471939","605130.119344","605896.648645","606663.395295","609740.816523","Mapping"
"Blocked","m150","done","23","m150jolt.wav","None","735.277667874","165","600547.003901","607430.520683","608196.929097","608963.137475","609730.680248","610480.139734","611246.234336","597413.436647","601313.395001","602063.239719","602830.072628","603597.15535","604363.471939","605130.119344","605896.648645","606663.395295","610490.09205","Mapping"
"Blocked","m150","done","23","m150ball.wav","None","735.649295151","165","600547.003901","607430.520683","608196.929097","608963.137475","609730.680248","610480.139734","611246.234336","612013.209775","601313.395001","602063.239719","602830.072628","603597.15535","604363.471939","605130.119344","605896.648645","606663.395295","611255.451436","Mapping"
"Blocked","m150","ball","5","m150lash.wav","None","734.210089548","165","615146.711794","607430.520683","608196.929097","608963.137475","609730.680248","610480.139734","611246.234336","612013.209775","601313.395001","602063.239719","602830.072628","603597.15535","604363.471939","605130.119344","605896.648645","606663.395295","612022.48098","Mapping"
"Blocked","m150","ball","5","m150dime.wav","None","721.230030758","165","615146.711794","607430.520683","608196.929097","608963.137475","609730.680248","610480.139734","611246.234336","612013.209775","615913.47854","602063.239719","602830.072628","603597.15535","604363.471939","605130.119344","605896.648645","606663.395295","615156.410896","Mapping"
"Blocked","m150","ball","5","m150ball.wav","None","719.416724518","165","615146.711794","607430.520683","608196.929097","608963.137475","609730.680248","610480.139734","611246.234336","612013.209775","615913.47854","616680.357517","602830.072628","603597.15535","604363.471939","605130.119344","605896.648645","606663.395295","615923.889671","Mapping"
"Blocked","m150","ball","5","m150gnash.wav","space","471.56478907","165","615146.711794","607430.520683","608196.929097","608963.137475","609730.680248","610480.139734","611246.234336","612013.209775","615913.47854","616680.357517","617429.783303","603597.15535","604363.471939","605130.119344","605896.648645","606663.395295","616691.085242","Mapping"
"Blocked","m150","ball","5","m150ball.wav","None","734.479689272","165","615146.711794","607430.520683","608196.929097","608963.137475","609730.680248","610480.139734","611246.234336","612013.209775","615913.47854","616680.357517","617429.783303","618196.148741","604363.471939","605130.119344","605896.648645","606663.395295","617439.247742","Mapping"
"Blocked","m150","ball","5","m150romp.wav","space","485.340971267","165","615146.711794","607430.520683","608196.929097","608963.137475","609730.680248","610480.139734","611246.234336","612013.209775","615913.47854","616680.357517","617429.783303","618196.148741","618963.425006","605130.119344","605896.648645","606663.395295","618205.288857","Mapping"
"Blocked","m150","ball","5","m150gnash.wav","None","730.585331563","165","615146.711794","607430.520683","608196.929097","608963.137475","609730.680248","610480.139734","611246.234336","612013.209775","615913.47854","616680.357517","617429.783303","618196.148741","618963.425006","619729.901748","605896.648645","606663.395295","618972.866876","Mapping"
"Blocked","m150","ball","5","m150ball.wav","None","729.473541258","165","615146.711794","607430.520683","608196.929097","608963.137475","609730.680248","610480.139734","611246.234336","612013.209775","615913.47854","616680.357517","617429.783303","618196.148741","618963.425006","619729.901748","620496.40786","606663.395295","619739.493567","Mapping"
"Blocked","m150","ball","5","m150greet.wav","space","672.543139663","165","615146.711794","607430.520683","608196.929097","608963.137475","609730.680248","610480.139734","611246.234336","612013.209775","615913.47854","616680.357517","617429.783303","618196.148741","618963.425006","619729.901748","620496.40786","621263.12452","620506.050384","Mapping"
"Blocked","m150","ball","5","m150cave.wav","None","726.840305142","165","615146.711794","622029.792949","608196.929097","608963.137475","609730.680248","610480.139734","611246.234336","612013.209775","615913.47854","616680.357517","617429.783303","618196.148741","618963.425006","619729.901748","620496.40786","621263.12452","621272.557424","Mapping"
"Blocked","m150","ball","5","m150park.wav","None","725.847856142","165","615146.711794","622029.792949","622796.365225","608963.137475","609730.680248","610480.139734","611246.234336","612013.209775","615913.47854","616680.357517","617429.783303","618196.148741","618963.425006","619729.901748","620496.40786","621263.12452","622039.125062","Mapping"
"Blocked","m150","ball","5","m150reek.wav","None","725.758813787","165","615146.711794","622029.792949","622796.365225","623563.163507","609730.680248","610480.139734","611246.234336","612013.209775","615913.47854","616680.357517","617429.783303","618196.148741","618963.425006","619729.901748","620496.40786","621263.12452","622805.771539","Mapping"
"Blocked","m150","ball","5","m150knife.wav","None","724.604048301","165","615146.711794","622029.792949","622796.365225","623563.163507","624330.291987","610480.139734","611246.234336","612013.209775","615913.47854","616680.357517","617429.783303","618196.148741","618963.425006","619729.901748","620496.40786","621263.12452","623573.181986","Mapping"
"Blocked","m150","ball","5","m150park.wav","None","723.368279403","165","615146.711794","622029.792949","622796.365225","623563.163507","624330.291987","625096.803665","611246.234336","612013.209775","615913.47854","616680.357517","617429.783303","618196.148741","618963.425006","619729.901748","620496.40786","621263.12452","624340.159899","Mapping"
"Blocked","m150","ball","5","m150ball.wav","None","723.064979538","165","615146.711794","622029.792949","622796.365225","623563.163507","624330.291987","625096.803665","625863.38738","612013.209775","615913.47854","616680.357517","617429.783303","618196.148741","618963.425006","619729.901748","620496.40786","621263.12452","625106.719189","Mapping"
"Blocked","m150","ball","5","m150cad.wav","space","417.080573505","165","615146.711794","622029.792949","622796.365225","623563.163507","624330.291987","625096.803665","625863.38738","626630.019326","615913.47854","616680.357517","617429.783303","618196.148741","618963.425006","619729.901748","620496.40786","621263.12452","625873.43183","Mapping"
"Blocked","m150","done","20","m150cad.wav","None","718.98388071","165","629746.751739","622029.792949","622796.365225","623563.163507","624330.291987","625096.803665","625863.38738","626630.019326","615913.47854","616680.357517","617429.783303","618196.148741","618963.425006","619729.901748","620496.40786","621263.12452","626640.744887","Mapping"
"Blocked","m150","done","20","m150depth.wav","None","720.626832219","165","629746.751739","622029.792949","622796.365225","623563.163507","624330.291987","625096.803665","625863.38738","626630.019326","630513.504572","616680.357517","617429.783303","618196.148741","618963.425006","619729.901748","620496.40786","621263.12452","629756.626143","Mapping"
"Blocked","m150","done","20","m150lash.wav","None","719.30820425","165","629746.751739","622029.792949","622796.365225","623563.163507","624330.291987","625096.803665","625863.38738","626630.019326","630513.504572","631263.105042","617429.783303","618196.148741","618963.425006","619729.901748","620496.40786","621263.12452","630523.648577","Mapping"
"Blocked","m150","done","20","m150done.wav","None","736.352666281","165","629746.751739","622029.792949","622796.365225","623563.163507","624330.291987","625096.803665","625863.38738","626630.019326","630513.504572","631263.105042","632029.544064","618196.148741","618963.425006","619729.901748","620496.40786","621263.12452","631272.231245","Mapping"
"Blocked","m150","done","20","m150jolt.wav","space","315.496148774","165","629746.751739","622029.792949","622796.365225","623563.163507","624330.291987","625096.803665","625863.38738","626630.019326","630513.504572","631263.105042","632029.544064","632796.197034","618963.425006","619729.901748","620496.40786","621263.12452","632038.929045","Mapping"
"Blocked","m150","done","20","m150done.wav","None","732.321962714","165","629746.751739","622029.792949","622796.365225","623563.163507","624330.291987","625096.803665","625863.38738","626630.019326","630513.504572","631263.105042","632029.544064","632796.197034","633562.628326","619729.901748","620496.40786","621263.12452","632805.910668","Mapping"
"Blocked","m150","done","20","m150ball.wav","None","732.99410753","165","629746.751739","622029.792949","622796.365225","623563.163507","624330.291987","625096.803665","625863.38738","626630.019326","630513.504572","631263.105042","632029.544064","632796.197034","633562.628326","634329.815859","620496.40786","621263.12452","633571.932614","Mapping"
"Blocked","m150","done","20","m150done.wav","space","23.0699572712","165","629746.751739","622029.792949","622796.365225","623563.163507","624330.291987","625096.803665","625863.38738","626630.019326","630513.504572","631263.105042","632029.544064","632796.197034","633562.628326","634329.815859","635096.162128","621263.12452","634339.298849","Mapping"
"Blocked","m150","done","20","m150cave.wav","space","673.259805655","165","629746.751739","622029.792949","622796.365225","623563.163507","624330.291987","625096.803665","625863.38738","626630.019326","630513.504572","631263.105042","632029.544064","632796.197034","633562.628326","634329.815859","635096.162128","635863.137258","635105.108083","Mapping"
"Blocked","m150","done","20","m150gnash.wav","None","726.481663063","165","629746.751739","636629.43777","622796.365225","623563.163507","624330.291987","625096.803665","625863.38738","626630.019326","630513.504572","631263.105042","632029.544064","632796.197034","633562.628326","634329.815859","635096.162128","635863.137258","635872.354358","Mapping"
"Blocked","m150","done","20","m150bluff.wav","None","726.057166932","165","629746.751739","636629.43777","637396.194313","623563.163507","624330.291987","625096.803665","625863.38738","626630.019326","630513.504572","631263.105042","632029.544064","632796.197034","633562.628326","634329.815859","635096.162128","635863.137258","636638.629208","Mapping"
"Blocked","m150","done","20","m150jolt.wav","None","724.792335415","165","629746.751739","636629.43777","637396.194313","638162.782975","624330.291987","625096.803665","625863.38738","626630.019326","630513.504572","631263.105042","632029.544064","632796.197034","633562.628326","634329.815859","635096.162128","635863.137258","637405.657516","Mapping"
