"Condition","Talker","Target","Trial","current_stimulus","response_response","response_time_response","subject_nr","time_Audio1","time_Audio10","time_Audio11","time_Audio12","time_Audio13","time_Audio14","time_Audio15","time_Audio16","time_Audio2","time_Audio3","time_Audio4","time_Audio5","time_Audio6","time_Audio7","time_Audio8","time_Audio9","time_response","title"
"Mixed","Both","cave","19","m160depth.wav","NA","NA","179","217075.81005","NA","NA","NA","NA","NA","NA","NA","NA","NA","NA","NA","NA","NA","NA","NA","NA","Mapping"
"Mixed","Both","cave","19","m150cave.wav","None","600.389489438","179","217075.81005","NA","NA","NA","NA","NA","NA","NA","217843.37355","NA","NA","NA","NA","NA","NA","NA","217208.271345","Mapping"
"Mixed","Both","cave","19","m150priest.wav","space","630.508592818","179","217075.81005","NA","NA","NA","NA","NA","NA","NA","217843.37355","218610.10106","NA","NA","NA","NA","NA","NA","217853.010303","Mapping"
"Mixed","Both","cave","19","m160cave.wav","None","717.330573127","179","217075.81005","NA","NA","NA","NA","NA","NA","NA","217843.37355","218610.10106","219377.36745","NA","NA","NA","NA","NA","218624.365743","Mapping"
"Mixed","Both","cave","19","m160park.wav","space","544.262283016","179","217075.81005","NA","NA","NA","NA","NA","NA","NA","217843.37355","218610.10106","219377.36745","220144.805738","NA","NA","NA","NA","219387.202998","Mapping"
"Mixed","Both","cave","19","m150cave.wav","None","719.76217581","179","217075.81005","NA","NA","NA","NA","NA","NA","NA","217843.37355","218610.10106","219377.36745","220144.805738","220895.238263","NA","NA","NA","220154.725379","Mapping"
"Mixed","Both","cave","19","m150bluff.wav","space","450.429309625","179","217075.81005","NA","NA","NA","NA","NA","NA","NA","217843.37355","218610.10106","219377.36745","220144.805738","220895.238263","221662.645943","NA","NA","220904.973331","Mapping"
"Mixed","Both","cave","19","m160dime.wav","None","731.406972278","179","217075.81005","NA","NA","NA","NA","NA","NA","NA","217843.37355","218610.10106","219377.36745","220144.805738","220895.238263","221662.645943","222429.404061","NA","221672.414091","Mapping"
"Mixed","Both","cave","19","m160ball.wav","None","731.375128031","179","217075.81005","NA","NA","NA","NA","NA","NA","NA","217843.37355","218610.10106","219377.36745","220144.805738","220895.238263","221662.645943","222429.404061","223196.735685","222438.703821","Mapping"
"Mixed","Both","cave","19","m150greet.wav","None","729.349771515","179","217075.81005","223964.203962","NA","NA","NA","NA","NA","NA","217843.37355","218610.10106","219377.36745","220144.805738","220895.238263","221662.645943","222429.404061","223196.735685","223206.877618","Mapping"
"Mixed","Both","cave","19","m160cave.wav","None","729.343587998","179","217075.81005","223964.203962","224731.35936","NA","NA","NA","NA","NA","217843.37355","218610.10106","219377.36745","220144.805738","220895.238263","221662.645943","222429.404061","223196.735685","223974.021268","Mapping"
"Mixed","Both","cave","19","m150park.wav","space","565.717893187","179","217075.81005","223964.203962","224731.35936","225498.70397","NA","NA","NA","NA","217843.37355","218610.10106","219377.36745","220144.805738","220895.238263","221662.645943","222429.404061","223196.735685","224741.536229","Mapping"
"Mixed","Both","cave","19","m150gnash.wav","None","724.475126248","179","217075.81005","223964.203962","224731.35936","225498.70397","226265.839272","NA","NA","NA","217843.37355","218610.10106","219377.36745","220144.805738","220895.238263","221662.645943","222429.404061","223196.735685","225507.930148","Mapping"
"Mixed","Both","cave","19","m160reek.wav","None","723.368924577","179","217075.81005","223964.203962","224731.35936","225498.70397","226265.839272","227033.094842","NA","NA","217843.37355","218610.10106","219377.36745","220144.805738","220895.238263","221662.645943","222429.404061","223196.735685","226275.478189","Mapping"
"Mixed","Both","cave","19","m160dime.wav","None","722.705142107","179","217075.81005","223964.203962","224731.35936","225498.70397","226265.839272","227033.094842","227783.453166","NA","217843.37355","218610.10106","219377.36745","220144.805738","220895.238263","221662.645943","222429.404061","223196.735685","227042.754473","Mapping"
"Mixed","Both","cave","19","m150priest.wav","None","734.660033137","179","217075.81005","223964.203962","224731.35936","225498.70397","226265.839272","227033.094842","227783.453166","228551.207732","217843.37355","218610.10106","219377.36745","220144.805738","220895.238263","221662.645943","222429.404061","223196.735685","227793.797295","Mapping"
"Mixed","Both","ball","9","m160cad.wav","None","730.830992572","179","231719.919852","223964.203962","224731.35936","225498.70397","226265.839272","227033.094842","227783.453166","228551.207732","217843.37355","218610.10106","219377.36745","220144.805738","220895.238263","221662.645943","222429.404061","223196.735685","228560.707215","Mapping"
"Mixed","Both","ball","9","m160jolt.wav","None","723.076452501","179","231719.919852","223964.203962","224731.35936","225498.70397","226265.839272","227033.094842","227783.453166","228551.207732","232487.112659","218610.10106","219377.36745","220144.805738","220895.238263","221662.645943","222429.404061","223196.735685","231729.609163","Mapping"
"Mixed","Both","ball","9","m160jaw.wav","None","721.916146576","179","231719.919852","223964.203962","224731.35936","225498.70397","226265.839272","227033.094842","227783.453166","228551.207732","232487.112659","233254.325563","219377.36745","220144.805738","220895.238263","221662.645943","222429.404061","223196.735685","232496.935531","Mapping"
"Mixed","Both","ball","9","m150ball.wav","None","721.084485296","179","231719.919852","223964.203962","224731.35936","225498.70397","226265.839272","227033.094842","227783.453166","228551.207732","232487.112659","233254.325563","234021.972848","220144.805738","220895.238263","221662.645943","222429.404061","223196.735685","233264.029715","Mapping"
"Mixed","Both","ball","9","m150dime.wav","space","443.451707251","179","231719.919852","223964.203962","224731.35936","225498.70397","226265.839272","227033.094842","227783.453166","228551.207732","232487.112659","233254.325563","234021.972848","234789.135667","220895.238263","221662.645943","222429.404061","223196.735685","234031.497991","Mapping"
"Mixed","Both","ball","9","m150greet.wav","None","719.564308878","179","231719.919852","223964.203962","224731.35936","225498.70397","226265.839272","227033.094842","227783.453166","228551.207732","232487.112659","233254.325563","234021.972848","234789.135667","235539.289013","221662.645943","222429.404061","223196.735685","234798.761598","Mapping"
"Mixed","Both","ball","9","m160ball.wav","None","732.539762277","179","231719.919852","223964.203962","224731.35936","225498.70397","226265.839272","227033.094842","227783.453166","228551.207732","232487.112659","233254.325563","234021.972848","234789.135667","235539.289013","236306.425244","222429.404061","223196.735685","235548.952045","Mapping"
"Mixed","Both","ball","9","m150lash.wav","space","470.687205438","179","231719.919852","223964.203962","224731.35936","225498.70397","226265.839272","227033.094842","227783.453166","228551.207732","232487.112659","233254.325563","234021.972848","234789.135667","235539.289013","236306.425244","237073.886719","223196.735685","236316.122593","Mapping"
"Mixed","Both","ball","9","m160jaw.wav","None","727.973047644","179","231719.919852","223964.203962","224731.35936","225498.70397","226265.839272","227033.094842","227783.453166","228551.207732","232487.112659","233254.325563","234021.972848","234789.135667","235539.289013","236306.425244","237073.886719","237840.824154","237083.456691","Mapping"
"Mixed","Both","ball","9","m160ball.wav","None","724.250979722","179","231719.919852","238607.926995","224731.35936","225498.70397","226265.839272","227033.094842","227783.453166","228551.207732","232487.112659","233254.325563","234021.972848","234789.135667","235539.289013","236306.425244","237073.886719","237840.824154","237850.468945","Mapping"
"Mixed","Both","ball","9","m150knife.wav","space","465.282338206","179","231719.919852","238607.926995","239375.334674","225498.70397","226265.839272","227033.094842","227783.453166","228551.207732","232487.112659","233254.325563","234021.972848","234789.135667","235539.289013","236306.425244","237073.886719","237840.824154","238617.46976","Mapping"
"Mixed","Both","ball","9","m160tile.wav","None","719.548231922","179","231719.919852","238607.926995","239375.334674","240125.864896","226265.839272","227033.094842","227783.453166","228551.207732","232487.112659","233254.325563","234021.972848","234789.135667","235539.289013","236306.425244","237073.886719","237840.824154","239384.957205","Mapping"
"Mixed","Both","ball","9","m150knife.wav","None","736.037992872","179","231719.919852","238607.926995","239375.334674","240125.864896","240893.154474","227033.094842","227783.453166","228551.207732","232487.112659","233254.325563","234021.972848","234789.135667","235539.289013","236306.425244","237073.886719","237840.824154","240135.332225","Mapping"
"Mixed","Both","ball","9","m150knife.wav","None","731.711811386","179","231719.919852","238607.926995","239375.334674","240125.864896","240893.154474","241660.619349","227783.453166","228551.207732","232487.112659","233254.325563","234021.972848","234789.135667","235539.289013","236306.425244","237073.886719","237840.824154","240902.831418","Mapping"
"Mixed","Both","ball","9","m150ball.wav","None","727.518571541","179","231719.919852","238607.926995","239375.334674","240125.864896","240893.154474","241660.619349","242427.692509","228551.207732","232487.112659","233254.325563","234021.972848","234789.135667","235539.289013","236306.425244","237073.886719","237840.824154","241670.206944","Mapping"
"Mixed","Both","ball","9","m160jolt.wav","space","437.361415941","179","231719.919852","238607.926995","239375.334674","240125.864896","240893.154474","241660.619349","242427.692509","243194.887482","232487.112659","233254.325563","234021.972848","234789.135667","235539.289013","236306.425244","237073.886719","237840.824154","242437.255371","Mapping"
"Mixed","Both","cave","23","m160greet.wav","None","719.262252096","179","246313.701812","238607.926995","239375.334674","240125.864896","240893.154474","241660.619349","242427.692509","243194.887482","232487.112659","233254.325563","234021.972848","234789.135667","235539.289013","236306.425244","237073.886719","237840.824154","243204.944393","Mapping"
"Mixed","Both","cave","23","m160cave.wav","None","723.221142776","179","246313.701812","238607.926995","239375.334674","240125.864896","240893.154474","241660.619349","242427.692509","243194.887482","247064.528835","233254.325563","234021.972848","234789.135667","235539.289013","236306.425244","237073.886719","237840.824154","246323.473361","Mapping"
"Mixed","Both","cave","23","m150done.wav","space","472.197179683","179","246313.701812","238607.926995","239375.334674","240125.864896","240893.154474","241660.619349","242427.692509","243194.887482","247064.528835","247831.578807","234021.972848","234789.135667","235539.289013","236306.425244","237073.886719","237840.824154","247074.265449","Mapping"
"Mixed","Both","cave","23","m150cave.wav","None","735.053603537","179","246313.701812","238607.926995","239375.334674","240125.864896","240893.154474","241660.619349","242427.692509","243194.887482","247064.528835","247831.578807","248598.690923","234789.135667","235539.289013","236306.425244","237073.886719","237840.824154","247841.045827","Mapping"
"Mixed","Both","cave","23","m160cling.wav","space","497.898588423","179","246313.701812","238607.926995","239375.334674","240125.864896","240893.154474","241660.619349","242427.692509","243194.887482","247064.528835","247831.578807","248598.690923","249366.014509","235539.289013","236306.425244","237073.886719","237840.824154","248608.489679","Mapping"
"Mixed","Both","cave","23","m160cave.wav","None","735.806735698","179","246313.701812","238607.926995","239375.334674","240125.864896","240893.154474","241660.619349","242427.692509","243194.887482","247064.528835","247831.578807","248598.690923","249366.014509","250133.355717","236306.425244","237073.886719","237840.824154","249370.601318","Mapping"
"Mixed","Both","cave","23","m160depth.wav","space","426.864249632","179","246313.701812","238607.926995","239375.334674","240125.864896","240893.154474","241660.619349","242427.692509","243194.887482","247064.528835","247831.578807","248598.690923","249366.014509","250133.355717","250900.518536","237073.886719","237840.824154","250143.484665","Mapping"
"Mixed","Both","cave","23","m150cad.wav","None","722.330121789","179","246313.701812","238607.926995","239375.334674","240125.864896","240893.154474","241660.619349","242427.692509","243194.887482","247064.528835","247831.578807","248598.690923","249366.014509","250133.355717","250900.518536","251667.669297","237840.824154","250910.074596","Mapping"
"Mixed","Both","cave","23","m160jolt.wav","None","721.872553695","179","246313.701812","238607.926995","239375.334674","240125.864896","240893.154474","241660.619349","242427.692509","243194.887482","247064.528835","247831.578807","248598.690923","249366.014509","250133.355717","250900.518536","251667.669297","252418.178496","251677.166924","Mapping"
"Mixed","Both","cave","23","m160cling.wav","None","735.011556651","179","246313.701812","253185.545365","239375.334674","240125.864896","240893.154474","241660.619349","242427.692509","243194.887482","247064.528835","247831.578807","248598.690923","249366.014509","250133.355717","250900.518536","251667.669297","252418.178496","252427.649226","Mapping"
"Mixed","Both","cave","23","m150cave.wav","None","730.173393618","179","246313.701812","253185.545365","253952.701692","240125.864896","240893.154474","241660.619349","242427.692509","243194.887482","247064.528835","247831.578807","248598.690923","249366.014509","250133.355717","250900.518536","251667.669297","252418.178496","253195.698119","Mapping"
"Mixed","Both","cave","23","m150bluff.wav","space","568.09755601","179","246313.701812","253185.545365","253952.701692","254720.279722","240893.154474","241660.619349","242427.692509","243194.887482","247064.528835","247831.578807","248598.690923","249366.014509","250133.355717","250900.518536","251667.669297","252418.178496","253962.132848","Mapping"
"Mixed","Both","cave","23","m150depth.wav","None","723.016473465","179","246313.701812","253185.545365","253952.701692","254720.279722","255486.887276","241660.619349","242427.692509","243194.887482","247064.528835","247831.578807","248598.690923","249366.014509","250133.355717","250900.518536","251667.669297","252418.178496","254729.872264","Mapping"
"Mixed","Both","cave","23","m150dime.wav","None","723.905330058","179","246313.701812","253185.545365","253952.701692","254720.279722","255486.887276","256237.790973","242427.692509","243194.887482","247064.528835","247831.578807","248598.690923","249366.014509","250133.355717","250900.518536","251667.669297","252418.178496","255496.312559","Mapping"
"Mixed","Both","cave","23","m160depth.wav","None","735.460777301","179","246313.701812","253185.545365","253952.701692","254720.279722","255486.887276","256237.790973","257004.71666","243194.887482","247064.528835","247831.578807","248598.690923","249366.014509","250133.355717","250900.518536","251667.669297","252418.178496","256247.89426","Mapping"
"Mixed","Both","cave","23","m150gnash.wav","None","732.642714866","179","246313.701812","253185.545365","253952.701692","254720.279722","255486.887276","256237.790973","257004.71666","257772.092496","247064.528835","247831.578807","248598.690923","249366.014509","250133.355717","250900.518536","251667.669297","252418.178496","257013.825973","Mapping"
"Mixed","Both","tile","36","m150lash.wav","None","728.076928295","179","260874.110061","253185.545365","253952.701692","254720.279722","255486.887276","256237.790973","257004.71666","257772.092496","247064.528835","247831.578807","248598.690923","249366.014509","250133.355717","250900.518536","251667.669297","252418.178496","257781.644845","Mapping"
"Mixed","Both","tile","36","m160jaw.wav","None","735.702545848","179","260874.110061","253185.545365","253952.701692","254720.279722","255486.887276","256237.790973","257004.71666","257772.092496","261641.398093","247831.578807","248598.690923","249366.014509","250133.355717","250900.518536","251667.669297","252418.178496","260884.036195","Mapping"
"Mixed","Both","tile","36","m150reek.wav","None","732.091160025","179","260874.110061","253185.545365","253952.701692","254720.279722","255486.887276","256237.790973","257004.71666","257772.092496","261641.398093","262408.959428","248598.690923","249366.014509","250133.355717","250900.518536","251667.669297","252418.178496","261651.026498","Mapping"
"Mixed","Both","tile","36","m160depth.wav","None","732.609015424","179","260874.110061","253185.545365","253952.701692","254720.279722","255486.887276","256237.790973","257004.71666","257772.092496","261641.398093","262408.959428","263176.058868","249366.014509","250133.355717","250900.518536","251667.669297","252418.178496","262418.614113","Mapping"
"Mixed","Both","tile","36","m160done.wav","None","728.816766292","179","260874.110061","253185.545365","253952.701692","254720.279722","255486.887276","256237.790973","257004.71666","257772.092496","261641.398093","262408.959428","263176.058868","263943.934009","250133.355717","250900.518536","251667.669297","252418.178496","263186.044053","Mapping"
"Mixed","Both","tile","36","m160tile.wav","None","728.123612236","179","260874.110061","253185.545365","253952.701692","254720.279722","255486.887276","256237.790973","257004.71666","257772.092496","261641.398093","262408.959428","263176.058868","263943.934009","264710.41233","250900.518536","251667.669297","252418.178496","263953.558086","Mapping"
"Mixed","Both","tile","36","m150cling.wav","space","521.66769933","179","260874.110061","253185.545365","253952.701692","254720.279722","255486.887276","256237.790973","257004.71666","257772.092496","261641.398093","262408.959428","263176.058868","263943.934009","264710.41233","265477.468796","251667.669297","252418.178496","264720.133795","Mapping"
"Mixed","Both","tile","36","m150tile.wav","None","725.128397346","179","260874.110061","253185.545365","253952.701692","254720.279722","255486.887276","256237.790973","257004.71666","257772.092496","261641.398093","262408.959428","263176.058868","263943.934009","264710.41233","265477.468796","266244.779087","252418.178496","265487.210975","Mapping"
"Mixed","Both","tile","36","m150depth.wav","space","435.889778193","179","260874.110061","253185.545365","253952.701692","254720.279722","255486.887276","256237.790973","257004.71666","257772.092496","261641.398093","262408.959428","263176.058868","263943.934009","264710.41233","265477.468796","266244.779087","267012.150594","266253.885","Mapping"
"Mixed","Both","tile","36","m150tile.wav","None","719.529991038","179","260874.110061","267762.71668","253952.701692","254720.279722","255486.887276","256237.790973","257004.71666","257772.092496","261641.398093","262408.959428","263176.058868","263943.934009","264710.41233","265477.468796","266244.779087","267012.150594","267022.314787","Mapping"
"Mixed","Both","tile","36","m160priest.wav","space","373.223677743","179","260874.110061","267762.71668","268529.745938","254720.279722","255486.887276","256237.790973","257004.71666","257772.092496","261641.398093","262408.959428","263176.058868","263943.934009","264710.41233","265477.468796","266244.779087","267012.150594","267772.499669","Mapping"
"Mixed","Both","tile","36","m150ball.wav","None","734.750619158","179","260874.110061","267762.71668","268529.745938","269296.994706","255486.887276","256237.790973","257004.71666","257772.092496","261641.398093","262408.959428","263176.058868","263943.934009","264710.41233","265477.468796","266244.779087","267012.150594","268539.724322","Mapping"
"Mixed","Both","tile","36","m160tile.wav","None","731.381620746","179","260874.110061","267762.71668","268529.745938","269296.994706","270064.237908","256237.790973","257004.71666","257772.092496","261641.398093","262408.959428","263176.058868","263943.934009","264710.41233","265477.468796","266244.779087","267012.150594","269306.47131","Mapping"
"Mixed","Both","tile","36","m160depth.wav","space","559.788677841","179","260874.110061","267762.71668","268529.745938","269296.994706","270064.237908","270831.392689","257004.71666","257772.092496","261641.398093","262408.959428","263176.058868","263943.934009","264710.41233","265477.468796","266244.779087","267012.150594","270073.820866","Mapping"
"Mixed","Both","tile","36","m150park.wav","None","724.085884169","179","260874.110061","267762.71668","268529.745938","269296.994706","270064.237908","270831.392689","271598.816445","257772.092496","261641.398093","262408.959428","263176.058868","263943.934009","264710.41233","265477.468796","266244.779087","267012.150594","270840.716873","Mapping"
"Mixed","Both","tile","36","m160greet.wav","None","719.261942897","179","260874.110061","267762.71668","268529.745938","269296.994706","270064.237908","270831.392689","271598.816445","272349.233821","261641.398093","262408.959428","263176.058868","263943.934009","264710.41233","265477.468796","266244.779087","267012.150594","271608.733922","Mapping"
"Mixed","Both","cave","24","m150dime.wav","None","732.370956335","179","275468.154814","267762.71668","268529.745938","269296.994706","270064.237908","270831.392689","271598.816445","272349.233821","261641.398093","262408.959428","263176.058868","263943.934009","264710.41233","265477.468796","266244.779087","267012.150594","272359.321958","Mapping"
"Mixed","Both","cave","24","m150bluff.wav","None","735.705637839","179","275468.154814","267762.71668","268529.745938","269296.994706","270064.237908","270831.392689","271598.816445","272349.233821","276235.501897","262408.959428","263176.058868","263943.934009","264710.41233","265477.468796","266244.779087","267012.150594","275477.235374","Mapping"
"Mixed","Both","cave","24","m160cave.wav","None","731.159638148","179","275468.154814","267762.71668","268529.745938","269296.994706","270064.237908","270831.392689","271598.816445","272349.233821","276235.501897","277002.78189","263176.058868","263943.934009","264710.41233","265477.468796","266244.779087","267012.150594","276245.082072","Mapping"
"Mixed","Both","cave","24","m150cad.wav","space","428.9443288","179","275468.154814","267762.71668","268529.745938","269296.994706","270064.237908","270831.392689","271598.816445","272349.233821","276235.501897","277002.78189","277769.744368","263943.934009","264710.41233","265477.468796","266244.779087","267012.150594","277012.444613","Mapping"
"Mixed","Both","cave","24","m160park.wav","None","724.108144175","179","275468.154814","267762.71668","268529.745938","269296.994706","270064.237908","270831.392689","271598.816445","272349.233821","276235.501897","277002.78189","277769.744368","278537.21419","264710.41233","265477.468796","266244.779087","267012.150594","277779.053712","Mapping"
"Mixed","Both","cave","24","m150tile.wav","None","719.774852041","179","275468.154814","267762.71668","268529.745938","269296.994706","270064.237908","270831.392689","271598.816445","272349.233821","276235.501897","277002.78189","277769.744368","278537.21419","279287.839018","265477.468796","266244.779087","267012.150594","278546.678736","Mapping"
"Mixed","Both","cave","24","m150cave.wav","None","732.257491909","179","275468.154814","267762.71668","268529.745938","269296.994706","270064.237908","270831.392689","271598.816445","272349.233821","276235.501897","277002.78189","277769.744368","278537.21419","279287.839018","280054.628671","266244.779087","267012.150594","279297.521218","Mapping"
"Mixed","Both","cave","24","m150jaw.wav","space","486.670240294","179","275468.154814","267762.71668","268529.745938","269296.994706","270064.237908","270831.392689","271598.816445","272349.233821","276235.501897","277002.78189","277769.744368","278537.21419","279287.839018","280054.628671","280822.007907","267012.150594","280058.579833","Mapping"
"Mixed","Both","cave","24","m160cave.wav","None","728.520274628","179","275468.154814","267762.71668","268529.745938","269296.994706","270064.237908","270831.392689","271598.816445","272349.233821","276235.501897","277002.78189","277769.744368","278537.21419","279287.839018","280054.628671","280822.007907","281589.28419","280831.244906","Mapping"
"Mixed","Both","cave","24","m160jolt.wav","space","505.899844691","179","275468.154814","282356.343129","268529.745938","269296.994706","270064.237908","270831.392689","271598.816445","272349.233821","276235.501897","277002.78189","277769.744368","278537.21419","279287.839018","280054.628671","280822.007907","281589.28419","281599.356251","Mapping"
"Mixed","Both","cave","24","m150tile.wav","None","720.617642626","179","275468.154814","282356.343129","283107.054524","269296.994706","270064.237908","270831.392689","271598.816445","272349.233821","276235.501897","277002.78189","277769.744368","278537.21419","279287.839018","280054.628671","280822.007907","281589.28419","282365.582911","Mapping"
"Mixed","Both","cave","24","m160reek.wav","None","733.190559782","179","275468.154814","282356.343129","283107.054524","283874.264027","270064.237908","270831.392689","271598.816445","272349.233821","276235.501897","277002.78189","277769.744368","278537.21419","279287.839018","280054.628671","280822.007907","281589.28419","283116.548441","Mapping"
"Mixed","Both","cave","24","m160cling.wav","None","729.757563211","179","275468.154814","282356.343129","283107.054524","283874.264027","284641.446941","270831.392689","271598.816445","272349.233821","276235.501897","277002.78189","277769.744368","278537.21419","279287.839018","280054.628671","280822.007907","281589.28419","283883.813285","Mapping"
"Mixed","Both","cave","24","m160romp.wav","None","725.998394657","179","275468.154814","282356.343129","283107.054524","283874.264027","284641.446941","285408.628001","271598.816445","272349.233821","276235.501897","277002.78189","277769.744368","278537.21419","279287.839018","280054.628671","280822.007907","281589.28419","284650.966829","Mapping"
"Mixed","Both","cave","24","m150cave.wav","None","728.331682272","179","275468.154814","282356.343129","283107.054524","283874.264027","284641.446941","285408.628001","286175.943858","272349.233821","276235.501897","277002.78189","277769.744368","278537.21419","279287.839018","280054.628671","280822.007907","281589.28419","285417.892516","Mapping"
"Mixed","Both","cave","24","m160jaw.wav","space","431.968915276","179","275468.154814","282356.343129","283107.054524","283874.264027","284641.446941","285408.628001","286175.943858","286943.266516","276235.501897","277002.78189","277769.744368","278537.21419","279287.839018","280054.628671","280822.007907","281589.28419","286185.059354","Mapping"
"Mixed","Both","cave","18","m160park.wav","None","720.057431143","179","290062.208223","282356.343129","283107.054524","283874.264027","284641.446941","285408.628001","286175.943858","286943.266516","276235.501897","277002.78189","277769.744368","278537.21419","279287.839018","280054.628671","280822.007907","281589.28419","286952.844218","Mapping"
"Mixed","Both","cave","18","m160jaw.wav","None","719.997142907","179","290062.208223","282356.343129","283107.054524","283874.264027","284641.446941","285408.628001","286175.943858","286943.266516","290812.873861","277002.78189","277769.744368","278537.21419","279287.839018","280054.628671","280822.007907","281589.28419","290071.572599","Mapping"
"Mixed","Both","cave","18","m150park.wav","None","732.466798741","179","290062.208223","282356.343129","283107.054524","283874.264027","284641.446941","285408.628001","286175.943858","286943.266516","290812.873861","291579.833247","277769.744368","278537.21419","279287.839018","280054.628671","280822.007907","281589.28419","290822.460528","Mapping"
"Mixed","Both","cave","18","m160ball.wav","None","729.566188063","179","290062.208223","282356.343129","283107.054524","283874.264027","284641.446941","285408.628001","286175.943858","286943.266516","290812.873861","291579.833247","292347.122825","278537.21419","279287.839018","280054.628671","280822.007907","281589.28419","291588.821058","Mapping"
"Mixed","Both","cave","18","m160cave.wav","None","724.78212975","179","290062.208223","282356.343129","283107.054524","283874.264027","284641.446941","285408.628001","286175.943858","286943.266516","290812.873861","291579.833247","292347.122825","293114.638404","279287.839018","280054.628671","280822.007907","281589.28419","292357.005056","Mapping"
"Mixed","Both","cave","18","m160dime.wav","space","435.585557017","179","290062.208223","282356.343129","283107.054524","283874.264027","284641.446941","285408.628001","286175.943858","286943.266516","290812.873861","291579.833247","292347.122825","293114.638404","293865.050524","280054.628671","280822.007907","281589.28419","293125.172361","Mapping"
"Mixed","Both","cave","18","m150jolt.wav","None","734.002124518","179","290062.208223","282356.343129","283107.054524","283874.264027","284641.446941","285408.628001","286175.943858","286943.266516","290812.873861","291579.833247","292347.122825","293114.638404","293865.050524","294632.123685","280822.007907","281589.28419","293874.929664","Mapping"
"Mixed","Both","cave","18","m150cave.wav","None","733.577637468","179","290062.208223","282356.343129","283107.054524","283874.264027","284641.446941","285408.628001","286175.943858","286943.266516","290812.873861","291579.833247","292347.122825","293114.638404","293865.050524","294632.123685","295399.360703","281589.28419","294642.040852","Mapping"
"Mixed","Both","cave","18","m150priest.wav","space","431.879256386","179","290062.208223","282356.343129","283107.054524","283874.264027","284641.446941","285408.628001","286175.943858","286943.266516","290812.873861","291579.833247","292347.122825","293114.638404","293865.050524","294632.123685","295399.360703","296166.655846","295408.826177","Mapping"
"Mixed","Both","cave","18","m160reek.wav","None","725.890495349","179","290062.208223","296933.734571","283107.054524","283874.264027","284641.446941","285408.628001","286175.943858","286943.266516","290812.873861","291579.833247","292347.122825","293114.638404","293865.050524","294632.123685","295399.360703","296166.655846","296176.392769","Mapping"
"Mixed","Both","cave","18","m160cave.wav","None","722.364748362","179","290062.208223","296933.734571","297684.043429","283874.264027","284641.446941","285408.628001","286175.943858","286943.266516","290812.873861","291579.833247","292347.122825","293114.638404","293865.050524","294632.123685","295399.360703","296166.655846","296943.275482","Mapping"
"Mixed","Both","cave","18","m150depth.wav","space","467.267503031","179","290062.208223","296933.734571","297684.043429","298452.00761","284641.446941","285408.628001","286175.943858","286943.266516","290812.873861","291579.833247","292347.122825","293114.638404","293865.050524","294632.123685","295399.360703","296166.655846","297693.323093","Mapping"
"Mixed","Both","cave","18","m150depth.wav","None","729.743650649","179","290062.208223","296933.734571","297684.043429","298452.00761","299218.871155","285408.628001","286175.943858","286943.266516","290812.873861","291579.833247","292347.122825","293114.638404","293865.050524","294632.123685","295399.360703","296166.655846","298462.301035","Mapping"
"Mixed","Both","cave","18","m150depth.wav","None","727.691705339","179","290062.208223","296933.734571","297684.043429","298452.00761","299218.871155","299986.072929","286175.943858","286943.266516","290812.873861","291579.833247","292347.122825","293114.638404","293865.050524","294632.123685","295399.360703","296166.655846","299228.886329","Mapping"
"Mixed","Both","cave","18","m150cave.wav","None","724.423495121","179","290062.208223","296933.734571","297684.043429","298452.00761","299218.871155","299986.072929","300753.420012","286943.266516","290812.873861","291579.833247","292347.122825","293114.638404","293865.050524","294632.123685","295399.360703","296166.655846","299995.370834","Mapping"
"Mixed","Both","cave","18","m160bluff.wav","space","517.695514485","179","290062.208223","296933.734571","297684.043429","298452.00761","299218.871155","299986.072929","300753.420012","301503.765042","290812.873861","291579.833247","292347.122825","293114.638404","293865.050524","294632.123685","295399.360703","296166.655846","300762.817468","Mapping"
"Mixed","Both","ball","6","m160cling.wav","None","735.811991151","179","304622.3982","296933.734571","297684.043429","298452.00761","299218.871155","299986.072929","300753.420012","301503.765042","290812.873861","291579.833247","292347.122825","293114.638404","293865.050524","294632.123685","295399.360703","296166.655846","301513.551742","Mapping"
"Mixed","Both","ball","6","m150done.wav","None","736.565432977","179","304622.3982","296933.734571","297684.043429","298452.00761","299218.871155","299986.072929","300753.420012","301503.765042","305389.950261","291579.833247","292347.122825","293114.638404","293865.050524","294632.123685","295399.360703","296166.655846","304631.487418","Mapping"
"Mixed","Both","ball","6","m150cave.wav","None","732.980325818","179","304622.3982","296933.734571","297684.043429","298452.00761","299218.871155","299986.072929","300753.420012","301503.765042","305389.950261","306157.150798","292347.122825","293114.638404","293865.050524","294632.123685","295399.360703","296166.655846","305399.175821","Mapping"
"Mixed","Both","ball","6","m150ball.wav","None","729.20137085","179","304622.3982","296933.734571","297684.043429","298452.00761","299218.871155","299986.072929","300753.420012","301503.765042","305389.950261","306157.150798","306924.326293","293114.638404","293865.050524","294632.123685","295399.360703","296166.655846","306166.729737","Mapping"
"Mixed","Both","ball","6","m150romp.wav","space","442.820078228","179","304622.3982","296933.734571","297684.043429","298452.00761","299218.871155","299986.072929","300753.420012","301503.765042","305389.950261","306157.150798","306924.326293","307691.751904","293865.050524","294632.123685","295399.360703","296166.655846","306933.467759","Mapping"
"Mixed","Both","ball","6","m160ball.wav","None","723.642847501","179","304622.3982","296933.734571","297684.043429","298452.00761","299218.871155","299986.072929","300753.420012","301503.765042","305389.950261","306157.150798","306924.326293","307691.751904","308458.855981","294632.123685","295399.360703","296166.655846","307701.942685","Mapping"
"Mixed","Both","ball","6","m160reek.wav","space","451.711428352","179","304622.3982","296933.734571","297684.043429","298452.00761","299218.871155","299986.072929","300753.420012","301503.765042","305389.950261","306157.150798","306924.326293","307691.751904","308458.855981","309209.432269","295399.360703","296166.655846","308468.487169","Mapping"
"Mixed","Both","ball","6","m150ball.wav","None","734.356739558","179","304622.3982","296933.734571","297684.043429","298452.00761","299218.871155","299986.072929","300753.420012","301503.765042","305389.950261","306157.150798","306924.326293","307691.751904","308458.855981","309209.432269","309976.52367","296166.655846","309218.892797","Mapping"
"Mixed","Both","ball","6","m150cave.wav","space","438.291082624","179","304622.3982","296933.734571","297684.043429","298452.00761","299218.871155","299986.072929","300753.420012","301503.765042","305389.950261","306157.150798","306924.326293","307691.751904","308458.855981","309209.432269","309976.52367","310744.348417","309985.874134","Mapping"
"Mixed","Both","ball","6","m160gnash.wav","None","725.503417663","179","304622.3982","311511.172388","297684.043429","298452.00761","299218.871155","299986.072929","300753.420012","301503.765042","305389.950261","306157.150798","306924.326293","307691.751904","308458.855981","309209.432269","309976.52367","310744.348417","310754.336075","Mapping"
"Mixed","Both","ball","6","m150dime.wav","None","726.859735325","179","304622.3982","311511.172388","312278.355303","298452.00761","299218.871155","299986.072929","300753.420012","301503.765042","305389.950261","306157.150798","306924.326293","307691.751904","308458.855981","309209.432269","309976.52367","310744.348417","311520.836657","Mapping"
"Mixed","Both","ball","6","m160lash.wav","None","723.222069908","179","304622.3982","311511.172388","312278.355303","313045.673633","299218.871155","299986.072929","300753.420012","301503.765042","305389.950261","306157.150798","306924.326293","307691.751904","308458.855981","309209.432269","309976.52367","310744.348417","312287.967322","Mapping"
"Mixed","Both","ball","6","m160dime.wav","None","722.634342499","179","304622.3982","311511.172388","312278.355303","313045.673633","313812.71433","299986.072929","300753.420012","301503.765042","305389.950261","306157.150798","306924.326293","307691.751904","308458.855981","309209.432269","309976.52367","310744.348417","313055.5503","Mapping"
"Mixed","Both","ball","6","m150dime.wav","None","719.913049601","179","304622.3982","311511.172388","312278.355303","313045.673633","313812.71433","314563.346269","300753.420012","301503.765042","305389.950261","306157.150798","306924.326293","307691.751904","308458.855981","309209.432269","309976.52367","310744.348417","313821.948856","Mapping"
"Mixed","Both","ball","6","m160ball.wav","None","733.683372848","179","304622.3982","311511.172388","312278.355303","313045.673633","313812.71433","314563.346269","315330.606166","301503.765042","305389.950261","306157.150798","306924.326293","307691.751904","308458.855981","309209.432269","309976.52367","310744.348417","314572.952105","Mapping"
"Mixed","Both","ball","6","m160bluff.wav","space","443.628242239","179","304622.3982","311511.172388","312278.355303","313045.673633","313812.71433","314563.346269","315330.606166","316097.920168","305389.950261","306157.150798","306924.326293","307691.751904","308458.855981","309209.432269","309976.52367","310744.348417","315340.352983","Mapping"
"Mixed","Both","done","47","m160romp.wav","None","725.478065666","179","319199.900324","311511.172388","312278.355303","313045.673633","313812.71433","314563.346269","315330.606166","316097.920168","305389.950261","306157.150798","306924.326293","307691.751904","308458.855981","309209.432269","309976.52367","310744.348417","316107.641942","Mapping"
"Mixed","Both","done","47","m160depth.wav","None","736.028717831","179","319199.900324","311511.172388","312278.355303","313045.673633","313812.71433","314563.346269","315330.606166","316097.920168","319967.097461","306157.150798","306924.326293","307691.751904","308458.855981","309209.432269","309976.52367","310744.348417","319209.115991","Mapping"
"Mixed","Both","done","47","m150dime.wav","None","731.892983895","179","319199.900324","311511.172388","312278.355303","313045.673633","313812.71433","314563.346269","315330.606166","316097.920168","319967.097461","320734.602528","306924.326293","307691.751904","308458.855981","309209.432269","309976.52367","310744.348417","319976.850769","Mapping"
"Mixed","Both","done","47","m160done.wav","None","727.475288324","179","319199.900324","311511.172388","312278.355303","313045.673633","313812.71433","314563.346269","315330.606166","316097.920168","319967.097461","320734.602528","321501.803684","307691.751904","308458.855981","309209.432269","309976.52367","310744.348417","320744.94511","Mapping"
"Mixed","Both","done","47","m160ball.wav","space","504.394507967","179","319199.900324","311511.172388","312278.355303","313045.673633","313812.71433","314563.346269","315330.606166","316097.920168","319967.097461","320734.602528","321501.803684","322269.094497","308458.855981","309209.432269","309976.52367","310744.348417","321511.338411","Mapping"
"Mixed","Both","done","47","m150done.wav","None","721.238141879","179","319199.900324","311511.172388","312278.355303","313045.673633","313812.71433","314563.346269","315330.606166","316097.920168","319967.097461","320734.602528","321501.803684","322269.094497","323019.314625","309209.432269","309976.52367","310744.348417","322278.555025","Mapping"
"Mixed","Both","done","47","m150reek.wav","space","499.291697517","179","319199.900324","311511.172388","312278.355303","313045.673633","313812.71433","314563.346269","315330.606166","316097.920168","319967.097461","320734.602528","321501.803684","322269.094497","323019.314625","323786.436943","309976.52367","310744.348417","323028.430739","Mapping"
"Mixed","Both","done","47","m150romp.wav","None","729.879375082","179","319199.900324","311511.172388","312278.355303","313045.673633","313812.71433","314563.346269","315330.606166","316097.920168","319967.097461","320734.602528","321501.803684","322269.094497","323019.314625","323786.436943","324553.983129","310744.348417","323796.398631","Mapping"
"Mixed","Both","done","47","m150cave.wav","None","727.260416839","179","319199.900324","311511.172388","312278.355303","313045.673633","313812.71433","314563.346269","315330.606166","316097.920168","319967.097461","320734.602528","321501.803684","322269.094497","323019.314625","323786.436943","324553.983129","325321.177174","324563.642452","Mapping"
"Mixed","Both","done","47","m150done.wav","None","723.479297478","179","319199.900324","326088.28156","312278.355303","313045.673633","313812.71433","314563.346269","315330.606166","316097.920168","319967.097461","320734.602528","321501.803684","322269.094497","323019.314625","323786.436943","324553.983129","325321.177174","325330.971912","Mapping"
"Mixed","Both","done","47","m150priest.wav","space","461.809149478","179","319199.900324","326088.28156","326838.861868","313045.673633","313812.71433","314563.346269","315330.606166","316097.920168","319967.097461","320734.602528","321501.803684","322269.094497","323019.314625","323786.436943","324553.983129","325321.177174","326097.809177","Mapping"
"Mixed","Both","done","47","m160done.wav","None","732.944771647","179","319199.900324","326088.28156","326838.861868","327605.950795","313812.71433","314563.346269","315330.606166","316097.920168","319967.097461","320734.602528","321501.803684","322269.094497","323019.314625","323786.436943","324553.983129","325321.177174","326848.203674","Mapping"
"Mixed","Both","done","47","m160gnash.wav","space","688.232649583","179","319199.900324","326088.28156","326838.861868","327605.950795","328373.526353","314563.346269","315330.606166","316097.920168","319967.097461","320734.602528","321501.803684","322269.094497","323019.314625","323786.436943","324553.983129","325321.177174","327615.285182","Mapping"
"Mixed","Both","done","47","m150lash.wav","None","725.483321585","179","319199.900324","326088.28156","326838.861868","327605.950795","328373.526353","329140.560249","315330.606166","316097.920168","319967.097461","320734.602528","321501.803684","322269.094497","323019.314625","323786.436943","324553.983129","325321.177174","328383.117349","Mapping"
"Mixed","Both","done","47","m160jolt.wav","None","722.206454724","179","319199.900324","326088.28156","326838.861868","327605.950795","328373.526353","329140.560249","329890.816239","316097.920168","319967.097461","320734.602528","321501.803684","322269.094497","323019.314625","323786.436943","324553.983129","325321.177174","329150.210296","Mapping"
"Mixed","Both","done","47","m160lash.wav","None","735.783238895","179","319199.900324","326088.28156","326838.861868","327605.950795","328373.526353","329140.560249","329890.816239","330658.459195","319967.097461","320734.602528","321501.803684","322269.094497","323019.314625","323786.436943","324553.983129","325321.177174","329900.290988","Mapping"
"Mixed","Both","ball","2","m160lash.wav","None","732.776893303","179","333793.952497","326088.28156","326838.861868","327605.950795","328373.526353","329140.560249","329890.816239","330658.459195","319967.097461","320734.602528","321501.803684","322269.094497","323019.314625","323786.436943","324553.983129","325321.177174","330667.70887","Mapping"
"Mixed","Both","ball","2","m150cave.wav","None","720.169658773","179","333793.952497","326088.28156","326838.861868","327605.950795","328373.526353","329140.560249","329890.816239","330658.459195","334544.648433","320734.602528","321501.803684","322269.094497","323019.314625","323786.436943","324553.983129","325321.177174","333803.497427","Mapping"
"Mixed","Both","ball","2","m150tile.wav","None","732.897778042","179","333793.952497","326088.28156","326838.861868","327605.950795","328373.526353","329140.560249","329890.816239","330658.459195","334544.648433","335311.913277","321501.803684","322269.094497","323019.314625","323786.436943","324553.983129","325321.177174","334554.43606","Mapping"
"Mixed","Both","ball","2","m150cling.wav","None","729.08079531","179","333793.952497","326088.28156","326838.861868","327605.950795","328373.526353","329140.560249","329890.816239","330658.459195","334544.648433","335311.913277","336078.82938","322269.094497","323019.314625","323786.436943","324553.983129","325321.177174","335321.939581","Mapping"
"Mixed","Both","ball","2","m150ball.wav","None","726.57190077","179","333793.952497","326088.28156","326838.861868","327605.950795","328373.526353","329140.560249","329890.816239","330658.459195","334544.648433","335311.913277","336078.82938","336846.837154","323019.314625","323786.436943","324553.983129","325321.177174","336088.246006","Mapping"
"Mixed","Both","ball","2","m160jolt.wav","space","471.203206107","179","333793.952497","326088.28156","326838.861868","327605.950795","328373.526353","329140.560249","329890.816239","330658.459195","334544.648433","335311.913277","336078.82938","336846.837154","337596.539116","323786.436943","324553.983129","325321.177174","336856.033034","Mapping"
"Mixed","Both","ball","2","m150jolt.wav","None","735.20416813","179","333793.952497","326088.28156","326838.861868","327605.950795","328373.526353","329140.560249","329890.816239","330658.459195","334544.648433","335311.913277","336078.82938","336846.837154","337596.539116","338364.09396","324553.983129","325321.177174","337606.992071","Mapping"
"Mixed","Both","ball","2","m160lash.wav","None","732.122695073","179","333793.952497","326088.28156","326838.861868","327605.950795","328373.526353","329140.560249","329890.816239","330658.459195","334544.648433","335311.913277","336078.82938","336846.837154","337596.539116","338364.09396","339131.140222","325321.177174","338373.812951","Mapping"
"Mixed","Both","ball","2","m160ball.wav","None","729.257948231","179","333793.952497","326088.28156","326838.861868","327605.950795","328373.526353","329140.560249","329890.816239","330658.459195","334544.648433","335311.913277","336078.82938","336846.837154","337596.539116","338364.09396","339131.140222","339898.227913","339140.499961","Mapping"
"Mixed","Both","ball","2","m160done.wav","space","475.493524224","179","333793.952497","340665.690006","326838.861868","327605.950795","328373.526353","329140.560249","329890.816239","330658.459195","334544.648433","335311.913277","336078.82938","336846.837154","337596.539116","338364.09396","339131.140222","339898.227913","339907.661234","Mapping"
"Mixed","Both","ball","2","m160greet.wav","None","721.417768393","179","333793.952497","340665.690006","341416.0304","327605.950795","328373.526353","329140.560249","329890.816239","330658.459195","334544.648433","335311.913277","336078.82938","336846.837154","337596.539116","338364.09396","339131.140222","339898.227913","340675.815244","Mapping"
"Mixed","Both","ball","2","m150bluff.wav","None","735.468506347","179","333793.952497","340665.690006","341416.0304","342183.418911","328373.526353","329140.560249","329890.816239","330658.459195","334544.648433","335311.913277","336078.82938","336846.837154","337596.539116","338364.09396","339131.140222","339898.227913","341425.468049","Mapping"
"Mixed","Both","ball","2","m160ball.wav","None","731.550117023","179","333793.952497","340665.690006","341416.0304","342183.418911","342950.558851","329140.560249","329890.816239","330658.459195","334544.648433","335311.913277","336078.82938","336846.837154","337596.539116","338364.09396","339131.140222","339898.227913","342193.213957","Mapping"
"Mixed","Both","ball","2","m150depth.wav","space","399.191897828","179","333793.952497","340665.690006","341416.0304","342183.418911","342950.558851","343717.90006","329890.816239","330658.459195","334544.648433","335311.913277","336078.82938","336846.837154","337596.539116","338364.09396","339131.140222","339898.227913","342959.798942","Mapping"
"Mixed","Both","ball","2","m150ball.wav","None","724.577769637","179","333793.952497","340665.690006","341416.0304","342183.418911","342950.558851","343717.90006","344484.988678","330658.459195","334544.648433","335311.913277","336078.82938","336846.837154","337596.539116","338364.09396","339131.140222","339898.227913","343727.64935","Mapping"
"Mixed","Both","ball","2","m160depth.wav","space","496.588026639","179","333793.952497","340665.690006","341416.0304","342183.418911","342950.558851","343717.90006","344484.988678","345235.40018","334544.648433","335311.913277","336078.82938","336846.837154","337596.539116","338364.09396","339131.140222","339898.227913","344494.352127","Mapping"
"Mixed","Both","tile","30","m160jolt.wav","None","733.914630022","179","348354.471428","340665.690006","341416.0304","342183.418911","342950.558851","343717.90006","344484.988678","345235.40018","334544.648433","335311.913277","336078.82938","336846.837154","337596.539116","338364.09396","339131.140222","339898.227913","345245.051773","Mapping"
"Mixed","Both","tile","30","m160ball.wav","None","736.016042065","179","348354.471428","340665.690006","341416.0304","342183.418911","342950.558851","343717.90006","344484.988678","345235.40018","349121.627446","335311.913277","336078.82938","336846.837154","337596.539116","338364.09396","339131.140222","339898.227913","348363.828385","Mapping"
"Mixed","Both","tile","30","m160cling.wav","None","732.455359306","179","348354.471428","340665.690006","341416.0304","342183.418911","342950.558851","343717.90006","344484.988678","345235.40018","349121.627446","349889.090466","336078.82938","336846.837154","337596.539116","338364.09396","339131.140222","339898.227913","349131.168975","Mapping"
"Mixed","Both","tile","30","m150priest.wav","None","729.582883418","179","348354.471428","340665.690006","341416.0304","342183.418911","342950.558851","343717.90006","344484.988678","345235.40018","349121.627446","349889.090466","350656.638199","336846.837154","337596.539116","338364.09396","339131.140222","339898.227913","349898.763082","Mapping"
"Mixed","Both","tile","30","m150tile.wav","None","725.884002633","179","348354.471428","340665.690006","341416.0304","342183.418911","342950.558851","343717.90006","344484.988678","345235.40018","349121.627446","349889.090466","350656.638199","351423.371893","337596.539116","338364.09396","339131.140222","339898.227913","350666.326273","Mapping"
"Mixed","Both","tile","30","m150done.wav","space","462.172421161","179","348354.471428","340665.690006","341416.0304","342183.418911","342950.558851","343717.90006","344484.988678","345235.40018","349121.627446","349889.090466","350656.638199","351423.371893","352173.835953","338364.09396","339131.140222","339898.227913","351432.516142","Mapping"
"Mixed","Both","tile","30","m160lash.wav","None","735.576714855","179","348354.471428","340665.690006","341416.0304","342183.418911","342950.558851","343717.90006","344484.988678","345235.40018","349121.627446","349889.090466","350656.638199","351423.371893","352173.835953","352940.99939","339131.140222","339898.227913","352183.332962","Mapping"
"Mixed","Both","tile","30","m150jaw.wav","None","733.440676238","179","348354.471428","340665.690006","341416.0304","342183.418911","342950.558851","343717.90006","344484.988678","345235.40018","349121.627446","349889.090466","350656.638199","351423.371893","352173.835953","352940.99939","353707.918585","339898.227913","352950.521751","Mapping"
"Mixed","Both","tile","30","m150dime.wav","None","730.567891151","179","348354.471428","340665.690006","341416.0304","342183.418911","342950.558851","343717.90006","344484.988678","345235.40018","349121.627446","349889.090466","350656.638199","351423.371893","352173.835953","352940.99939","353707.918585","354476.000559","353717.284816","Mapping"
"Mixed","Both","tile","30","m160tile.wav","None","725.677478593","179","348354.471428","355242.921609","341416.0304","342183.418911","342950.558851","343717.90006","344484.988678","345235.40018","349121.627446","349889.090466","350656.638199","351423.371893","352173.835953","352940.99939","353707.918585","354476.000559","354486.017588","Mapping"
"Mixed","Both","tile","30","m150park.wav","space","473.874723073","179","348354.471428","355242.921609","356010.153372","342183.418911","342950.558851","343717.90006","344484.988678","345235.40018","349121.627446","349889.090466","350656.638199","351423.371893","352173.835953","352940.99939","353707.918585","354476.000559","355252.63689","Mapping"
"Mixed","Both","tile","30","m160cling.wav","None","719.577603042","179","348354.471428","355242.921609","356010.153372","356760.689159","342950.558851","343717.90006","344484.988678","345235.40018","349121.627446","349889.090466","350656.638199","351423.371893","352173.835953","352940.99939","353707.918585","354476.000559","356020.100529","Mapping"
"Mixed","Both","tile","30","m160tile.wav","None","733.005368151","179","348354.471428","355242.921609","356010.153372","356760.689159","357527.864963","343717.90006","344484.988678","345235.40018","349121.627446","349889.090466","350656.638199","351423.371893","352173.835953","352940.99939","353707.918585","354476.000559","356770.504302","Mapping"
"Mixed","Both","tile","30","m160lash.wav","space","509.019036312","179","348354.471428","355242.921609","356010.153372","356760.689159","357527.864963","358295.157323","344484.988678","345235.40018","349121.627446","349889.090466","350656.638199","351423.371893","352173.835953","352940.99939","353707.918585","354476.000559","357537.425661","Mapping"
"Mixed","Both","tile","30","m150tile.wav","None","725.731274113","179","348354.471428","355242.921609","356010.153372","356760.689159","357527.864963","358295.157323","359062.131859","345235.40018","349121.627446","349889.090466","350656.638199","351423.371893","352173.835953","352940.99939","353707.918585","354476.000559","358304.802423","Mapping"
"Mixed","Both","tile","30","m150bluff.wav","space","495.155653451","179","348354.471428","355242.921609","356010.153372","356760.689159","357527.864963","358295.157323","359062.131859","359813.004948","349121.627446","349889.090466","350656.638199","351423.371893","352173.835953","352940.99939","353707.918585","354476.000559","359071.255703","Mapping"
"Mixed","Both","ball","1","m150lash.wav","None","734.271409456","179","362931.553703","355242.921609","356010.153372","356760.689159","357527.864963","358295.157323","359062.131859","359813.004948","349121.627446","349889.090466","350656.638199","351423.371893","352173.835953","352940.99939","353707.918585","354476.000559","359824.220001","Mapping"
"Mixed","Both","ball","1","m150dime.wav","None","735.735317692","179","362931.553703","355242.921609","356010.153372","356760.689159","357527.864963","358295.157323","359062.131859","359813.004948","363698.980551","349889.090466","350656.638199","351423.371893","352173.835953","352940.99939","353707.918585","354476.000559","362940.997535","Mapping"
"Mixed","Both","ball","1","m160ball.wav","None","731.826821342","179","362931.553703","355242.921609","356010.153372","356760.689159","357527.864963","358295.157323","359062.131859","359813.004948","363698.980551","364466.712238","350656.638199","351423.371893","352173.835953","352940.99939","353707.918585","354476.000559","363708.738807","Mapping"
"Mixed","Both","ball","1","m150tile.wav","space","401.40089998","179","362931.553703","355242.921609","356010.153372","356760.689159","357527.864963","358295.157323","359062.131859","359813.004948","363698.980551","364466.712238","365233.36493","351423.371893","352173.835953","352940.99939","353707.918585","354476.000559","364476.779352","Mapping"
"Mixed","Both","ball","1","m150knife.wav","None","725.180955604","179","362931.553703","355242.921609","356010.153372","356760.689159","357527.864963","358295.157323","359062.131859","359813.004948","363698.980551","364466.712238","365233.36493","366000.572269","352173.835953","352940.99939","353707.918585","354476.000559","365242.938922","Mapping"
"Mixed","Both","ball","1","m150ball.wav","None","722.489343025","179","362931.553703","355242.921609","356010.153372","356760.689159","357527.864963","358295.157323","359062.131859","359813.004948","363698.980551","364466.712238","365233.36493","366000.572269","366751.154741","352940.99939","353707.918585","354476.000559","366009.857189","Mapping"
"Mixed","Both","ball","1","m160gnash.wav","space","389.403962065","179","362931.553703","355242.921609","356010.153372","356760.689159","357527.864963","358295.157323","359062.131859","359813.004948","363698.980551","364466.712238","365233.36493","366000.572269","366751.154741","367518.449574","353707.918585","354476.000559","366760.734298","Mapping"
"Mixed","Both","ball","1","m150cling.wav","None","731.558154803","179","362931.553703","355242.921609","356010.153372","356760.689159","357527.864963","358295.157323","359062.131859","359813.004948","363698.980551","364466.712238","365233.36493","366000.572269","366751.154741","367518.449574","368286.186517","354476.000559","367527.876093","Mapping"
"Mixed","Both","ball","1","m150ball.wav","None","727.066878229","179","362931.553703","355242.921609","356010.153372","356760.689159","357527.864963","358295.157323","359062.131859","359813.004948","363698.980551","364466.712238","365233.36493","366000.572269","366751.154741","367518.449574","368286.186517","369053.299251","368296.290113","Mapping"
"Mixed","Both","ball","1","m160cad.wav","space","398.861707188","179","362931.553703","369819.953798","356010.153372","356760.689159","357527.864963","358295.157323","359062.131859","359813.004948","363698.980551","364466.712238","365233.36493","366000.572269","366751.154741","367518.449574","368286.186517","369053.299251","369063.16015","Mapping"
"Mixed","Both","ball","1","m160gnash.wav","None","721.696019173","179","362931.553703","369819.953798","370570.372102","356760.689159","357527.864963","358295.157323","359062.131859","359813.004948","363698.980551","364466.712238","365233.36493","366000.572269","366751.154741","367518.449574","368286.186517","369053.299251","369829.158953","Mapping"
"Mixed","Both","ball","1","m160cad.wav","None","734.963017516","179","362931.553703","369819.953798","370570.372102","371337.781327","357527.864963","358295.157323","359062.131859","359813.004948","363698.980551","364466.712238","365233.36493","366000.572269","366751.154741","367518.449574","368286.186517","369053.299251","370579.860454","Mapping"
"Mixed","Both","ball","1","m150cad.wav","None","731.579487678","179","362931.553703","369819.953798","370570.372102","371337.781327","372105.551969","358295.157323","359062.131859","359813.004948","363698.980551","364466.712238","365233.36493","366000.572269","366751.154741","367518.449574","368286.186517","369053.299251","371347.218667","Mapping"
"Mixed","Both","ball","1","m160bluff.wav","None","728.455658536","179","362931.553703","369819.953798","370570.372102","371337.781327","372105.551969","372872.24609","359062.131859","359813.004948","363698.980551","364466.712238","365233.36493","366000.572269","366751.154741","367518.449574","368286.186517","369053.299251","372115.377933","Mapping"
"Mixed","Both","ball","1","m160ball.wav","None","725.468481891","179","362931.553703","369819.953798","370570.372102","371337.781327","372105.551969","372872.24609","373639.586371","359813.004948","363698.980551","364466.712238","365233.36493","366000.572269","366751.154741","367518.449574","368286.186517","369053.299251","372882.486029","Mapping"
"Mixed","Both","ball","1","m160dime.wav","space","492.331098765","179","362931.553703","369819.953798","370570.372102","371337.781327","372105.551969","372872.24609","373639.586371","374390.208107","363698.980551","364466.712238","365233.36493","366000.572269","366751.154741","367518.449574","368286.186517","369053.299251","373649.559498","Mapping"
"Mixed","Both","ball","4","m160dime.wav","None","734.663124662","179","377509.154452","369819.953798","370570.372102","371337.781327","372105.551969","372872.24609","373639.586371","374390.208107","363698.980551","364466.712238","365233.36493","366000.572269","366751.154741","367518.449574","368286.186517","369053.299251","374400.206586","Mapping"
"Mixed","Both","ball","4","m160park.wav","None","741.275909822","179","377509.154452","369819.953798","370570.372102","371337.781327","372105.551969","372872.24609","373639.586371","374390.208107","378276.363645","364466.712238","365233.36493","366000.572269","366751.154741","367518.449574","368286.186517","369053.299251","377513.19187","Mapping"
"Mixed","Both","ball","4","m160ball.wav","None","732.775347773","179","377509.154452","369819.953798","370570.372102","371337.781327","372105.551969","372872.24609","373639.586371","374390.208107","378276.363645","379043.538831","365233.36493","366000.572269","366751.154741","367518.449574","368286.186517","369053.299251","378286.207231","Mapping"
"Mixed","Both","ball","4","m160greet.wav","space","473.009054083","179","377509.154452","369819.953798","370570.372102","371337.781327","372105.551969","372872.24609","373639.586371","374390.208107","378276.363645","379043.538831","379810.710925","366000.572269","366751.154741","367518.449574","368286.186517","369053.299251","379052.668239","Mapping"
"Mixed","Both","ball","4","m150done.wav","None","725.843501743","179","377509.154452","369819.953798","370570.372102","371337.781327","372105.551969","372872.24609","373639.586371","374390.208107","378276.363645","379043.538831","379810.710925","380577.656399","366751.154741","367518.449574","368286.186517","369053.299251","379820.319852","Mapping"
"Mixed","Both","ball","4","m150ball.wav","None","722.824480385","179","377509.154452","369819.953798","370570.372102","371337.781327","372105.551969","372872.24609","373639.586371","374390.208107","378276.363645","379043.538831","379810.710925","380577.656399","381345.009974","367518.449574","368286.186517","369053.299251","380587.318503","Mapping"
"Mixed","Both","ball","4","m150cad.wav","space","451.456673909","179","377509.154452","369819.953798","370570.372102","371337.781327","372105.551969","372872.24609","373639.586371","374390.208107","378276.363645","379043.538831","379810.710925","380577.656399","381345.009974","382095.566166","368286.186517","369053.299251","381354.1366","Mapping"
"Mixed","Both","ball","4","m150priest.wav","None","732.663119677","179","377509.154452","369819.953798","370570.372102","371337.781327","372105.551969","372872.24609","373639.586371","374390.208107","378276.363645","379043.538831","379810.710925","380577.656399","381345.009974","382095.566166","382862.922524","369053.299251","382105.319784","Mapping"
"Mixed","Both","ball","4","m160ball.wav","None","729.301231913","179","377509.154452","369819.953798","370570.372102","371337.781327","372105.551969","372872.24609","373639.586371","374390.208107","378276.363645","379043.538831","379810.710925","380577.656399","381345.009974","382095.566166","382862.922524","383630.12368","382872.662848","Mapping"
"Mixed","Both","ball","4","m160jaw.wav","space","453.659492545","179","377509.154452","384397.482819","370570.372102","371337.781327","372105.551969","372872.24609","373639.586371","374390.208107","378276.363645","379043.538831","379810.710925","380577.656399","381345.009974","382095.566166","382862.922524","383630.12368","383639.868641","Mapping"
"Mixed","Both","ball","4","m150reek.wav","None","723.095929716","179","377509.154452","384397.482819","385164.561235","371337.781327","372105.551969","372872.24609","373639.586371","374390.208107","378276.363645","379043.538831","379810.710925","380577.656399","381345.009974","382095.566166","382862.922524","383630.12368","384406.748262","Mapping"
"Mixed","Both","ball","4","m150ball.wav","None","719.169501681","179","377509.154452","384397.482819","385164.561235","385915.464932","372105.551969","372872.24609","373639.586371","374390.208107","378276.363645","379043.538831","379810.710925","380577.656399","381345.009974","382095.566166","382862.922524","383630.12368","385174.767166","Mapping"
"Mixed","Both","ball","4","m150cling.wav","space","456.357907038","179","377509.154452","384397.482819","385164.561235","385915.464932","386682.704115","372872.24609","373639.586371","374390.208107","378276.363645","379043.538831","379810.710925","380577.656399","381345.009974","382095.566166","382862.922524","383630.12368","385925.064585","Mapping"
"Mixed","Both","ball","4","m160tile.wav","None","728.120521177","179","377509.154452","384397.482819","385164.561235","385915.464932","386682.704115","387449.636604","373639.586371","374390.208107","378276.363645","379043.538831","379810.710925","380577.656399","381345.009974","382095.566166","382862.922524","383630.12368","386692.712178","Mapping"
"Mixed","Both","ball","4","m160dime.wav","None","726.515013725","179","377509.154452","384397.482819","385164.561235","385915.464932","386682.704115","387449.636604","388216.817046","374390.208107","378276.363645","379043.538831","379810.710925","380577.656399","381345.009974","382095.566166","382862.922524","383630.12368","387459.424231","Mapping"
"Mixed","Both","ball","4","m150bluff.wav","None","723.318530712","179","377509.154452","384397.482819","385164.561235","385915.464932","386682.704115","387449.636604","388216.817046","388984.034587","378276.363645","379043.538831","379810.710925","380577.656399","381345.009974","382095.566166","382862.922524","383630.12368","388226.659395","Mapping"
"Mixed","Both","cave","21","m150bluff.wav","None","720.586416777","179","392086.038549","384397.482819","385164.561235","385915.464932","386682.704115","387449.636604","388216.817046","388984.034587","378276.363645","379043.538831","379810.710925","380577.656399","381345.009974","382095.566166","382862.922524","383630.12368","388993.466053","Mapping"
"Mixed","Both","cave","21","m160depth.wav","None","736.289036926","179","392086.038549","384397.482819","385164.561235","385915.464932","386682.704115","387449.636604","388216.817046","388984.034587","392853.524448","379043.538831","379810.710925","380577.656399","381345.009974","382095.566166","382862.922524","383630.12368","392095.506188","Mapping"
"Mixed","Both","cave","21","m150done.wav","None","738.05005569","179","392086.038549","384397.482819","385164.561235","385915.464932","386682.704115","387449.636604","388216.817046","388984.034587","392853.524448","393620.799804","379810.710925","380577.656399","381345.009974","382095.566166","382862.922524","383630.12368","392857.928849","Mapping"
"Mixed","Both","cave","21","m150done.wav","None","731.238475535","179","392086.038549","384397.482819","385164.561235","385915.464932","386682.704115","387449.636604","388216.817046","388984.034587","392853.524448","393620.799804","394388.171002","380577.656399","381345.009974","382095.566166","382862.922524","383630.12368","393630.137592","Mapping"
"Mixed","Both","cave","21","m150cave.wav","None","726.528926287","179","392086.038549","384397.482819","385164.561235","385915.464932","386682.704115","387449.636604","388216.817046","388984.034587","392853.524448","393620.799804","394388.171002","395155.131316","381345.009974","382095.566166","382862.922524","383630.12368","394398.804202","Mapping"
"Mixed","Both","cave","21","m150bluff.wav","space","472.161934711","179","392086.038549","384397.482819","385164.561235","385915.464932","386682.704115","387449.636604","388216.817046","388984.034587","392853.524448","393620.799804","394388.171002","395155.131316","395922.269401","382095.566166","382862.922524","383630.12368","395164.926053","Mapping"
"Mixed","Both","cave","21","m160cave.wav","None","719.711163547","179","392086.038549","384397.482819","385164.561235","385915.464932","386682.704115","387449.636604","388216.817046","388984.034587","392853.524448","393620.799804","394388.171002","395155.131316","395922.269401","396672.912779","382862.922524","383630.12368","395932.422155","Mapping"
"Mixed","Both","cave","21","m160cad.wav","space","418.605147395","179","392086.038549","384397.482819","385164.561235","385915.464932","386682.704115","387449.636604","388216.817046","388984.034587","392853.524448","393620.799804","394388.171002","395155.131316","395922.269401","396672.912779","397440.28645","383630.12368","396682.404841","Mapping"
"Mixed","Both","cave","21","m150lash.wav","None","730.056837201","179","392086.038549","384397.482819","385164.561235","385915.464932","386682.704115","387449.636604","388216.817046","388984.034587","392853.524448","393620.799804","394388.171002","395155.131316","395922.269401","396672.912779","397440.28645","398207.42639","397450.068512","Mapping"
"Mixed","Both","cave","21","m160greet.wav","None","726.593542378","179","392086.038549","398974.392888","385164.561235","385915.464932","386682.704115","387449.636604","388216.817046","388984.034587","392853.524448","393620.799804","394388.171002","395155.131316","395922.269401","396672.912779","397440.28645","398207.42639","398217.578216","Mapping"
"Mixed","Both","cave","21","m150cave.wav","None","724.347130861","179","392086.038549","398974.392888","399741.682465","385915.464932","386682.704115","387449.636604","388216.817046","388984.034587","392853.524448","393620.799804","394388.171002","395155.131316","395922.269401","396672.912779","397440.28645","398207.42639","398983.860217","Mapping"
"Mixed","Both","cave","21","m160jaw.wav","space","525.593508966","179","392086.038549","398974.392888","399741.682465","400492.246387","386682.704115","387449.636604","388216.817046","388984.034587","392853.524448","393620.799804","394388.171002","395155.131316","395922.269401","396672.912779","397440.28645","398207.42639","399751.305924","Mapping"
"Mixed","Both","cave","21","m160jolt.wav","None","733.357510529","179","392086.038549","398974.392888","399741.682465","400492.246387","401259.596561","387449.636604","388216.817046","388984.034587","392853.524448","393620.799804","394388.171002","395155.131316","395922.269401","396672.912779","397440.28645","398207.42639","400502.431603","Mapping"
"Mixed","Both","cave","21","m160cave.wav","None","730.393520556","179","392086.038549","398974.392888","399741.682465","400492.246387","401259.596561","402026.911799","388216.817046","388984.034587","392853.524448","393620.799804","394388.171002","395155.131316","395922.269401","396672.912779","397440.28645","398207.42639","401269.47601","Mapping"
"Mixed","Both","cave","21","m160knife.wav","space","576.417873148","179","392086.038549","398974.392888","399741.682465","400492.246387","401259.596561","402026.911799","402794.900714","388984.034587","392853.524448","393620.799804","394388.171002","395155.131316","395922.269401","396672.912779","397440.28645","398207.42639","402036.395205","Mapping"
"Mixed","Both","cave","21","m150knife.wav","None","724.981233478","179","392086.038549","398974.392888","399741.682465","400492.246387","401259.596561","402026.911799","402794.900714","403561.194463","392853.524448","393620.799804","394388.171002","395155.131316","395922.269401","396672.912779","397440.28645","398207.42639","402805.062742","Mapping"
"Mixed","Both","tile","34","m160lash.wav","None","723.878123797","179","406680.248707","398974.392888","399741.682465","400492.246387","401259.596561","402026.911799","402794.900714","403561.194463","392853.524448","393620.799804","394388.171002","395155.131316","395922.269401","396672.912779","397440.28645","398207.42639","403570.909744","Mapping"
"Mixed","Both","tile","34","m160cad.wav","None","719.941493124","179","406680.248707","398974.392888","399741.682465","400492.246387","401259.596561","402026.911799","402794.900714","403561.194463","407430.686179","393620.799804","394388.171002","395155.131316","395922.269401","396672.912779","397440.28645","398207.42639","406689.486015","Mapping"
"Mixed","Both","tile","34","m160done.wav","None","733.356582467","179","406680.248707","398974.392888","399741.682465","400492.246387","401259.596561","402026.911799","402794.900714","403561.194463","407430.686179","408197.979157","394388.171002","395155.131316","395922.269401","396672.912779","397440.28645","398207.42639","407440.363124","Mapping"
"Mixed","Both","tile","34","m150tile.wav","None","730.403723661","179","406680.248707","398974.392888","399741.682465","400492.246387","401259.596561","402026.911799","402794.900714","403561.194463","407430.686179","408197.979157","408965.249566","395155.131316","395922.269401","396672.912779","397440.28645","398207.42639","408207.531198","Mapping"
"Mixed","Both","tile","34","m150knife.wav","space","534.33985915","179","406680.248707","398974.392888","399741.682465","400492.246387","401259.596561","402026.911799","402794.900714","403561.194463","407430.686179","408197.979157","408965.249566","409732.320253","395922.269401","396672.912779","397440.28645","398207.42639","408974.225319","Mapping"
"Mixed","Both","tile","34","m160tile.wav","None","724.103506655","179","406680.248707","398974.392888","399741.682465","400492.246387","401259.596561","402026.911799","402794.900714","403561.194463","407430.686179","408197.979157","408965.249566","409732.320253","410499.572112","396672.912779","397440.28645","398207.42639","409741.667316","Mapping"
"Mixed","Both","tile","34","m150cave.wav","space","447.744189762","179","406680.248707","398974.392888","399741.682465","400492.246387","401259.596561","402026.911799","402794.900714","403561.194463","407430.686179","408197.979157","408965.249566","409732.320253","410499.572112","411249.983923","397440.28645","398207.42639","410508.810966","Mapping"
"Mixed","Both","tile","34","m160ball.wav","None","733.758191578","179","406680.248707","398974.392888","399741.682465","400492.246387","401259.596561","402026.911799","402794.900714","403561.194463","407430.686179","408197.979157","408965.249566","409732.320253","410499.572112","411249.983923","412017.054301","398207.42639","411259.445687","Mapping"
"Mixed","Both","tile","34","m160jaw.wav","None","734.263679944","179","406680.248707","398974.392888","399741.682465","400492.246387","401259.596561","402026.911799","402794.900714","403561.194463","407430.686179","408197.979157","408965.249566","409732.320253","410499.572112","411249.983923","412017.054301","412784.681798","412026.248017","Mapping"
"Mixed","Both","tile","34","m150gnash.wav","None","730.881078169","179","406680.248707","413551.805353","399741.682465","400492.246387","401259.596561","402026.911799","402794.900714","403561.194463","407430.686179","408197.979157","408965.249566","409732.320253","410499.572112","411249.983923","412017.054301","412784.681798","412794.795288","Mapping"
"Mixed","Both","tile","34","m150gnash.wav","None","728.561703116","179","406680.248707","413551.805353","414319.033715","400492.246387","401259.596561","402026.911799","402794.900714","403561.194463","407430.686179","408197.979157","408965.249566","409732.320253","410499.572112","411249.983923","412017.054301","412784.681798","413561.426338","Mapping"
"Mixed","Both","tile","34","m150tile.wav","None","725.898842793","179","406680.248707","413551.805353","414319.033715","415086.459327","401259.596561","402026.911799","402794.900714","403561.194463","407430.686179","408197.979157","408965.249566","409732.320253","410499.572112","411249.983923","412017.054301","412784.681798","414328.415405","Mapping"
"Mixed","Both","tile","34","m160gnash.wav","space","396.321586333","179","406680.248707","413551.805353","414319.033715","415086.459327","415836.941628","402026.911799","402794.900714","403561.194463","407430.686179","408197.979157","408965.249566","409732.320253","410499.572112","411249.983923","412017.054301","412784.681798","415096.055269","Mapping"
"Mixed","Both","tile","34","m150depth.wav","None","736.208653543","179","406680.248707","413551.805353","414319.033715","415086.459327","415836.941628","416604.001184","402794.900714","403561.194463","407430.686179","408197.979157","408965.249566","409732.320253","410499.572112","411249.983923","412017.054301","412784.681798","415846.181719","Mapping"
"Mixed","Both","tile","34","m160tile.wav","None","732.555529568","179","406680.248707","413551.805353","414319.033715","415086.459327","415836.941628","416604.001184","417371.372073","403561.194463","407430.686179","408197.979157","408965.249566","409732.320253","410499.572112","411249.983923","412017.054301","412784.681798","416613.940612","Mapping"
"Mixed","Both","tile","34","m150cave.wav","space","599.27246673","179","406680.248707","413551.805353","414319.033715","415086.459327","415836.941628","416604.001184","417371.372073","418138.551278","407430.686179","408197.979157","408965.249566","409732.320253","410499.572112","411249.983923","412017.054301","412784.681798","417380.985948","Mapping"
"Mixed","Both","done","41","m160jolt.wav","None","725.345123559","179","421240.552148","413551.805353","414319.033715","415086.459327","415836.941628","416604.001184","417371.372073","418138.551278","407430.686179","408197.979157","408965.249566","409732.320253","410499.572112","411249.983923","412017.054301","412784.681798","418148.515439","Mapping"
"Mixed","Both","done","41","m160park.wav","None","734.673945699","179","421240.552148","413551.805353","414319.033715","415086.459327","415836.941628","416604.001184","417371.372073","418138.551278","422008.112557","408197.979157","408965.249566","409732.320253","410499.572112","411249.983923","412017.054301","412784.681798","421250.880509","Mapping"
"Mixed","Both","done","41","m150done.wav","None","732.588610612","179","421240.552148","413551.805353","414319.033715","415086.459327","415836.941628","416604.001184","417371.372073","418138.551278","422008.112557","422775.357923","408965.249566","409732.320253","410499.572112","411249.983923","412017.054301","412784.681798","422017.441997","Mapping"
"Mixed","Both","done","41","m150reek.wav","space","427.303267177","179","421240.552148","413551.805353","414319.033715","415086.459327","415836.941628","416604.001184","417371.372073","418138.551278","422008.112557","422775.357923","423542.486425","409732.320253","410499.572112","411249.983923","412017.054301","412784.681798","422784.779496","Mapping"
"Mixed","Both","done","41","m160done.wav","None","731.171077117","179","421240.552148","413551.805353","414319.033715","415086.459327","415836.941628","416604.001184","417371.372073","418138.551278","422008.112557","422775.357923","423542.486425","424309.119021","410499.572112","411249.983923","412017.054301","412784.681798","423546.476232","Mapping"
"Mixed","Both","done","41","m160ball.wav","space","492.797323503","179","421240.552148","413551.805353","414319.033715","415086.459327","415836.941628","416604.001184","417371.372073","418138.551278","422008.112557","422775.357923","423542.486425","424309.119021","425060.260467","411249.983923","412017.054301","412784.681798","424319.226636","Mapping"
"Mixed","Both","done","41","m150jolt.wav","None","734.211430885","179","421240.552148","413551.805353","414319.033715","415086.459327","415836.941628","416604.001184","417371.372073","418138.551278","422008.112557","422775.357923","423542.486425","424309.119021","425060.260467","425827.554064","412017.054301","412784.681798","425070.494841","Mapping"
"Mixed","Both","done","41","m160tile.wav","None","733.15222282","179","421240.552148","413551.805353","414319.033715","415086.459327","415836.941628","416604.001184","417371.372073","418138.551278","422008.112557","422775.357923","423542.486425","424309.119021","425060.260467","425827.554064","426594.628461","412784.681798","425836.700168","Mapping"
"Mixed","Both","done","41","m160greet.wav","None","730.375898071","179","421240.552148","413551.805353","414319.033715","415086.459327","415836.941628","416604.001184","417371.372073","418138.551278","422008.112557","422775.357923","423542.486425","424309.119021","425060.260467","425827.554064","426594.628461","427361.950192","426603.75416","Mapping"
"Mixed","Both","done","41","m150lash.wav","None","727.635746356","179","421240.552148","428129.180718","414319.033715","415086.459327","415836.941628","416604.001184","417371.372073","418138.551278","422008.112557","422775.357923","423542.486425","424309.119021","425060.260467","425827.554064","426594.628461","427361.950192","427371.533459","Mapping"
"Mixed","Both","done","41","m160dime.wav","None","724.241705146","179","421240.552148","428129.180718","428896.131448","415086.459327","415836.941628","416604.001184","417371.372073","418138.551278","422008.112557","422775.357923","423542.486425","424309.119021","425060.260467","425827.554064","426594.628461","427361.950192","428139.355732","Mapping"
"Mixed","Both","done","41","m150done.wav","space","385.882852599","179","421240.552148","428129.180718","428896.131448","429646.916424","415836.941628","416604.001184","417371.372073","418138.551278","422008.112557","422775.357923","423542.486425","424309.119021","425060.260467","425827.554064","426594.628461","427361.950192","428906.009661","Mapping"
"Mixed","Both","done","41","m150depth.wav","space","514.888891019","179","421240.552148","428129.180718","428896.131448","429646.916424","430413.873338","416604.001184","417371.372073","418138.551278","422008.112557","422775.357923","423542.486425","424309.119021","425060.260467","425827.554064","426594.628461","427361.950192","429656.972409","Mapping"
"Mixed","Both","done","41","m150gnash.wav","None","730.538829695","179","421240.552148","428129.180718","428896.131448","429646.916424","430413.873338","431181.406539","417371.372073","418138.551278","422008.112557","422775.357923","423542.486425","424309.119021","425060.260467","425827.554064","426594.628461","427361.950192","430423.281306","Mapping"
"Mixed","Both","done","41","m160done.wav","None","726.80965066","179","421240.552148","428129.180718","428896.131448","429646.916424","430413.873338","431181.406539","431948.312131","418138.551278","422008.112557","422775.357923","423542.486425","424309.119021","425060.260467","425827.554064","426594.628461","427361.950192","431191.178398","Mapping"
"Mixed","Both","done","41","m150reek.wav","space","622.251654975","179","421240.552148","428129.180718","428896.131448","429646.916424","430413.873338","431181.406539","431948.312131","432716.062677","422008.112557","422775.357923","423542.486425","424309.119021","425060.260467","425827.554064","426594.628461","427361.950192","431957.509866","Mapping"
"Mixed","Both","done","42","m160knife.wav","None","720.561065245","179","435817.721299","428129.180718","428896.131448","429646.916424","430413.873338","431181.406539","431948.312131","432716.062677","422008.112557","422775.357923","423542.486425","424309.119021","425060.260467","425827.554064","426594.628461","427361.950192","432726.317146","Mapping"
"Mixed","Both","done","42","m150cad.wav","None","735.369572882","179","435817.721299","428129.180718","428896.131448","429646.916424","430413.873338","431181.406539","431948.312131","432716.062677","436585.287272","422775.357923","423542.486425","424309.119021","425060.260467","425827.554064","426594.628461","427361.950192","435827.910225","Mapping"
"Mixed","Both","done","42","m150cling.wav","None","732.515028678","179","435817.721299","428129.180718","428896.131448","429646.916424","430413.873338","431181.406539","431948.312131","432716.062677","436585.287272","437352.425976","423542.486425","424309.119021","425060.260467","425827.554064","426594.628461","427361.950192","436594.968545","Mapping"
"Mixed","Both","done","42","m160done.wav","None","730.288403574","179","435817.721299","428129.180718","428896.131448","429646.916424","430413.873338","431181.406539","431948.312131","432716.062677","436585.287272","437352.425976","438119.700095","424309.119021","425060.260467","425827.554064","426594.628461","427361.950192","437362.186396","Mapping"
"Mixed","Both","done","42","m150knife.wav","space","449.857659172","179","435817.721299","428129.180718","428896.131448","429646.916424","430413.873338","431181.406539","431948.312131","432716.062677","436585.287272","437352.425976","438119.700095","438886.925984","425060.260467","425827.554064","426594.628461","427361.950192","438129.656527","Mapping"
"Mixed","Both","done","42","m160jolt.wav","None","723.24433038","179","435817.721299","428129.180718","428896.131448","429646.916424","430413.873338","431181.406539","431948.312131","432716.062677","436585.287272","437352.425976","438119.700095","438886.925984","439654.070253","425827.554064","426594.628461","427361.950192","438897.076573","Mapping"
"Mixed","Both","done","42","m150jaw.wav","None","721.024507191","179","435817.721299","428129.180718","428896.131448","429646.916424","430413.873338","431181.406539","431948.312131","432716.062677","436585.287272","437352.425976","438119.700095","438886.925984","439654.070253","440404.717341","426594.628461","427361.950192","439663.602816","Mapping"
"Mixed","Both","done","42","m150done.wav","None","734.940447845","179","435817.721299","428129.180718","428896.131448","429646.916424","430413.873338","431181.406539","431948.312131","432716.062677","436585.287272","437352.425976","438119.700095","438886.925984","439654.070253","440404.717341","441171.854189","427361.950192","440414.030086","Mapping"
"Mixed","Both","done","42","m160ball.wav","space","460.753342602","179","435817.721299","428129.180718","428896.131448","429646.916424","430413.873338","431181.406539","431948.312131","432716.062677","436585.287272","437352.425976","438119.700095","438886.925984","439654.070253","440404.717341","441171.854189","441939.080697","441182.676909","Mapping"
"Mixed","Both","done","42","m160done.wav","None","728.468334768","179","435817.721299","442706.537224","428896.131448","429646.916424","430413.873338","431181.406539","431948.312131","432716.062677","436585.287272","437352.425976","438119.700095","438886.925984","439654.070253","440404.717341","441171.854189","441939.080697","441948.542151","Mapping"
"Mixed","Both","done","42","m150reek.wav","space","510.904030874","179","435817.721299","442706.537224","443473.657069","429646.916424","430413.873338","431181.406539","431948.312131","432716.062677","436585.287272","437352.425976","438119.700095","438886.925984","439654.070253","440404.717341","441171.854189","441939.080697","442716.467068","Mapping"
"Mixed","Both","done","42","m150done.wav","None","720.923718531","179","435817.721299","442706.537224","443473.657069","444223.940575","430413.873338","431181.406539","431948.312131","432716.062677","436585.287272","437352.425976","438119.700095","438886.925984","439654.070253","440404.717341","441171.854189","441939.080697","443483.39832","Mapping"
"Mixed","Both","done","42","m160depth.wav","space","449.48913157","179","435817.721299","442706.537224","443473.657069","444223.940575","444991.33898","431181.406539","431948.312131","432716.062677","436585.287272","437352.425976","438119.700095","438886.925984","439654.070253","440404.717341","441171.854189","441939.080697","444233.838266","Mapping"
"Mixed","Both","done","42","m160park.wav","None","731.894838624","179","435817.721299","442706.537224","443473.657069","444223.940575","444991.33898","445758.32681","431948.312131","432716.062677","436585.287272","437352.425976","438119.700095","438886.925984","439654.070253","440404.717341","441171.854189","441939.080697","445000.568868","Mapping"
"Mixed","Both","done","42","m160dime.wav","None","728.950326331","179","435817.721299","442706.537224","443473.657069","444223.940575","444991.33898","445758.32681","446525.872069","432716.062677","436585.287272","437352.425976","438119.700095","438886.925984","439654.070253","440404.717341","441171.854189","441939.080697","445767.97964","Mapping"
"Mixed","Both","done","42","m150priest.wav","None","725.585347041","179","435817.721299","442706.537224","443473.657069","444223.940575","444991.33898","445758.32681","446525.872069","447292.842586","436585.287272","437352.425976","438119.700095","438886.925984","439654.070253","440404.717341","441171.854189","441939.080697","446535.774088","Mapping"
"Mixed","Both","cave","16","m150tile.wav","None","723.698806483","179","450395.35822","442706.537224","443473.657069","444223.940575","444991.33898","445758.32681","446525.872069","447292.842586","436585.287272","437352.425976","438119.700095","438886.925984","439654.070253","440404.717341","441171.854189","441939.080697","447302.878164","Mapping"
"Mixed","Both","cave","16","m150cave.wav","None","735.786330421","179","450395.35822","442706.537224","443473.657069","444223.940575","444991.33898","445758.32681","446525.872069","447292.842586","451163.106911","437352.425976","438119.700095","438886.925984","439654.070253","440404.717341","441171.854189","441939.080697","450405.158832","Mapping"
"Mixed","Both","cave","16","m150greet.wav","space","470.408645459","179","450395.35822","442706.537224","443473.657069","444223.940575","444991.33898","445758.32681","446525.872069","447292.842586","451163.106911","451929.738889","438119.700095","438886.925984","439654.070253","440404.717341","441171.854189","441939.080697","451172.656788","Mapping"
"Mixed","Both","cave","16","m150lash.wav","None","729.431391228","179","450395.35822","442706.537224","443473.657069","444223.940575","444991.33898","445758.32681","446525.872069","447292.842586","451163.106911","451929.738889","452697.078243","438886.925984","439654.070253","440404.717341","441171.854189","441939.080697","451939.614629","Mapping"
"Mixed","Both","cave","16","m150gnash.wav","None","726.995769423","179","450395.35822","442706.537224","443473.657069","444223.940575","444991.33898","445758.32681","446525.872069","447292.842586","451163.106911","451929.738889","452697.078243","453464.158205","439654.070253","440404.717341","441171.854189","441939.080697","452706.491777","Mapping"
"Mixed","Both","cave","16","m160greet.wav","None","724.388558883","179","450395.35822","442706.537224","443473.657069","444223.940575","444991.33898","445758.32681","446525.872069","447292.842586","451163.106911","451929.738889","452697.078243","453464.158205","454231.30371","440404.717341","441171.854189","441939.080697","453473.650267","Mapping"
"Mixed","Both","cave","16","m160park.wav","None","662.375420798","179","450395.35822","442706.537224","443473.657069","444223.940575","444991.33898","445758.32681","446525.872069","447292.842586","451163.106911","451929.738889","452697.078243","453464.158205","454231.30371","454981.91277","441171.854189","441939.080697","454300.596817","Mapping"
"Mixed","Both","cave","16","m160cave.wav","None","735.650605988","179","450395.35822","442706.537224","443473.657069","444223.940575","444991.33898","445758.32681","446525.872069","447292.842586","451163.106911","451929.738889","452697.078243","453464.158205","454231.30371","454981.91277","455749.215642","441939.080697","454991.75512","Mapping"
"Mixed","Both","cave","16","m160lash.wav","space","500.43438049","179","450395.35822","442706.537224","443473.657069","444223.940575","444991.33898","445758.32681","446525.872069","447292.842586","451163.106911","451929.738889","452697.078243","453464.158205","454231.30371","454981.91277","455749.215642","456516.167917","455758.476138","Mapping"
"Mixed","Both","cave","16","m150romp.wav","None","729.453960434","179","450395.35822","457283.90115","443473.657069","444223.940575","444991.33898","445758.32681","446525.872069","447292.842586","451163.106911","451929.738889","452697.078243","453464.158205","454231.30371","454981.91277","455749.215642","456516.167917","456525.220344","Mapping"
"Mixed","Both","cave","16","m160greet.wav","None","725.962222554","179","450395.35822","457283.90115","458050.576721","444223.940575","444991.33898","445758.32681","446525.872069","447292.842586","451163.106911","451929.738889","452697.078243","453464.158205","454231.30371","454981.91277","455749.215642","456516.167917","457293.934874","Mapping"
"Mixed","Both","cave","16","m160bluff.wav","None","724.190691952","179","450395.35822","457283.90115","458050.576721","458817.897215","444991.33898","445758.32681","446525.872069","447292.842586","451163.106911","451929.738889","452697.078243","453464.158205","454231.30371","454981.91277","455749.215642","456516.167917","458060.015297","Mapping"
"Mixed","Both","cave","16","m150cave.wav","None","721.961903386","179","450395.35822","457283.90115","458050.576721","458817.897215","459568.365913","445758.32681","446525.872069","447292.842586","451163.106911","451929.738889","452697.078243","453464.158205","454231.30371","454981.91277","455749.215642","456516.167917","458826.663661","Mapping"
"Mixed","Both","cave","16","m150bluff.wav","space","521.301954053","179","450395.35822","457283.90115","458050.576721","458817.897215","459568.365913","460336.318346","446525.872069","447292.842586","451163.106911","451929.738889","452697.078243","453464.158205","454231.30371","454981.91277","455749.215642","456516.167917","459577.463478","Mapping"
"Mixed","Both","cave","16","m160cave.wav","None","730.75524671","179","450395.35822","457283.90115","458050.576721","458817.897215","459568.365913","460336.318346","461102.782446","447292.842586","451163.106911","451929.738889","452697.078243","453464.158205","454231.30371","454981.91277","455749.215642","456516.167917","460345.581315","Mapping"
"Mixed","Both","cave","16","m160dime.wav","space","570.699510165","179","450395.35822","457283.90115","458050.576721","458817.897215","459568.365913","460336.318346","461102.782446","461870.160446","451163.106911","451929.738889","452697.078243","453464.158205","454231.30371","454981.91277","455749.215642","456516.167917","461112.015426","Mapping"
"Mixed","Both","done","40","m150tile.wav","None","724.262418691","179","464972.2451","457283.90115","458050.576721","458817.897215","459568.365913","460336.318346","461102.782446","461870.160446","451163.106911","451929.738889","452697.078243","453464.158205","454231.30371","454981.91277","455749.215642","456516.167917","461879.268522","Mapping"
"Mixed","Both","done","40","m160done.wav","None","736.295220442","179","464972.2451","457283.90115","458050.576721","458817.897215","459568.365913","460336.318346","461102.782446","461870.160446","465739.755424","451929.738889","452697.078243","453464.158205","454231.30371","454981.91277","455749.215642","456516.167917","464981.815073","Mapping"
"Mixed","Both","done","40","m160priest.wav","space","397.306284867","179","464972.2451","457283.90115","458050.576721","458817.897215","459568.365913","460336.318346","461102.782446","461870.160446","465739.755424","466506.963072","452697.078243","453464.158205","454231.30371","454981.91277","455749.215642","456516.167917","465749.241303","Mapping"
"Mixed","Both","done","40","m150done.wav","None","730.304171331","179","464972.2451","457283.90115","458050.576721","458817.897215","459568.365913","460336.318346","461102.782446","461870.160446","465739.755424","466506.963072","467273.976563","453464.158205","454231.30371","454981.91277","455749.215642","456516.167917","466516.139474","Mapping"
"Mixed","Both","done","40","m150knife.wav","space","471.378503833","179","464972.2451","457283.90115","458050.576721","458817.897215","459568.365913","460336.318346","461102.782446","461870.160446","465739.755424","466506.963072","467273.976563","468041.540063","454231.30371","454981.91277","455749.215642","456516.167917","467283.109682","Mapping"
"Mixed","Both","done","40","m150done.wav","None","723.095002584","179","464972.2451","457283.90115","458050.576721","458817.897215","459568.365913","460336.318346","461102.782446","461870.160446","465739.755424","466506.963072","467273.976563","468041.540063","468808.76657","454981.91277","455749.215642","456516.167917","468050.669471","Mapping"
"Mixed","Both","done","40","m160romp.wav","space","407.926190645","179","464972.2451","457283.90115","458050.576721","458817.897215","459568.365913","460336.318346","461102.782446","461870.160446","465739.755424","466506.963072","467273.976563","468041.540063","468808.76657","469559.049767","455749.215642","456516.167917","468818.507821","Mapping"
"Mixed","Both","done","40","m150knife.wav","None","733.860834967","179","464972.2451","457283.90115","458050.576721","458817.897215","459568.365913","460336.318346","461102.782446","461870.160446","465739.755424","466506.963072","467273.976563","468041.540063","468808.76657","469559.049767","470326.329142","456516.167917","469568.180722","Mapping"
"Mixed","Both","done","40","m160gnash.wav","None","731.049265247","179","464972.2451","457283.90115","458050.576721","458817.897215","459568.365913","460336.318346","461102.782446","461870.160446","465739.755424","466506.963072","467273.976563","468041.540063","468808.76657","469559.049767","470326.329142","471093.665095","470335.381259","Mapping"
"Mixed","Both","done","40","m160bluff.wav","None","728.021896444","179","464972.2451","471860.969821","458050.576721","458817.897215","459568.365913","460336.318346","461102.782446","461870.160446","465739.755424","466506.963072","467273.976563","468041.540063","468808.76657","469559.049767","470326.329142","471093.665095","471102.911987","Mapping"
"Mixed","Both","done","40","m160park.wav","None","724.774400238","179","464972.2451","471860.969821","472627.731341","458817.897215","459568.365913","460336.318346","461102.782446","461870.160446","465739.755424","466506.963072","467273.976563","468041.540063","468808.76657","469559.049767","470326.329142","471093.665095","471870.626361","Mapping"
"Mixed","Both","done","40","m150romp.wav","None","723.999008071","179","464972.2451","471860.969821","472627.731341","473395.380789","459568.365913","460336.318346","461102.782446","461870.160446","465739.755424","466506.963072","467273.976563","468041.540063","468808.76657","469559.049767","470326.329142","471093.665095","472636.56735","Mapping"
"Mixed","Both","done","40","m150jaw.wav","None","720.217888709","179","464972.2451","471860.969821","472627.731341","473395.380789","474145.69985","460336.318346","461102.782446","461870.160446","465739.755424","466506.963072","467273.976563","468041.540063","468808.76657","469559.049767","470326.329142","471093.665095","473404.803598","Mapping"
"Mixed","Both","done","40","m150greet.wav","None","734.227507841","179","464972.2451","471860.969821","472627.731341","473395.380789","474145.69985","474913.365684","461102.782446","461870.160446","465739.755424","466506.963072","467273.976563","468041.540063","468808.76657","469559.049767","470326.329142","471093.665095","474155.321763","Mapping"
