Condition,Talker,Target,Trial,current_stimulus,response_response,response_time_response,subject_nr,time_Audio1,time_Audio10,time_Audio11,time_Audio12,time_Audio13,time_Audio14,time_Audio15,time_Audio16,time_Audio2,time_Audio3,time_Audio4,time_Audio5,time_Audio6,time_Audio7,time_Audio8,time_Audio9,time_response,title
Blocked,m160,done,22,m160cave.wav,NA,NA,218,100298.1089,NA,NA,NA,NA,NA,NA,NA,NA,NA,NA,NA,NA,NA,NA,NA,NA,Mapping
Blocked,m160,done,22,m160reek.wav,None,715.5016337,218,100298.1089,NA,NA,NA,NA,NA,NA,NA,101047.101,NA,NA,NA,NA,NA,NA,NA,100312.02,Mapping
Blocked,m160,done,22,m160reek.wav,None,734.1856723,218,100298.1089,NA,NA,NA,NA,NA,NA,NA,101047.101,101813.5683,NA,NA,NA,NA,NA,NA,101056.9833,Mapping
Blocked,m160,done,22,m160done.wav,None,732.1303137,218,100298.1089,NA,NA,NA,NA,NA,NA,NA,101047.101,101813.5683,102580.6054,NA,NA,NA,NA,NA,101822.6375,Mapping
Blocked,m160,done,22,m160romp.wav,space,358.1570655,218,100298.1089,NA,NA,NA,NA,NA,NA,NA,101047.101,101813.5683,102580.6054,103347.2329,NA,NA,NA,NA,102589.7201,Mapping
Blocked,m160,done,22,m160gnash.wav,None,725.5613899,218,100298.1089,NA,NA,NA,NA,NA,NA,NA,101047.101,101813.5683,102580.6054,103347.2329,104114.4221,NA,NA,NA,103356.4387,Mapping
Blocked,m160,done,22,m160done.wav,None,721.2073563,218,100298.1089,NA,NA,NA,NA,NA,NA,NA,101047.101,101813.5683,102580.6054,103347.2329,104114.4221,104863.536,NA,NA,104124.399,Mapping
Blocked,m160,done,22,m160lash.wav,space,411.0092776,218,100298.1089,NA,NA,NA,NA,NA,NA,NA,101047.101,101813.5683,102580.6054,103347.2329,104114.4221,104863.536,105630.4667,NA,104872.7415,Mapping
Blocked,m160,done,22,m160done.wav,None,733.4408831,218,100298.1089,NA,NA,NA,NA,NA,NA,NA,101047.101,101813.5683,102580.6054,103347.2329,104114.4221,104863.536,105630.4667,106397.3202,105639.6348,Mapping
Blocked,m160,done,22,m160priest.wav,space,372.7820182,218,100298.1089,107163.8756,NA,NA,NA,NA,NA,NA,101047.101,101813.5683,102580.6054,103347.2329,104114.4221,104863.536,105630.4667,106397.3202,106406.9483,Mapping
Blocked,m160,done,22,m160reek.wav,None,727.1557769,218,100298.1089,107163.8756,107931.2407,NA,NA,NA,NA,NA,101047.101,101813.5683,102580.6054,103347.2329,104114.4221,104863.536,105630.4667,106397.3202,107172.9339,Mapping
Blocked,m160,done,22,m160depth.wav,None,722.6029473,218,100298.1089,107163.8756,107931.2407,108697.6381,NA,NA,NA,NA,101047.101,101813.5683,102580.6054,103347.2329,104114.4221,104863.536,105630.4667,106397.3202,107940.9647,Mapping
Blocked,m160,done,22,m160ball.wav,None,720.1778219,218,100298.1089,107163.8756,107931.2407,108697.6381,109447.3036,NA,NA,NA,101047.101,101813.5683,102580.6054,103347.2329,104114.4221,104863.536,105630.4667,106397.3202,108707.1281,Mapping
Blocked,m160,done,22,m160done.wav,None,733.885778,218,100298.1089,107163.8756,107931.2407,108697.6381,109447.3036,110213.7963,NA,NA,101047.101,101813.5683,102580.6054,103347.2329,104114.4221,104863.536,105630.4667,106397.3202,109456.886,Mapping
Blocked,m160,done,22,m160romp.wav,space,436.7782439,218,100298.1089,107163.8756,107931.2407,108697.6381,109447.3036,110213.7963,110980.3396,NA,101047.101,101813.5683,102580.6054,103347.2329,104114.4221,104863.536,105630.4667,106397.3202,110222.7894,Mapping
Blocked,m160,done,22,m160jaw.wav,None,728.8970194,218,100298.1089,107163.8756,107931.2407,108697.6381,109447.3036,110213.7963,110980.3396,111747.1696,101047.101,101813.5683,102580.6054,103347.2329,104114.4221,104863.536,105630.4667,106397.3202,110989.2023,Mapping
Blocked,m160,ball,6,m160cave.wav,None,725.6003453,218,114930.9467,107163.8756,107931.2407,108697.6381,109447.3036,110213.7963,110980.3396,111747.1696,101047.101,101813.5683,102580.6054,103347.2329,104114.4221,104863.536,105630.4667,106397.3202,111756.2585,Mapping
Blocked,m160,ball,6,m160lash.wav,None,720.2699544,218,114930.9467,107163.8756,107931.2407,108697.6381,109447.3036,110213.7963,110980.3396,111747.1696,115680.8039,101813.5683,102580.6054,103347.2329,104114.4221,104863.536,105630.4667,106397.3202,114941.1162,Mapping
Blocked,m160,ball,6,m160gnash.wav,None,736.1275658,218,114930.9467,107163.8756,107931.2407,108697.6381,109447.3036,110213.7963,110980.3396,111747.1696,115680.8039,116447.1166,102580.6054,103347.2329,104114.4221,104863.536,105630.4667,106397.3202,115689.7144,Mapping
Blocked,m160,ball,6,m160ball.wav,None,733.544764,218,114930.9467,107163.8756,107931.2407,108697.6381,109447.3036,110213.7963,110980.3396,111747.1696,115680.8039,116447.1166,117214.1858,103347.2329,104114.4221,104863.536,105630.4667,106397.3202,116456.3205,Mapping
Blocked,m160,ball,6,m160priest.wav,space,347.8617221,218,114930.9467,107163.8756,107931.2407,108697.6381,109447.3036,110213.7963,110980.3396,111747.1696,115680.8039,116447.1166,117214.1858,117980.4639,104114.4221,104863.536,105630.4667,106397.3202,117223.5744,Mapping
Blocked,m160,ball,6,m160depth.wav,None,727.5366737,218,114930.9467,107163.8756,107931.2407,108697.6381,109447.3036,110213.7963,110980.3396,111747.1696,115680.8039,116447.1166,117214.1858,117980.4639,118747.3884,104863.536,105630.4667,106397.3202,117989.5448,Mapping
Blocked,m160,ball,6,m160ball.wav,None,724.0504787,218,114930.9467,107163.8756,107931.2407,108697.6381,109447.3036,110213.7963,110980.3396,111747.1696,115680.8039,116447.1166,117214.1858,117980.4639,118747.3884,119514.0304,105630.4667,106397.3202,118756.7959,Mapping
Blocked,m160,ball,6,m160jolt.wav,space,375.9312184,218,114930.9467,107163.8756,107931.2407,108697.6381,109447.3036,110213.7963,110980.3396,111747.1696,115680.8039,116447.1166,117214.1858,117980.4639,118747.3884,119514.0304,120263.0949,106397.3202,119523.3862,Mapping
Blocked,m160,ball,6,m160depth.wav,None,736.3529503,218,114930.9467,107163.8756,107931.2407,108697.6381,109447.3036,110213.7963,110980.3396,111747.1696,115680.8039,116447.1166,117214.1858,117980.4639,118747.3884,119514.0304,120263.0949,121030.4158,120272.1606,Mapping
Blocked,m160,ball,6,m160jaw.wav,None,732.8265633,218,114930.9467,121796.9675,107931.2407,108697.6381,109447.3036,110213.7963,110980.3396,111747.1696,115680.8039,116447.1166,117214.1858,117980.4639,118747.3884,119514.0304,120263.0949,121030.4158,121039.4244,Mapping
Blocked,m160,ball,6,m160ball.wav,None,729.5453477,218,114930.9467,121796.9675,122563.564,108697.6381,109447.3036,110213.7963,110980.3396,111747.1696,115680.8039,116447.1166,117214.1858,117980.4639,118747.3884,119514.0304,120263.0949,121030.4158,121806.4615,Mapping
Blocked,m160,ball,6,m160cad.wav,space,374.6181757,218,114930.9467,121796.9675,122563.564,123330.7241,109447.3036,110213.7963,110980.3396,111747.1696,115680.8039,116447.1166,117214.1858,117980.4639,118747.3884,119514.0304,120263.0949,121030.4158,122572.6248,Mapping
Blocked,m160,ball,6,m160lash.wav,None,722.2730634,218,114930.9467,121796.9675,122563.564,123330.7241,124097.2622,110213.7963,110980.3396,111747.1696,115680.8039,116447.1166,117214.1858,117980.4639,118747.3884,119514.0304,120263.0949,121030.4158,123340.8695,Mapping
Blocked,m160,ball,6,m160tile.wav,None,720.5488253,218,114930.9467,121796.9675,122563.564,123330.7241,124097.2622,124846.4266,110980.3396,111747.1696,115680.8039,116447.1166,117214.1858,117980.4639,118747.3884,119514.0304,120263.0949,121030.4158,124106.7442,Mapping
Blocked,m160,ball,6,m160ball.wav,None,735.8165413,218,114930.9467,121796.9675,122563.564,123330.7241,124097.2622,124846.4266,125613.3564,111747.1696,115680.8039,116447.1166,117214.1858,117980.4639,118747.3884,119514.0304,120263.0949,121030.4158,124855.1659,Mapping
Blocked,m160,ball,6,m160lash.wav,space,444.747087,218,114930.9467,121796.9675,122563.564,123330.7241,124097.2622,124846.4266,125613.3564,126380.1291,115680.8039,116447.1166,117214.1858,117980.4639,118747.3884,119514.0304,120263.0949,121030.4158,125622.4089,Mapping
Blocked,m160,cave,12,m160park.wav,None,728.9780218,218,129513.6375,121796.9675,122563.564,123330.7241,124097.2622,124846.4266,125613.3564,126380.1291,115680.8039,116447.1166,117214.1858,117980.4639,118747.3884,119514.0304,120263.0949,121030.4158,126389.2608,Mapping
Blocked,m160,cave,12,m160cave.wav,None,719.8479381,218,129513.6375,121796.9675,122563.564,123330.7241,124097.2622,124846.4266,125613.3564,126380.1291,130263.2037,116447.1166,117214.1858,117980.4639,118747.3884,119514.0304,120263.0949,121030.4158,129523.7829,Mapping
Blocked,m160,cave,12,m160tile.wav,space,434.7531838,218,129513.6375,121796.9675,122563.564,123330.7241,124097.2622,124846.4266,125613.3564,126380.1291,130263.2037,131030.1919,117214.1858,117980.4639,118747.3884,119514.0304,120263.0949,121030.4158,130272.258,Mapping
Blocked,m160,cave,12,m160reek.wav,None,731.7042782,218,129513.6375,121796.9675,122563.564,123330.7241,124097.2622,124846.4266,125613.3564,126380.1291,130263.2037,131030.1919,131796.3185,117980.4639,118747.3884,119514.0304,120263.0949,121030.4158,131039.2596,Mapping
Blocked,m160,cave,12,m160cling.wav,None,729.3873621,218,129513.6375,121796.9675,122563.564,123330.7241,124097.2622,124846.4266,125613.3564,126380.1291,130263.2037,131030.1919,131796.3185,132563.3361,118747.3884,119514.0304,120263.0949,121030.4158,131805.1475,Mapping
Blocked,m160,cave,12,m160cave.wav,None,725.2763357,218,129513.6375,121796.9675,122563.564,123330.7241,124097.2622,124846.4266,125613.3564,126380.1291,130263.2037,131030.1919,131796.3185,132563.3361,133330.3797,119514.0304,120263.0949,121030.4158,132573.0972,Mapping
Blocked,m160,cave,12,m160bluff.wav,space,366.8425635,218,129513.6375,121796.9675,122563.564,123330.7241,124097.2622,124846.4266,125613.3564,126380.1291,130263.2037,131030.1919,131796.3185,132563.3361,133330.3797,134096.8087,120263.0949,121030.4158,133340.057,Mapping
Blocked,m160,cave,12,m160dime.wav,None,719.3081282,218,129513.6375,121796.9675,122563.564,123330.7241,124097.2622,124846.4266,125613.3564,126380.1291,130263.2037,131030.1919,131796.3185,132563.3361,133330.3797,134096.8087,134846.2367,121030.4158,134106.3357,Mapping
Blocked,m160,cave,12,m160cave.wav,None,734.3254169,218,129513.6375,121796.9675,122563.564,123330.7241,124097.2622,124846.4266,125613.3564,126380.1291,130263.2037,131030.1919,131796.3185,132563.3361,133330.3797,134096.8087,134846.2367,135613.003,134855.1553,Mapping
Blocked,m160,cave,12,m160greet.wav,space,373.0856226,218,129513.6375,136379.6233,122563.564,123330.7241,124097.2622,124846.4266,125613.3564,126380.1291,130263.2037,131030.1919,131796.3185,132563.3361,133330.3797,134096.8087,134846.2367,135613.003,135621.78,Mapping
Blocked,m160,cave,12,m160park.wav,None,728.3729771,218,129513.6375,136379.6233,137146.4792,123330.7241,124097.2622,124846.4266,125613.3564,126380.1291,130263.2037,131030.1919,131796.3185,132563.3361,133330.3797,134096.8087,134846.2367,135613.003,136388.6467,Mapping
Blocked,m160,cave,12,m160done.wav,None,725.1721456,218,129513.6375,136379.6233,137146.4792,137913.5061,124097.2622,124846.4266,125613.3564,126380.1291,130263.2037,131030.1919,131796.3185,132563.3361,133330.3797,134096.8087,134846.2367,135613.003,137155.7132,Mapping
Blocked,m160,cave,12,m160cave.wav,None,721.5100332,218,129513.6375,136379.6233,137146.4792,137913.5061,138663.3976,124846.4266,125613.3564,126380.1291,130263.2037,131030.1919,131796.3185,132563.3361,133330.3797,134096.8087,134846.2367,135613.003,137923.1757,Mapping
Blocked,m160,cave,12,m160romp.wav,space,442.3887423,218,129513.6375,136379.6233,137146.4792,137913.5061,138663.3976,139429.4417,125613.3564,126380.1291,130263.2037,131030.1919,131796.3185,132563.3361,133330.3797,134096.8087,134846.2367,135613.003,138672.3867,Mapping
Blocked,m160,cave,12,m160park.wav,None,733.8304366,218,129513.6375,136379.6233,137146.4792,137913.5061,138663.3976,139429.4417,140196.3678,126380.1291,130263.2037,131030.1919,131796.3185,132563.3361,133330.3797,134096.8087,134846.2367,135613.003,139438.2623,Mapping
Blocked,m160,cave,12,m160bluff.wav,None,730.4008197,218,129513.6375,136379.6233,137146.4792,137913.5061,138663.3976,139429.4417,140196.3678,140962.9204,130263.2037,131030.1919,131796.3185,132563.3361,133330.3797,134096.8087,134846.2367,135613.003,140205.4057,Mapping
Blocked,m160,tile,14,m160reek.wav,None,727.4695839,218,144096.7067,136379.6233,137146.4792,137913.5061,138663.3976,139429.4417,140196.3678,140962.9204,130263.2037,131030.1919,131796.3185,132563.3361,133330.3797,134096.8087,134846.2367,135613.003,140972.1562,Mapping
Blocked,m160,tile,14,m160bluff.wav,None,720.5225459,218,144096.7067,136379.6233,137146.4792,137913.5061,138663.3976,139429.4417,140196.3678,140962.9204,144846.0522,131030.1919,131796.3185,132563.3361,133330.3797,134096.8087,134846.2367,135613.003,144105.8847,Mapping
Blocked,m160,tile,14,m160bluff.wav,None,735.3469129,218,144096.7067,136379.6233,137146.4792,137913.5061,138663.3976,139429.4417,140196.3678,140962.9204,144846.0522,145612.777,131796.3185,132563.3361,133330.3797,134096.8087,134846.2367,135613.003,144855.1856,Mapping
Blocked,m160,tile,14,m160cling.wav,None,732.2335763,218,144096.7067,136379.6233,137146.4792,137913.5061,138663.3976,139429.4417,140196.3678,140962.9204,144846.0522,145612.777,146379.5228,132563.3361,133330.3797,134096.8087,134846.2367,135613.003,145622.2824,Mapping
Blocked,m160,tile,14,m160greet.wav,None,730.0477481,218,144096.7067,136379.6233,137146.4792,137913.5061,138663.3976,139429.4417,140196.3678,140962.9204,144846.0522,145612.777,146379.5228,147146.1599,133330.3797,134096.8087,134846.2367,135613.003,146388.5497,Mapping
Blocked,m160,tile,14,m160tile.wav,None,727.5626439,218,144096.7067,136379.6233,137146.4792,137913.5061,138663.3976,139429.4417,140196.3678,140962.9204,144846.0522,145612.777,146379.5228,147146.1599,147912.7746,134096.8087,134846.2367,135613.003,147155.17,Mapping
Blocked,m160,tile,14,m160cling.wav,space,408.7572871,218,144096.7067,136379.6233,137146.4792,137913.5061,138663.3976,139429.4417,140196.3678,140962.9204,144846.0522,145612.777,146379.5228,147146.1599,147912.7746,148679.7524,134846.2367,135613.003,147921.7266,Mapping
Blocked,m160,tile,14,m160greet.wav,None,720.6196251,218,144096.7067,136379.6233,137146.4792,137913.5061,138663.3976,139429.4417,140196.3678,140962.9204,144846.0522,145612.777,146379.5228,147146.1599,147912.7746,148679.7524,149429.4336,135613.003,148690.0523,Mapping
Blocked,m160,tile,14,m160done.wav,None,736.0725336,218,144096.7067,136379.6233,137146.4792,137913.5061,138663.3976,139429.4417,140196.3678,140962.9204,144846.0522,145612.777,146379.5228,147146.1599,147912.7746,148679.7524,149429.4336,150195.8533,149438.5776,Mapping
Blocked,m160,tile,14,m160tile.wav,None,734.0239767,218,144096.7067,150962.6597,137146.4792,137913.5061,138663.3976,139429.4417,140196.3678,140962.9204,144846.0522,145612.777,146379.5228,147146.1599,147912.7746,148679.7524,149429.4336,150195.8533,150204.7011,Mapping
Blocked,m160,tile,14,m160jaw.wav,space,358.7676752,218,144096.7067,150962.6597,151729.3765,137913.5061,138663.3976,139429.4417,140196.3678,140962.9204,144846.0522,145612.777,146379.5228,147146.1599,147912.7746,148679.7524,149429.4336,150195.8533,150971.6396,Mapping
Blocked,m160,tile,14,m160tile.wav,None,727.6105652,218,144096.7067,150962.6597,151729.3765,152496.0575,138663.3976,139429.4417,140196.3678,140962.9204,144846.0522,145612.777,146379.5228,147146.1599,147912.7746,148679.7524,149429.4336,150195.8533,151738.5852,Mapping
Blocked,m160,tile,14,m160depth.wav,space,376.8890255,218,144096.7067,150962.6597,151729.3765,152496.0575,153263.0006,139429.4417,140196.3678,140962.9204,144846.0522,145612.777,146379.5228,147146.1599,147912.7746,148679.7524,149429.4336,150195.8533,152505.4732,Mapping
Blocked,m160,tile,14,m160greet.wav,None,721.6630721,218,144096.7067,150962.6597,151729.3765,152496.0575,153263.0006,154029.7866,140196.3678,140962.9204,144846.0522,145612.777,146379.5228,147146.1599,147912.7746,148679.7524,149429.4336,150195.8533,153272.4952,Mapping
Blocked,m160,tile,14,m160tile.wav,None,718.915483,218,144096.7067,150962.6597,151729.3765,152496.0575,153263.0006,154029.7866,154779.3535,140962.9204,144846.0522,145612.777,146379.5228,147146.1599,147912.7746,148679.7524,149429.4336,150195.8533,154039.3885,Mapping
Blocked,m160,tile,14,m160lash.wav,space,453.8069892,218,144096.7067,150962.6597,151729.3765,152496.0575,153263.0006,154029.7866,154779.3535,155546.0063,144846.0522,145612.777,146379.5228,147146.1599,147912.7746,148679.7524,149429.4336,150195.8533,154788.4424,Mapping
Blocked,m160,ball,4,m160reek.wav,None,730.43792,218,158679.4815,150962.6597,151729.3765,152496.0575,153263.0006,154029.7866,154779.3535,155546.0063,144846.0522,145612.777,146379.5228,147146.1599,147912.7746,148679.7524,149429.4336,150195.8533,155555.3438,Mapping
Blocked,m160,ball,4,m160ball.wav,None,719.2150682,218,158679.4815,150962.6597,151729.3765,152496.0575,153263.0006,154029.7866,154779.3535,155546.0063,159428.8088,145612.777,146379.5228,147146.1599,147912.7746,148679.7524,149429.4336,150195.8533,158689.3805,Mapping
Blocked,m160,ball,4,m160dime.wav,space,364.5720229,218,158679.4815,150962.6597,151729.3765,152496.0575,153263.0006,154029.7866,154779.3535,155546.0063,159428.8088,160195.9052,146379.5228,147146.1599,147912.7746,148679.7524,149429.4336,150195.8533,159437.5298,Mapping
Blocked,m160,ball,4,m160ball.wav,None,730.268186,218,158679.4815,150962.6597,151729.3765,152496.0575,153263.0006,154029.7866,154779.3535,155546.0063,159428.8088,160195.9052,160962.4201,147146.1599,147912.7746,148679.7524,149429.4336,150195.8533,160205.6438,Mapping
Blocked,m160,ball,4,m160bluff.wav,space,310.6466836,218,158679.4815,150962.6597,151729.3765,152496.0575,153263.0006,154029.7866,154779.3535,155546.0063,159428.8088,160195.9052,160962.4201,161729.3076,147912.7746,148679.7524,149429.4336,150195.8533,160971.4417,Mapping
Blocked,m160,ball,4,m160cad.wav,None,725.0157058,218,158679.4815,150962.6597,151729.3765,152496.0575,153263.0006,154029.7866,154779.3535,155546.0063,159428.8088,160195.9052,160962.4201,161729.3076,162496.0201,148679.7524,149429.4336,150195.8533,161738.3279,Mapping
Blocked,m160,ball,4,m160tile.wav,None,721.4556193,218,158679.4815,150962.6597,151729.3765,152496.0575,153263.0006,154029.7866,154779.3535,155546.0063,159428.8088,160195.9052,160962.4201,161729.3076,162496.0201,163262.5164,149429.4336,150195.8533,162505.9744,Mapping
Blocked,m160,ball,4,m160tile.wav,None,719.8698891,218,158679.4815,150962.6597,151729.3765,152496.0575,153263.0006,154029.7866,154779.3535,155546.0063,159428.8088,160195.9052,160962.4201,161729.3076,162496.0201,163262.5164,164012.1708,150195.8533,163271.8846,Mapping
Blocked,m160,ball,4,m160priest.wav,None,734.4657799,218,158679.4815,150962.6597,151729.3765,152496.0575,153263.0006,154029.7866,154779.3535,155546.0063,159428.8088,160195.9052,160962.4201,161729.3076,162496.0201,163262.5164,164012.1708,164779.0128,164021.2236,Mapping
Blocked,m160,ball,4,m160ball.wav,None,731.5329983,218,158679.4815,165545.6257,151729.3765,152496.0575,153263.0006,154029.7866,154779.3535,155546.0063,159428.8088,160195.9052,160962.4201,161729.3076,162496.0201,163262.5164,164012.1708,164779.0128,164788.2183,Mapping
Blocked,m160,ball,4,m160cave.wav,space,343.0835079,218,158679.4815,165545.6257,166312.2108,152496.0575,153263.0006,154029.7866,154779.3535,155546.0063,159428.8088,160195.9052,160962.4201,161729.3076,162496.0201,163262.5164,164012.1708,164779.0128,165554.8828,Mapping
Blocked,m160,ball,4,m160ball.wav,None,726.097799,218,158679.4815,165545.6257,166312.2108,167079.4535,153263.0006,154029.7866,154779.3535,155546.0063,159428.8088,160195.9052,160962.4201,161729.3076,162496.0201,163262.5164,164012.1708,164779.0128,166321.288,Mapping
Blocked,m160,ball,4,m160romp.wav,space,376.6726068,218,158679.4815,165545.6257,166312.2108,167079.4535,167845.9272,154029.7866,154779.3535,155546.0063,159428.8088,160195.9052,160962.4201,161729.3076,162496.0201,163262.5164,164012.1708,164779.0128,167089.201,Mapping
Blocked,m160,ball,4,m160cave.wav,None,719.5483529,218,158679.4815,165545.6257,166312.2108,167079.4535,167845.9272,168595.5232,154779.3535,155546.0063,159428.8088,160195.9052,160962.4201,161729.3076,162496.0201,163262.5164,164012.1708,164779.0128,167855.3102,Mapping
Blocked,m160,ball,4,m160lash.wav,None,733.8996906,218,158679.4815,165545.6257,166312.2108,167079.4535,167845.9272,168595.5232,169362.1651,155546.0063,159428.8088,160195.9052,160962.4201,161729.3076,162496.0201,163262.5164,164012.1708,164779.0128,168605.0017,Mapping
Blocked,m160,ball,4,m160cad.wav,None,731.7509628,218,158679.4815,165545.6257,166312.2108,167079.4535,167845.9272,168595.5232,169362.1651,170128.7932,159428.8088,160195.9052,160962.4201,161729.3076,162496.0201,163262.5164,164012.1708,164779.0128,169371.1595,Mapping
Blocked,m160,done,24,m160cad.wav,None,729.1016895,218,173262.291,165545.6257,166312.2108,167079.4535,167845.9272,168595.5232,169362.1651,170128.7932,159428.8088,160195.9052,160962.4201,161729.3076,162496.0201,163262.5164,164012.1708,164779.0128,170137.8633,Mapping
Blocked,m160,done,24,m160done.wav,None,720.4511277,218,173262.291,165545.6257,166312.2108,167079.4535,167845.9272,168595.5232,169362.1651,170128.7932,174011.7617,160195.9052,160962.4201,161729.3076,162496.0201,163262.5164,164012.1708,164779.0128,173271.9146,Mapping
Blocked,m160,done,24,m160gnash.wav,space,349.0211076,218,173262.291,165545.6257,166312.2108,167079.4535,167845.9272,168595.5232,169362.1651,170128.7932,174011.7617,174778.7361,160962.4201,161729.3076,162496.0201,163262.5164,164012.1708,164779.0128,174020.6936,Mapping
Blocked,m160,done,24,m160reek.wav,None,732.3374572,218,173262.291,165545.6257,166312.2108,167079.4535,167845.9272,168595.5232,169362.1651,170128.7932,174011.7617,174778.7361,175545.3128,161729.3076,162496.0201,163262.5164,164012.1708,164779.0128,174787.8012,Mapping
Blocked,m160,done,24,m160priest.wav,None,729.208353,218,173262.291,165545.6257,166312.2108,167079.4535,167845.9272,168595.5232,169362.1651,170128.7932,174011.7617,174778.7361,175545.3128,176311.999,162496.0201,163262.5164,164012.1708,164779.0128,175554.9703,Mapping
Blocked,m160,done,24,m160ball.wav,None,727.2608945,218,173262.291,165545.6257,166312.2108,167079.4535,167845.9272,168595.5232,169362.1651,170128.7932,174011.7617,174778.7361,175545.3128,176311.999,177079.2083,163262.5164,164012.1708,164779.0128,176320.9921,Mapping
Blocked,m160,done,24,m160done.wav,None,723.691533,218,173262.291,165545.6257,166312.2108,167079.4535,167845.9272,168595.5232,169362.1651,170128.7932,174011.7617,174778.7361,175545.3128,176311.999,177079.2083,177845.5921,164012.1708,164779.0128,177088.6976,Mapping
Blocked,m160,done,24,m160jolt.wav,space,362.0946479,218,173262.291,165545.6257,166312.2108,167079.4535,167845.9272,168595.5232,169362.1651,170128.7932,174011.7617,174778.7361,175545.3128,176311.999,177079.2083,177845.5921,178594.9339,164779.0128,177855.5127,Mapping
Blocked,m160,done,24,m160reek.wav,None,735.3082667,218,173262.291,165545.6257,166312.2108,167079.4535,167845.9272,168595.5232,169362.1651,170128.7932,174011.7617,174778.7361,175545.3128,176311.999,177079.2083,177845.5921,178594.9339,179361.8149,178604.6959,Mapping
Blocked,m160,done,24,m160jaw.wav,None,733.2482705,218,173262.291,180128.5128,166312.2108,167079.4535,167845.9272,168595.5232,169362.1651,170128.7932,174011.7617,174778.7361,175545.3128,176311.999,177079.2083,177845.5921,178594.9339,179361.8149,179370.8426,Mapping
Blocked,m160,done,24,m160done.wav,None,735.9154755,218,173262.291,180128.5128,180895.1507,167079.4535,167845.9272,168595.5232,169362.1651,170128.7932,174011.7617,174778.7361,175545.3128,176311.999,177079.2083,177845.5921,178594.9339,179361.8149,180132.3861,Mapping
Blocked,m160,done,24,m160cling.wav,space,312.854772,218,173262.291,180128.5128,180895.1507,181661.3416,167845.9272,168595.5232,169362.1651,170128.7932,174011.7617,174778.7361,175545.3128,176311.999,177079.2083,177845.5921,178594.9339,179361.8149,180904.6797,Mapping
Blocked,m160,done,24,m160done.wav,None,727.8381139,218,173262.291,180128.5128,180895.1507,181661.3416,182429.0861,168595.5232,169362.1651,170128.7932,174011.7617,174778.7361,175545.3128,176311.999,177079.2083,177845.5921,178594.9339,179361.8149,181669.9579,Mapping
Blocked,m160,done,24,m160cave.wav,space,450.7619791,218,173262.291,180128.5128,180895.1507,181661.3416,182429.0861,183195.4276,169362.1651,170128.7932,174011.7617,174778.7361,175545.3128,176311.999,177079.2083,177845.5921,178594.9339,179361.8149,182438.6642,Mapping
Blocked,m160,done,24,m160jaw.wav,None,720.7272161,218,173262.291,180128.5128,180895.1507,181661.3416,182429.0861,183195.4276,183944.8383,170128.7932,174011.7617,174778.7361,175545.3128,176311.999,177079.2083,177845.5921,178594.9339,179361.8149,183204.818,Mapping
Blocked,m160,done,24,m160gnash.wav,None,735.3679364,218,173262.291,180128.5128,180895.1507,181661.3416,182429.0861,183195.4276,183944.8383,184711.68,174011.7617,174778.7361,175545.3128,176311.999,177079.2083,177845.5921,178594.9339,179361.8149,183954.3895,Mapping
Blocked,m160,tile,16,m160park.wav,None,733.0185576,218,187845.3472,180128.5128,180895.1507,181661.3416,182429.0861,183195.4276,183944.8383,184711.68,174011.7617,174778.7361,175545.3128,176311.999,177079.2083,177845.5921,178594.9339,179361.8149,184720.769,Mapping
Blocked,m160,tile,16,m160cave.wav,None,720.061265,218,187845.3472,180128.5128,180895.1507,181661.3416,182429.0861,183195.4276,183944.8383,184711.68,188594.5085,174778.7361,175545.3128,176311.999,177079.2083,177845.5921,178594.9339,179361.8149,187854.9906,Mapping
Blocked,m160,tile,16,m160romp.wav,None,736.0443992,218,187845.3472,180128.5128,180895.1507,181661.3416,182429.0861,183195.4276,183944.8383,184711.68,188594.5085,189361.5035,175545.3128,176311.999,177079.2083,177845.5921,178594.9339,179361.8149,188603.3523,Mapping
Blocked,m160,tile,16,m160jaw.wav,None,737.8156311,218,187845.3472,180128.5128,180895.1507,181661.3416,182429.0861,183195.4276,183944.8383,184711.68,188594.5085,189361.5035,190128.1999,176311.999,177079.2083,177845.5921,178594.9339,179361.8149,189365.7886,Mapping
Blocked,m160,tile,16,m160tile.wav,None,730.5634428,218,187845.3472,180128.5128,180895.1507,181661.3416,182429.0861,183195.4276,183944.8383,184711.68,188594.5085,189361.5035,190128.1999,190894.7695,177079.2083,177845.5921,178594.9339,179361.8149,190137.3328,Mapping
Blocked,m160,tile,16,m160knife.wav,space,281.2109674,218,187845.3472,180128.5128,180895.1507,181661.3416,182429.0861,183195.4276,183944.8383,184711.68,188594.5085,189361.5035,190128.1999,190894.7695,191661.3154,177845.5921,178594.9339,179361.8149,190904.0063,Mapping
Blocked,m160,tile,16,m160tile.wav,None,724.9108974,218,187845.3472,180128.5128,180895.1507,181661.3416,182429.0861,183195.4276,183944.8383,184711.68,188594.5085,189361.5035,190128.1999,190894.7695,191661.3154,192428.3973,178594.9339,179361.8149,191670.7357,Mapping
Blocked,m160,tile,16,m160jaw.wav,space,386.9568202,218,187845.3472,180128.5128,180895.1507,181661.3416,182429.0861,183195.4276,183944.8383,184711.68,188594.5085,189361.5035,190128.1999,190894.7695,191661.3154,192428.3973,193178.4628,179361.8149,192438.155,Mapping
Blocked,m160,tile,16,m160romp.wav,None,736.184453,218,187845.3472,180128.5128,180895.1507,181661.3416,182429.0861,183195.4276,183944.8383,184711.68,188594.5085,189361.5035,190128.1999,190894.7695,191661.3154,192428.3973,193178.4628,193944.697,193187.3765,Mapping
Blocked,m160,tile,16,m160cling.wav,None,733.8477501,218,187845.3472,194711.3773,180895.1507,181661.3416,182429.0861,183195.4276,183944.8383,184711.68,188594.5085,189361.5035,190128.1999,190894.7695,191661.3154,192428.3973,193178.4628,193944.697,193953.8407,Mapping
Blocked,m160,tile,16,m160jaw.wav,None,730.6744347,218,187845.3472,194711.3773,195478.0184,181661.3416,182429.0861,183195.4276,183944.8383,184711.68,188594.5085,189361.5035,190128.1999,190894.7695,191661.3154,192428.3973,193178.4628,193944.697,194721.3057,Mapping
Blocked,m160,tile,16,m160tile.wav,None,734.6237655,218,187845.3472,194711.3773,195478.0184,196244.7454,182429.0861,183195.4276,183944.8383,184711.68,188594.5085,189361.5035,190128.1999,190894.7695,191661.3154,192428.3973,193178.4628,193944.697,195481.704,Mapping
Blocked,m160,tile,16,m160ball.wav,space,530.8854119,218,187845.3472,194711.3773,195478.0184,196244.7454,197011.6467,183195.4276,183944.8383,184711.68,188594.5085,189361.5035,190128.1999,190894.7695,191661.3154,192428.3973,193178.4628,193944.697,196254.1596,Mapping
Blocked,m160,tile,16,m160greet.wav,None,723.2290154,218,187845.3472,194711.3773,195478.0184,196244.7454,197011.6467,197778.3215,183944.8383,184711.68,188594.5085,189361.5035,190128.1999,190894.7695,191661.3154,192428.3973,193178.4628,193944.697,197021.2118,Mapping
Blocked,m160,tile,16,m160tile.wav,None,720.7850308,218,187845.3472,194711.3773,195478.0184,196244.7454,197011.6467,197778.3215,198527.4895,184711.68,188594.5085,189361.5035,190128.1999,190894.7695,191661.3154,192428.3973,193178.4628,193944.697,197787.9873,Mapping
Blocked,m160,tile,16,m160cling.wav,space,464.564541,218,187845.3472,194711.3773,195478.0184,196244.7454,197011.6467,197778.3215,198527.4895,199294.5816,188594.5085,189361.5035,190128.1999,190894.7695,191661.3154,192428.3973,193178.4628,193944.697,198536.3583,Mapping
Blocked,m160,done,21,m160romp.wav,None,733.0207218,218,202428.4192,194711.3773,195478.0184,196244.7454,197011.6467,197778.3215,198527.4895,199294.5816,188594.5085,189361.5035,190128.1999,190894.7695,191661.3154,192428.3973,193178.4628,193944.697,199303.7238,Mapping
Blocked,m160,done,21,m160tile.wav,None,719.8157845,218,202428.4192,194711.3773,195478.0184,196244.7454,197011.6467,197778.3215,198527.4895,199294.5816,203177.6565,189361.5035,190128.1999,190894.7695,191661.3154,192428.3973,193178.4628,193944.697,202438.5856,Mapping
Blocked,m160,done,21,m160lash.wav,None,736.0100814,218,202428.4192,194711.3773,195478.0184,196244.7454,197011.6467,197778.3215,198527.4895,199294.5816,203177.6565,203944.3517,190128.1999,190894.7695,191661.3154,192428.3973,193178.4628,193944.697,203186.6397,Mapping
Blocked,m160,done,21,m160bluff.wav,None,733.7840612,218,202428.4192,194711.3773,195478.0184,196244.7454,197011.6467,197778.3215,198527.4895,199294.5816,203177.6565,203944.3517,204711.0344,190894.7695,191661.3154,192428.3973,193178.4628,193944.697,203953.1512,Mapping
Blocked,m160,done,21,m160done.wav,None,731.0859392,218,202428.4192,194711.3773,195478.0184,196244.7454,197011.6467,197778.3215,198527.4895,199294.5816,203177.6565,203944.3517,204711.0344,205477.5524,191661.3154,192428.3973,193178.4628,193944.697,204720.1138,Mapping
Blocked,m160,done,21,m160park.wav,space,338.0641415,218,202428.4192,194711.3773,195478.0184,196244.7454,197011.6467,197778.3215,198527.4895,199294.5816,203177.6565,203944.3517,204711.0344,205477.5524,206244.392,192428.3973,193178.4628,193944.697,205486.6324,Mapping
Blocked,m160,done,21,m160done.wav,None,725.351773,218,202428.4192,194711.3773,195478.0184,196244.7454,197011.6467,197778.3215,198527.4895,199294.5816,203177.6565,203944.3517,204711.0344,205477.5524,206244.392,207011.405,193178.4628,193944.697,206253.5214,Mapping
Blocked,m160,done,21,m160lash.wav,space,315.9118397,218,202428.4192,194711.3773,195478.0184,196244.7454,197011.6467,197778.3215,198527.4895,199294.5816,203177.6565,203944.3517,204711.0344,205477.5524,206244.392,207011.405,207778.1452,193944.697,207020.7845,Mapping
Blocked,m160,done,21,m160cling.wav,None,710.8690383,218,202428.4192,194711.3773,195478.0184,196244.7454,197011.6467,197778.3215,198527.4895,199294.5816,203177.6565,203944.3517,204711.0344,205477.5524,206244.392,207011.405,207778.1452,208527.5832,207795.797,Mapping
Blocked,m160,done,21,m160romp.wav,None,734.3600439,218,202428.4192,209294.3995,195478.0184,196244.7454,197011.6467,197778.3215,198527.4895,199294.5816,203177.6565,203944.3517,204711.0344,205477.5524,206244.392,207011.405,207778.1452,208527.5832,208536.6323,Mapping
Blocked,m160,done,21,m160gnash.wav,None,731.1248946,218,202428.4192,209294.3995,210060.783,196244.7454,197011.6467,197778.3215,198527.4895,199294.5816,203177.6565,203944.3517,204711.0344,205477.5524,206244.392,207011.405,207778.1452,208527.5832,209303.9201,Mapping
Blocked,m160,done,21,m160romp.wav,None,729.4767121,218,202428.4192,209294.3995,210060.783,210827.5561,197011.6467,197778.3215,198527.4895,199294.5816,203177.6565,203944.3517,204711.0344,205477.5524,206244.392,207011.405,207778.1452,208527.5832,210069.8179,Mapping
Blocked,m160,done,21,m160done.wav,None,726.7300505,218,202428.4192,209294.3995,210060.783,210827.5561,211594.6532,197778.3215,198527.4895,199294.5816,203177.6565,203944.3517,204711.0344,205477.5524,206244.392,207011.405,207778.1452,208527.5832,210836.7261,Mapping
Blocked,m160,done,21,m160lash.wav,space,387.4001692,218,202428.4192,209294.3995,210060.783,210827.5561,211594.6532,212361.2033,198527.4895,199294.5816,203177.6565,203944.3517,204711.0344,205477.5524,206244.392,207011.405,207778.1452,208527.5832,211605.1448,Mapping
Blocked,m160,done,21,m160done.wav,None,720.4028973,218,202428.4192,209294.3995,210060.783,210827.5561,211594.6532,212361.2033,213127.0544,199294.5816,203177.6565,203944.3517,204711.0344,205477.5524,206244.392,207011.405,207778.1452,208527.5832,212370.7903,Mapping
Blocked,m160,done,21,m160knife.wav,space,336.1036979,218,202428.4192,209294.3995,210060.783,210827.5561,211594.6532,212361.2033,213127.0544,213877.1231,203177.6565,203944.3517,204711.0344,205477.5524,206244.392,207011.405,207778.1452,208527.5832,213136.4065,Mapping
Blocked,m160,tile,17,m160jaw.wav,None,735.5518922,218,217011.1394,209294.3995,210060.783,210827.5561,211594.6532,212361.2033,213127.0544,213877.1231,203177.6565,203944.3517,204711.0344,205477.5524,206244.392,207011.405,207778.1452,208527.5832,213886.1505,Mapping
Blocked,m160,tile,17,m160jaw.wav,None,720.4338142,218,217011.1394,209294.3995,210060.783,210827.5561,211594.6532,212361.2033,213127.0544,213877.1231,217760.2375,203944.3517,204711.0344,205477.5524,206244.392,207011.405,207778.1452,208527.5832,217020.7542,Mapping
Blocked,m160,tile,17,m160tile.wav,None,735.5157194,218,217011.1394,209294.3995,210060.783,210827.5561,211594.6532,212361.2033,213127.0544,213877.1231,217760.2375,218527.3961,204711.0344,205477.5524,206244.392,207011.405,207778.1452,208527.5832,217770.1285,Mapping
Blocked,m160,tile,17,m160ball.wav,space,399.7425237,218,217011.1394,209294.3995,210060.783,210827.5561,211594.6532,212361.2033,213127.0544,213877.1231,217760.2375,218527.3961,219293.822,205477.5524,206244.392,207011.405,207778.1452,208527.5832,218536.5998,Mapping
Blocked,m160,tile,17,m160gnash.wav,None,730.2895187,218,217011.1394,209294.3995,210060.783,210827.5561,211594.6532,212361.2033,213127.0544,213877.1231,217760.2375,218527.3961,219293.822,220060.6155,206244.392,207011.405,207778.1452,208527.5832,219303.1688,Mapping
Blocked,m160,tile,17,m160priest.wav,None,727.6980601,218,217011.1394,209294.3995,210060.783,210827.5561,211594.6532,212361.2033,213127.0544,213877.1231,217760.2375,218527.3961,219293.822,220060.6155,220827.3545,207011.405,207778.1452,208527.5832,220070.23,Mapping
Blocked,m160,tile,17,m160tile.wav,None,725.9200265,218,217011.1394,209294.3995,210060.783,210827.5561,211594.6532,212361.2033,213127.0544,213877.1231,217760.2375,218527.3961,219293.822,220060.6155,220827.3545,221594.2979,207778.1452,208527.5832,220836.4592,Mapping
Blocked,m160,tile,17,m160reek.wav,space,388.2506944,218,217011.1394,209294.3995,210060.783,210827.5561,211594.6532,212361.2033,213127.0544,213877.1231,217760.2375,218527.3961,219293.822,220060.6155,220827.3545,221594.2979,222360.986,208527.5832,221604.0198,Mapping
Blocked,m160,tile,17,m160tile.wav,None,719.4361244,218,217011.1394,209294.3995,210060.783,210827.5561,211594.6532,212361.2033,213127.0544,213877.1231,217760.2375,218527.3961,219293.822,220060.6155,220827.3545,221594.2979,222360.986,223110.2891,222371.1311,Mapping
Blocked,m160,tile,17,m160priest.wav,space,376.6905387,218,217011.1394,223877.1895,210060.783,210827.5561,211594.6532,212361.2033,213127.0544,213877.1231,217760.2375,218527.3961,219293.822,220060.6155,220827.3545,221594.2979,222360.986,223110.2891,223119.5824,Mapping
Blocked,m160,tile,17,m160done.wav,None,732.1204203,218,217011.1394,223877.1895,224643.7555,210827.5561,211594.6532,212361.2033,213127.0544,213877.1231,217760.2375,218527.3961,219293.822,220060.6155,220827.3545,221594.2979,222360.986,223110.2891,223886.5231,Mapping
Blocked,m160,tile,17,m160greet.wav,None,729.8925451,218,217011.1394,223877.1895,224643.7555,225410.3279,211594.6532,212361.2033,213127.0544,213877.1231,217760.2375,218527.3961,219293.822,220060.6155,220827.3545,221594.2979,222360.986,223110.2891,224653.2828,Mapping
Blocked,m160,tile,17,m160done.wav,None,728.1268782,218,217011.1394,223877.1895,224643.7555,225410.3279,226177.0975,212361.2033,213127.0544,213877.1231,217760.2375,218527.3961,219293.822,220060.6155,220827.3545,221594.2979,222360.986,223110.2891,225419.6911,Mapping
Blocked,m160,tile,17,m160lash.wav,None,731.1610674,218,217011.1394,223877.1895,224643.7555,225410.3279,226177.0975,226943.8032,213127.0544,213877.1231,217760.2375,218527.3961,219293.822,220060.6155,220827.3545,221594.2979,222360.986,223110.2891,226181.1387,Mapping
Blocked,m160,tile,17,m160tile.wav,None,723.9966832,218,217011.1394,223877.1895,224643.7555,225410.3279,226177.0975,226943.8032,227710.7182,213877.1231,217760.2375,218527.3961,219293.822,220060.6155,220827.3545,221594.2979,222360.986,223110.2891,226952.9327,Mapping
Blocked,m160,tile,17,m160done.wav,space,455.1528039,218,217011.1394,223877.1895,224643.7555,225410.3279,226177.0975,226943.8032,227710.7182,228459.9956,217760.2375,218527.3961,219293.822,220060.6155,220827.3545,221594.2979,222360.986,223110.2891,227720.9223,Mapping
Blocked,m160,ball,2,m160jolt.wav,None,735.908983,218,231593.5912,223877.1895,224643.7555,225410.3279,226177.0975,226943.8032,227710.7182,228459.9956,217760.2375,218527.3961,219293.822,220060.6155,220827.3545,221594.2979,222360.986,223110.2891,228469.3044,Mapping
Blocked,m160,ball,2,m160romp.wav,None,720.7058834,218,231593.5912,223877.1895,224643.7555,225410.3279,226177.0975,226943.8032,227710.7182,228459.9956,232343.3525,218527.3961,219293.822,220060.6155,220827.3545,221594.2979,222360.986,223110.2891,231603.002,Mapping
Blocked,m160,ball,2,m160done.wav,None,735.3750473,218,231593.5912,223877.1895,224643.7555,225410.3279,226177.0975,226943.8032,227710.7182,228459.9956,232343.3525,233110.1929,219293.822,220060.6155,220827.3545,221594.2979,222360.986,223110.2891,232352.7522,Mapping
Blocked,m160,ball,2,m160tile.wav,None,732.6432259,218,231593.5912,223877.1895,224643.7555,225410.3279,226177.0975,226943.8032,227710.7182,228459.9956,232343.3525,233110.1929,233876.6482,220060.6155,220827.3545,221594.2979,222360.986,223110.2891,233119.8613,Mapping
Blocked,m160,ball,2,m160ball.wav,None,731.1919843,218,231593.5912,223877.1895,224643.7555,225410.3279,226177.0975,226943.8032,227710.7182,228459.9956,232343.3525,233110.1929,233876.6482,234643.5149,220827.3545,221594.2979,222360.986,223110.2891,233885.9295,Mapping
Blocked,m160,ball,2,m160gnash.wav,space,362.8722091,218,231593.5912,223877.1895,224643.7555,225410.3279,226177.0975,226943.8032,227710.7182,228459.9956,232343.3525,233110.1929,233876.6482,234643.5149,235410.0308,221594.2979,222360.986,223110.2891,234653.0305,Mapping
Blocked,m160,ball,2,m160ball.wav,None,725.8993122,218,231593.5912,223877.1895,224643.7555,225410.3279,226177.0975,226943.8032,227710.7182,228459.9956,232343.3525,233110.1929,233876.6482,234643.5149,235410.0308,236177.2091,222360.986,223110.2891,235419.1955,Mapping
Blocked,m160,ball,2,m160cave.wav,space,396.6863834,218,231593.5912,223877.1895,224643.7555,225410.3279,226177.0975,226943.8032,227710.7182,228459.9956,232343.3525,233110.1929,233876.6482,234643.5149,235410.0308,236177.2091,236943.9918,223110.2891,236187.1687,Mapping
Blocked,m160,ball,2,m160tile.wav,None,719.0023596,218,231593.5912,223877.1895,224643.7555,225410.3279,226177.0975,226943.8032,227710.7182,228459.9956,232343.3525,233110.1929,233876.6482,234643.5149,235410.0308,236177.2091,236943.9918,237693.3098,236954.0642,Mapping
Blocked,m160,ball,2,m160dime.wav,None,734.7996829,218,231593.5912,238459.9004,224643.7555,225410.3279,226177.0975,226943.8032,227710.7182,228459.9956,232343.3525,233110.1929,233876.6482,234643.5149,235410.0308,236177.2091,236943.9918,237693.3098,237702.7104,Mapping
Blocked,m160,ball,2,m160ball.wav,None,732.9131308,218,231593.5912,238459.9004,239226.7164,225410.3279,226177.0975,226943.8032,227710.7182,228459.9956,232343.3525,233110.1929,233876.6482,234643.5149,235410.0308,236177.2091,236943.9918,237693.3098,238469.0184,Mapping
Blocked,m160,ball,2,m160tile.wav,space,379.7899626,218,231593.5912,238459.9004,239226.7164,239993.3393,226177.0975,226943.8032,227710.7182,228459.9956,232343.3525,233110.1929,233876.6482,234643.5149,235410.0308,236177.2091,236943.9918,237693.3098,239235.981,Mapping
Blocked,m160,ball,2,m160ball.wav,None,727.2244125,218,231593.5912,238459.9004,239226.7164,239993.3393,240759.9849,226943.8032,227710.7182,228459.9956,232343.3525,233110.1929,233876.6482,234643.5149,235410.0308,236177.2091,236943.9918,237693.3098,240002.7049,Mapping
Blocked,m160,ball,2,m160jaw.wav,space,453.7927674,218,231593.5912,238459.9004,239226.7164,239993.3393,240759.9849,241527.2391,227710.7182,228459.9956,232343.3525,233110.1929,233876.6482,234643.5149,235410.0308,236177.2091,236943.9918,237693.3098,240769.8709,Mapping
Blocked,m160,ball,2,m160gnash.wav,None,721.5585728,218,231593.5912,238459.9004,239226.7164,239993.3393,240759.9849,241527.2391,242293.6464,228459.9956,232343.3525,233110.1929,233876.6482,234643.5149,235410.0308,236177.2091,236943.9918,237693.3098,241536.9241,Mapping
Blocked,m160,ball,2,m160romp.wav,None,719.0527542,218,231593.5912,238459.9004,239226.7164,239993.3393,240759.9849,241527.2391,242293.6464,243043.1307,232343.3525,233110.1929,233876.6482,234643.5149,235410.0308,236177.2091,236943.9918,237693.3098,242303.8808,Mapping
Blocked,m160,ball,3,m160cad.wav,None,734.9638519,218,246176.9933,238459.9004,239226.7164,239993.3393,240759.9849,241527.2391,242293.6464,243043.1307,232343.3525,233110.1929,233876.6482,234643.5149,235410.0308,236177.2091,236943.9918,237693.3098,243052.4568,Mapping
Blocked,m160,ball,3,m160knife.wav,None,719.4005699,218,246176.9933,238459.9004,239226.7164,239993.3393,240759.9849,241527.2391,242293.6464,243043.1307,246926.3799,233110.1929,233876.6482,234643.5149,235410.0308,236177.2091,236943.9918,237693.3098,246186.7619,Mapping
Blocked,m160,ball,3,m160ball.wav,None,734.5594582,218,246176.9933,238459.9004,239226.7164,239993.3393,240759.9849,241527.2391,242293.6464,243043.1307,246926.3799,247693.0565,233876.6482,234643.5149,235410.0308,236177.2091,236943.9918,237693.3098,246936.0897,Mapping
Blocked,m160,ball,3,m160done.wav,space,321.0604389,218,246176.9933,238459.9004,239226.7164,239993.3393,240759.9849,241527.2391,242293.6464,243043.1307,246926.3799,247693.0565,248459.6834,234643.5149,235410.0308,236177.2091,236943.9918,237693.3098,247702.4578,Mapping
Blocked,m160,ball,3,m160bluff.wav,None,729.8458605,218,246176.9933,238459.9004,239226.7164,239993.3393,240759.9849,241527.2391,242293.6464,243043.1307,246926.3799,247693.0565,248459.6834,249226.6753,235410.0308,236177.2091,236943.9918,237693.3098,248468.8051,Mapping
Blocked,m160,ball,3,m160dime.wav,None,727.3369502,218,246176.9933,238459.9004,239226.7164,239993.3393,240759.9849,241527.2391,242293.6464,243043.1307,246926.3799,247693.0565,248459.6834,249226.6753,249992.8786,236177.2091,236943.9918,237693.3098,249235.8654,Mapping
Blocked,m160,ball,3,m160tile.wav,None,725.4188628,218,246176.9933,238459.9004,239226.7164,239993.3393,240759.9849,241527.2391,242293.6464,243043.1307,246926.3799,247693.0565,248459.6834,249226.6753,249992.8786,250759.9859,236943.9918,237693.3098,250002.3899,Mapping
Blocked,m160,ball,3,m160ball.wav,None,723.241073,218,246176.9933,238459.9004,239226.7164,239993.3393,240759.9849,241527.2391,242293.6464,243043.1307,246926.3799,247693.0565,248459.6834,249226.6753,249992.8786,250759.9859,251526.4136,237693.3098,250769.717,Mapping
Blocked,m160,ball,3,m160greet.wav,space,335.8529615,218,246176.9933,238459.9004,239226.7164,239993.3393,240759.9849,241527.2391,242293.6464,243043.1307,246926.3799,247693.0565,248459.6834,249226.6753,249992.8786,250759.9859,251526.4136,252276.1805,251535.5675,Mapping
Blocked,m160,ball,3,m160dime.wav,None,735.5648774,218,246176.9933,253042.9072,239226.7164,239993.3393,240759.9849,241527.2391,242293.6464,243043.1307,246926.3799,247693.0565,248459.6834,249226.6753,249992.8786,250759.9859,251526.4136,252276.1805,252285.4818,Mapping
Blocked,m160,ball,3,m160cad.wav,None,733.3326738,218,246176.9933,253042.9072,253809.5182,239993.3393,240759.9849,241527.2391,242293.6464,243043.1307,246926.3799,247693.0565,248459.6834,249226.6753,249992.8786,250759.9859,251526.4136,252276.1805,253052.3752,Mapping
Blocked,m160,ball,3,m160greet.wav,None,731.1700333,218,246176.9933,253042.9072,253809.5182,254576.1797,240759.9849,241527.2391,242293.6464,243043.1307,246926.3799,247693.0565,248459.6834,249226.6753,249992.8786,250759.9859,251526.4136,252276.1805,253819.0422,Mapping
Blocked,m160,ball,3,m160ball.wav,None,729.4355926,218,246176.9933,253042.9072,253809.5182,254576.1797,255342.9546,241527.2391,242293.6464,243043.1307,246926.3799,247693.0565,248459.6834,249226.6753,249992.8786,250759.9859,251526.4136,252276.1805,254585.6205,Mapping
Blocked,m160,ball,3,m160romp.wav,space,334.2567195,218,246176.9933,253042.9072,253809.5182,254576.1797,255342.9546,256109.4327,242293.6464,243043.1307,246926.3799,247693.0565,248459.6834,249226.6753,249992.8786,250759.9859,251526.4136,252276.1805,255353.0276,Mapping
Blocked,m160,ball,3,m160ball.wav,None,724.3339871,218,246176.9933,253042.9072,253809.5182,254576.1797,255342.9546,256109.4327,256876.7567,243043.1307,246926.3799,247693.0565,248459.6834,249226.6753,249992.8786,250759.9859,251526.4136,252276.1805,256118.9928,Mapping
Blocked,m160,ball,3,m160cad.wav,space,344.6887158,218,246176.9933,253042.9072,253809.5182,254576.1797,255342.9546,256109.4327,256876.7567,257625.8369,246926.3799,247693.0565,248459.6834,249226.6753,249992.8786,250759.9859,251526.4136,252276.1805,256886.5082,Mapping
Blocked,m160,cave,8,m160done.wav,None,736.0904655,218,260759.6037,253042.9072,253809.5182,254576.1797,255342.9546,256109.4327,256876.7567,257625.8369,246926.3799,247693.0565,248459.6834,249226.6753,249992.8786,250759.9859,251526.4136,252276.1805,257635.2595,Mapping
Blocked,m160,cave,8,m160ball.wav,None,721.3313332,218,260759.6037,253042.9072,253809.5182,254576.1797,255342.9546,256109.4327,256876.7567,257625.8369,261526.5413,247693.0565,248459.6834,249226.6753,249992.8786,250759.9859,251526.4136,252276.1805,260769.3364,Mapping
Blocked,m160,cave,8,m160cave.wav,None,718.7865593,218,260759.6037,253042.9072,253809.5182,254576.1797,255342.9546,256109.4327,256876.7567,257625.8369,261526.5413,262276.2389,248459.6834,249226.6753,249992.8786,250759.9859,251526.4136,252276.1805,261536.5117,Mapping
Blocked,m160,cave,8,m160romp.wav,space,449.8177755,218,260759.6037,253042.9072,253809.5182,254576.1797,255342.9546,256109.4327,256876.7567,257625.8369,261526.5413,262276.2389,263042.6091,249226.6753,249992.8786,250759.9859,251526.4136,252276.1805,262285.2716,Mapping
Blocked,m160,cave,8,m160lash.wav,None,731.0918134,218,260759.6037,253042.9072,253809.5182,254576.1797,255342.9546,256109.4327,256876.7567,257625.8369,261526.5413,262276.2389,263042.6091,263809.1825,249992.8786,250759.9859,251526.4136,252276.1805,263052.3486,Mapping
Blocked,m160,cave,8,m160cave.wav,None,729.6915849,218,260759.6037,253042.9072,253809.5182,254576.1797,255342.9546,256109.4327,256876.7567,257625.8369,261526.5413,262276.2389,263042.6091,263809.1825,264575.9141,250759.9859,251526.4136,252276.1805,263818.3648,Mapping
Blocked,m160,cave,8,m160greet.wav,space,381.8459396,218,260759.6037,253042.9072,253809.5182,254576.1797,255342.9546,256109.4327,256876.7567,257625.8369,261526.5413,262276.2389,263042.6091,263809.1825,264575.9141,265343.077,251526.4136,252276.1805,264585.1286,Mapping
Blocked,m160,cave,8,m160cave.wav,None,723.0905075,218,260759.6037,253042.9072,253809.5182,254576.1797,255342.9546,256109.4327,256876.7567,257625.8369,261526.5413,262276.2389,263042.6091,263809.1825,264575.9141,265343.077,266109.1646,252276.1805,265352.8653,Mapping
Blocked,m160,cave,8,m160greet.wav,space,480.1027803,218,260759.6037,253042.9072,253809.5182,254576.1797,255342.9546,256109.4327,256876.7567,257625.8369,261526.5413,262276.2389,263042.6091,263809.1825,264575.9141,265343.077,266109.1646,266858.8861,266118.8098,Mapping
Blocked,m160,cave,8,m160jolt.wav,None,735.5092269,218,260759.6037,267625.6066,253809.5182,254576.1797,255342.9546,256109.4327,256876.7567,257625.8369,261526.5413,262276.2389,263042.6091,263809.1825,264575.9141,265343.077,266109.1646,266858.8861,266868.585,Mapping
Blocked,m160,cave,8,m160lash.wav,None,733.9884222,218,260759.6037,267625.6066,268392.5203,254576.1797,255342.9546,256109.4327,256876.7567,257625.8369,261526.5413,262276.2389,263042.6091,263809.1825,264575.9141,265343.077,266109.1646,266858.8861,267634.7419,Mapping
Blocked,m160,cave,8,m160priest.wav,None,731.2658759,218,260759.6037,267625.6066,268392.5203,269159.1042,255342.9546,256109.4327,256876.7567,257625.8369,261526.5413,262276.2389,263042.6091,263809.1825,264575.9141,265343.077,266109.1646,266858.8861,268402.0907,Mapping
Blocked,m160,cave,8,m160park.wav,None,729.8777049,218,260759.6037,267625.6066,268392.5203,269159.1042,269925.5572,256109.4327,256876.7567,257625.8369,261526.5413,262276.2389,263042.6091,263809.1825,264575.9141,265343.077,266109.1646,266858.8861,269168.302,Mapping
Blocked,m160,cave,8,m160jolt.wav,None,727.8010136,218,260759.6037,267625.6066,268392.5203,269159.1042,269925.5572,270692.3841,256876.7567,257625.8369,261526.5413,262276.2389,263042.6091,263809.1825,264575.9141,265343.077,266109.1646,266858.8861,269935.0157,Mapping
Blocked,m160,cave,8,m160cave.wav,None,725.9932997,218,260759.6037,267625.6066,268392.5203,269159.1042,269925.5572,270692.3841,271459.2335,257625.8369,261526.5413,262276.2389,263042.6091,263809.1825,264575.9141,265343.077,266109.1646,266858.8861,270701.708,Mapping
Blocked,m160,cave,8,m160jolt.wav,space,504.7677024,218,260759.6037,267625.6066,268392.5203,269159.1042,269925.5572,270692.3841,271459.2335,272226.2527,261526.5413,262276.2389,263042.6091,263809.1825,264575.9141,265343.077,266109.1646,266858.8861,271469.9966,Mapping
Blocked,m160,ball,5,m160dime.wav,None,719.8429914,218,275342.7329,267625.6066,268392.5203,269159.1042,269925.5572,270692.3841,271459.2335,272226.2527,261526.5413,262276.2389,263042.6091,263809.1825,264575.9141,265343.077,266109.1646,266858.8861,272236.0339,Mapping
Blocked,m160,ball,5,m160cad.wav,None,723.00023,218,275342.7329,267625.6066,268392.5203,269159.1042,269925.5572,270692.3841,271459.2335,272226.2527,276092.0197,262276.2389,263042.6091,263809.1825,264575.9141,265343.077,266109.1646,266858.8861,275349.4079,Mapping
Blocked,m160,ball,5,m160romp.wav,None,735.8010828,218,275342.7329,267625.6066,268392.5203,269159.1042,269925.5572,270692.3841,271459.2335,272226.2527,276092.0197,276858.8416,263042.6091,263809.1825,264575.9141,265343.077,266109.1646,266858.8861,276101.3832,Mapping
Blocked,m160,ball,5,m160dime.wav,None,733.9831663,218,275342.7329,267625.6066,268392.5203,269159.1042,269925.5572,270692.3841,271459.2335,272226.2527,276092.0197,276858.8416,277625.6149,263809.1825,264575.9141,265343.077,266109.1646,266858.8861,276868.0292,Mapping
Blocked,m160,ball,5,m160ball.wav,None,731.8839056,218,275342.7329,267625.6066,268392.5203,269159.1042,269925.5572,270692.3841,271459.2335,272226.2527,276092.0197,276858.8416,277625.6149,278392.205,264575.9141,265343.077,266109.1646,266858.8861,277634.8316,Mapping
Blocked,m160,ball,5,m160lash.wav,space,364.5296667,218,275342.7329,267625.6066,268392.5203,269159.1042,269925.5572,270692.3841,271459.2335,272226.2527,276092.0197,276858.8416,277625.6149,278392.205,279158.7202,265343.077,266109.1646,266858.8861,278402.0363,Mapping
Blocked,m160,ball,5,m160priest.wav,None,726.5037385,218,275342.7329,267625.6066,268392.5203,269159.1042,269925.5572,270692.3841,271459.2335,272226.2527,276092.0197,276858.8416,277625.6149,278392.205,279158.7202,279925.4997,266109.1646,266858.8861,279168.2772,Mapping
Blocked,m160,ball,5,m160tile.wav,None,724.6984979,218,275342.7329,267625.6066,268392.5203,269159.1042,269925.5572,270692.3841,271459.2335,272226.2527,276092.0197,276858.8416,277625.6149,278392.205,279158.7202,279925.4997,280692.5699,266858.8861,279934.7473,Mapping
Blocked,m160,ball,5,m160ball.wav,None,721.5746496,218,275342.7329,267625.6066,268392.5203,269159.1042,269925.5572,270692.3841,271459.2335,272226.2527,276092.0197,276858.8416,277625.6149,278392.205,279158.7202,279925.4997,280692.5699,281459.3201,280702.6414,Mapping
Blocked,m160,ball,5,m160bluff.wav,space,393.0895058,218,275342.7329,282208.6699,268392.5203,269159.1042,269925.5572,270692.3841,271459.2335,272226.2527,276092.0197,276858.8416,277625.6149,278392.205,279158.7202,279925.4997,280692.5699,281459.3201,281469.4123,Mapping
Blocked,m160,ball,5,m160ball.wav,None,734.3523147,218,275342.7329,282208.6699,282975.3508,269159.1042,269925.5572,270692.3841,271459.2335,272226.2527,276092.0197,276858.8416,277625.6149,278392.205,279158.7202,279925.4997,280692.5699,281459.3201,282218.2888,Mapping
Blocked,m160,ball,5,m160jolt.wav,space,421.4759009,218,275342.7329,282208.6699,282975.3508,283742.0067,269925.5572,270692.3841,271459.2335,272226.2527,276092.0197,276858.8416,277625.6149,278392.205,279158.7202,279925.4997,280692.5699,281459.3201,282984.9734,Mapping
Blocked,m160,ball,5,m160jolt.wav,None,729.781244,218,275342.7329,282208.6699,282975.3508,283742.0067,284508.6753,270692.3841,271459.2335,272226.2527,276092.0197,276858.8416,277625.6149,278392.205,279158.7202,279925.4997,280692.5699,281459.3201,283751.1467,Mapping
Blocked,m160,ball,5,m160cad.wav,None,727.9150971,218,275342.7329,282208.6699,282975.3508,283742.0067,284508.6753,285275.095,271459.2335,272226.2527,276092.0197,276858.8416,277625.6149,278392.205,279158.7202,279925.4997,280692.5699,281459.3201,284518.0425,Mapping
Blocked,m160,ball,5,m160ball.wav,None,726.4004759,218,275342.7329,282208.6699,282975.3508,283742.0067,284508.6753,285275.095,286042.794,272226.2527,276092.0197,276858.8416,277625.6149,278392.205,279158.7202,279925.4997,280692.5699,281459.3201,285284.298,Mapping
Blocked,m160,ball,5,m160cad.wav,space,441.2519261,218,275342.7329,282208.6699,282975.3508,283742.0067,284508.6753,285275.095,286042.794,286808.9002,276092.0197,276858.8416,277625.6149,278392.205,279158.7202,279925.4997,280692.5699,281459.3201,286053.0881,Mapping
Blocked,m160,tile,18,m160jolt.wav,None,720.1193889,218,289925.5789,282208.6699,282975.3508,283742.0067,284508.6753,285275.095,286042.794,286808.9002,276092.0197,276858.8416,277625.6149,278392.205,279158.7202,279925.4997,280692.5699,281459.3201,286818.8663,Mapping
Blocked,m160,tile,18,m160jaw.wav,None,719.5254743,218,289925.5789,282208.6699,282975.3508,283742.0067,284508.6753,285275.095,286042.794,286808.9002,290675.0715,276858.8416,277625.6149,278392.205,279158.7202,279925.4997,280692.5699,281459.3201,289935.5048,Mapping
Blocked,m160,tile,18,m160lash.wav,None,735.0828822,218,289925.5789,282208.6699,282975.3508,283742.0067,284508.6753,285275.095,286042.794,286808.9002,290675.0715,291441.8576,277625.6149,278392.205,279158.7202,279925.4997,280692.5699,281459.3201,290684.5315,Mapping
Blocked,m160,tile,18,m160priest.wav,None,733.413367,218,289925.5789,282208.6699,282975.3508,283742.0067,284508.6753,285275.095,286042.794,286808.9002,290675.0715,291441.8576,292208.149,278392.205,279158.7202,279925.4997,280692.5699,281459.3201,291451.2817,Mapping
Blocked,m160,tile,18,m160tile.wav,None,732.0916675,218,289925.5789,282208.6699,282975.3508,283742.0067,284508.6753,285275.095,286042.794,286808.9002,290675.0715,291441.8576,292208.149,292975.1004,279158.7202,279925.4997,280692.5699,281459.3201,292217.2948,Mapping
Blocked,m160,tile,18,m160romp.wav,space,429.4051703,218,289925.5789,282208.6699,282975.3508,283742.0067,284508.6753,285275.095,286042.794,286808.9002,290675.0715,291441.8576,292208.149,292975.1004,293741.6985,279925.4997,280692.5699,281459.3201,292984.6967,Mapping
Blocked,m160,tile,18,m160bluff.wav,None,726.8793794,218,289925.5789,282208.6699,282975.3508,283742.0067,284508.6753,285275.095,286042.794,286808.9002,290675.0715,291441.8576,292208.149,292975.1004,293741.6985,294508.3303,280692.5699,281459.3201,293751.015,Mapping
Blocked,m160,tile,18,m160priest.wav,None,724.8839996,218,289925.5789,282208.6699,282975.3508,283742.0067,284508.6753,285275.095,286042.794,286808.9002,290675.0715,291441.8576,292208.149,292975.1004,293741.6985,294508.3303,295275.2406,281459.3201,294518.0515,Mapping
Blocked,m160,tile,18,m160tile.wav,None,723.2695166,218,289925.5789,282208.6699,282975.3508,283742.0067,284508.6753,285275.095,286042.794,286808.9002,290675.0715,291441.8576,292208.149,292975.1004,293741.6985,294508.3303,295275.2406,296042.0668,295284.5274,Mapping
Blocked,m160,tile,18,m160priest.wav,space,321.6299291,218,289925.5789,296791.4089,282975.3508,283742.0067,284508.6753,285275.095,286042.794,286808.9002,290675.0715,291441.8576,292208.149,292975.1004,293741.6985,294508.3303,295275.2406,296042.0668,296052.3937,Mapping
Blocked,m160,tile,18,m160tile.wav,None,735.2841515,218,289925.5789,296791.4089,297558.1987,283742.0067,284508.6753,285275.095,286042.794,286808.9002,290675.0715,291441.8576,292208.149,292975.1004,293741.6985,294508.3303,295275.2406,296042.0668,296800.9991,Mapping
Blocked,m160,tile,18,m160dime.wav,space,358.4350089,218,289925.5789,296791.4089,297558.1987,298325.0416,284508.6753,285275.095,286042.794,286808.9002,290675.0715,291441.8576,292208.149,292975.1004,293741.6985,294508.3303,295275.2406,296042.0668,297567.5378,Mapping
Blocked,m160,tile,18,m160dime.wav,None,730.8107784,218,289925.5789,296791.4089,297558.1987,298325.0416,299091.5791,285275.095,286042.794,286808.9002,290675.0715,291441.8576,292208.149,292975.1004,293741.6985,294508.3303,295275.2406,296042.0668,298334.2317,Mapping
Blocked,m160,tile,18,m160tile.wav,None,728.9059853,218,289925.5789,296791.4089,297558.1987,298325.0416,299091.5791,299858.1833,286042.794,286808.9002,290675.0715,291441.8576,292208.149,292975.1004,293741.6985,294508.3303,295275.2406,296042.0668,299101.3445,Mapping
Blocked,m160,tile,18,m160depth.wav,space,394.264659,218,289925.5789,296791.4089,297558.1987,298325.0416,299091.5791,299858.1833,300624.6324,286808.9002,290675.0715,291441.8576,292208.149,292975.1004,293741.6985,294508.3303,295275.2406,296042.0668,299867.6309,Mapping
Blocked,m160,tile,18,m160park.wav,None,725.1384461,218,289925.5789,296791.4089,297558.1987,298325.0416,299091.5791,299858.1833,300624.6324,301391.9125,290675.0715,291441.8576,292208.149,292975.1004,293741.6985,294508.3303,295275.2406,296042.0668,300633.7211,Mapping
Blocked,m160,cave,7,m160jaw.wav,None,721.7499487,218,304508.3182,296791.4089,297558.1987,298325.0416,299091.5791,299858.1833,300624.6324,301391.9125,290675.0715,291441.8576,292208.149,292975.1004,293741.6985,294508.3303,295275.2406,296042.0668,301402.0644,Mapping
Blocked,m160,cave,7,m160priest.wav,None,719.9737701,218,304508.3182,296791.4089,297558.1987,298325.0416,299091.5791,299858.1833,300624.6324,301391.9125,305258.044,291441.8576,292208.149,292975.1004,293741.6985,294508.3303,295275.2406,296042.0668,304518.2744,Mapping
Blocked,m160,cave,7,m160cave.wav,None,736.034815,218,304508.3182,296791.4089,297558.1987,298325.0416,299091.5791,299858.1833,300624.6324,301391.9125,305258.044,306024.7738,292208.149,292975.1004,293741.6985,294508.3303,295275.2406,296042.0668,305267.1076,Mapping
Blocked,m160,cave,7,m160knife.wav,space,363.6497703,218,304508.3182,296791.4089,297558.1987,298325.0416,299091.5791,299858.1833,300624.6324,301391.9125,305258.044,306024.7738,306791.1526,292975.1004,293741.6985,294508.3303,295275.2406,296042.0668,306034.1138,Mapping
Blocked,m160,cave,7,m160priest.wav,None,730.9038384,218,304508.3182,296791.4089,297558.1987,298325.0416,299091.5791,299858.1833,300624.6324,301391.9125,305258.044,306024.7738,306791.1526,307557.9319,293741.6985,294508.3303,295275.2406,296042.0668,306800.6423,Mapping
Blocked,m160,cave,7,m160romp.wav,None,728.8345671,218,304508.3182,296791.4089,297558.1987,298325.0416,299091.5791,299858.1833,300624.6324,301391.9125,305258.044,306024.7738,306791.1526,307557.9319,308324.1336,294508.3303,295275.2406,296042.0668,307567.603,Mapping
Blocked,m160,cave,7,m160gnash.wav,None,729.9182061,218,304508.3182,296791.4089,297558.1987,298325.0416,299091.5791,299858.1833,300624.6324,301391.9125,305258.044,306024.7738,306791.1526,307557.9319,308324.1336,309091.2977,295275.2406,296042.0668,308332.9165,Mapping
Blocked,m160,cave,7,m160romp.wav,None,726.5578431,218,304508.3182,296791.4089,297558.1987,298325.0416,299091.5791,299858.1833,300624.6324,301391.9125,305258.044,306024.7738,306791.1526,307557.9319,308324.1336,309091.2977,309857.8544,296042.0668,309101.2011,Mapping
Blocked,m160,cave,7,m160cave.wav,None,725.6896953,218,304508.3182,296791.4089,297558.1987,298325.0416,299091.5791,299858.1833,300624.6324,301391.9125,305258.044,306024.7738,306791.1526,307557.9319,308324.1336,309091.2977,309857.8544,310624.6469,309867.1718,Mapping
Blocked,m160,cave,7,m160knife.wav,space,499.3179721,218,304508.3182,311391.6738,297558.1987,298325.0416,299091.5791,299858.1833,300624.6324,301391.9125,305258.044,306024.7738,306791.1526,307557.9319,308324.1336,309091.2977,309857.8544,310624.6469,310634.2949,Mapping
Blocked,m160,cave,7,m160cave.wav,None,719.6355387,218,304508.3182,311391.6738,312141.0471,298325.0416,299091.5791,299858.1833,300624.6324,301391.9125,305258.044,306024.7738,306791.1526,307557.9319,308324.1336,309091.2977,309857.8544,310624.6469,311401.6498,Mapping
Blocked,m160,cave,7,m160greet.wav,space,431.1161142,218,304508.3182,311391.6738,312141.0471,312907.7979,299091.5791,299858.1833,300624.6324,301391.9125,305258.044,306024.7738,306791.1526,307557.9319,308324.1336,309091.2977,309857.8544,310624.6469,312150.4663,Mapping
Blocked,m160,cave,7,m160tile.wav,None,732.0063367,218,304508.3182,311391.6738,312141.0471,312907.7979,313674.5011,299858.1833,300624.6324,301391.9125,305258.044,306024.7738,306791.1526,307557.9319,308324.1336,309091.2977,309857.8544,310624.6469,312917.8064,Mapping
Blocked,m160,cave,7,m160cave.wav,None,731.0701716,218,304508.3182,311391.6738,312141.0471,312907.7979,313674.5011,314441.2266,300624.6324,301391.9125,305258.044,306024.7738,306791.1526,307557.9319,308324.1336,309091.2977,309857.8544,310624.6469,313683.7484,Mapping
Blocked,m160,cave,7,m160reek.wav,space,402.7597085,218,304508.3182,311391.6738,312141.0471,312907.7979,313674.5011,314441.2266,315207.6493,301391.9125,305258.044,306024.7738,306791.1526,307557.9319,308324.1336,309091.2977,309857.8544,310624.6469,314450.8142,Mapping
Blocked,m160,cave,7,m160romp.wav,None,726.8224922,218,304508.3182,311391.6738,312141.0471,312907.7979,313674.5011,314441.2266,315207.6493,315975.0476,305258.044,306024.7738,306791.1526,307557.9319,308324.1336,309091.2977,309857.8544,310624.6469,315216.6511,Mapping
Blocked,m160,cave,10,m160cling.wav,None,723.0855608,218,319107.9601,311391.6738,312141.0471,312907.7979,313674.5011,314441.2266,315207.6493,315975.0476,305258.044,306024.7738,306791.1526,307557.9319,308324.1336,309091.2977,309857.8544,310624.6469,315985.0705,Mapping
Blocked,m160,cave,10,m160bluff.wav,None,719.7316904,218,319107.9601,311391.6738,312141.0471,312907.7979,313674.5011,314441.2266,315207.6493,315975.0476,319857.6358,306024.7738,306791.1526,307557.9319,308324.1336,309091.2977,309857.8544,310624.6469,319118.2212,Mapping
Blocked,m160,cave,10,m160cave.wav,None,736.0753162,218,319107.9601,311391.6738,312141.0471,312907.7979,313674.5011,314441.2266,315207.6493,315975.0476,319857.6358,320624.1238,306791.1526,307557.9319,308324.1336,309091.2977,309857.8544,310624.6469,319866.9715,Mapping
Blocked,m160,cave,10,m160jaw.wav,space,355.6243492,218,319107.9601,311391.6738,312141.0471,312907.7979,313674.5011,314441.2266,315207.6493,315975.0476,319857.6358,320624.1238,321391.0026,307557.9319,308324.1336,309091.2977,309857.8544,310624.6469,320633.6639,Mapping
Blocked,m160,cave,10,m160jaw.wav,None,730.9972076,218,319107.9601,311391.6738,312141.0471,312907.7979,313674.5011,314441.2266,315207.6493,315975.0476,319857.6358,320624.1238,321391.0026,322157.422,308324.1336,309091.2977,309857.8544,310624.6469,321400.4307,Mapping
Blocked,m160,cave,10,m160romp.wav,None,729.7178643,218,319107.9601,311391.6738,312141.0471,312907.7979,313674.5011,314441.2266,315207.6493,315975.0476,319857.6358,320624.1238,321391.0026,322157.422,322924.1638,309091.2977,309857.8544,310624.6469,322166.6238,Mapping
Blocked,m160,cave,10,m160cave.wav,None,728.1822195,218,319107.9601,311391.6738,312141.0471,312907.7979,313674.5011,314441.2266,315207.6493,315975.0476,319857.6358,320624.1238,321391.0026,322157.422,322924.1638,323690.8256,309857.8544,310624.6469,322933.4822,Mapping
Blocked,m160,cave,10,m160gnash.wav,space,321.0616756,218,319107.9601,311391.6738,312141.0471,312907.7979,313674.5011,314441.2266,315207.6493,315975.0476,319857.6358,320624.1238,321391.0026,322157.422,322924.1638,323690.8256,324457.5832,310624.6469,323700.1424,Mapping
Blocked,m160,cave,10,m160lash.wav,None,722.6632353,218,319107.9601,311391.6738,312141.0471,312907.7979,313674.5011,314441.2266,315207.6493,315975.0476,319857.6358,320624.1238,321391.0026,322157.422,322924.1638,323690.8256,324457.5832,325224.5671,324467.3375,Mapping
Blocked,m160,cave,10,m160cave.wav,None,720.5426419,218,319107.9601,325991.2354,312141.0471,312907.7979,313674.5011,314441.2266,315207.6493,315975.0476,319857.6358,320624.1238,321391.0026,322157.422,322924.1638,323690.8256,324457.5832,325224.5671,325234.4414,Mapping
Blocked,m160,cave,10,m160lash.wav,space,387.6846051,218,319107.9601,325991.2354,326740.6303,312907.7979,313674.5011,314441.2266,315207.6493,315975.0476,319857.6358,320624.1238,321391.0026,322157.422,322924.1638,323690.8256,324457.5832,325224.5671,326001.4061,Mapping
Blocked,m160,cave,10,m160ball.wav,None,733.2349762,218,319107.9601,325991.2354,326740.6303,327507.3858,313674.5011,314441.2266,315207.6493,315975.0476,319857.6358,320624.1238,321391.0026,322157.422,322924.1638,323690.8256,324457.5832,325224.5671,326750.0612,Mapping
Blocked,m160,cave,10,m160priest.wav,None,731.3561533,218,319107.9601,325991.2354,326740.6303,327507.3858,328274.0716,314441.2266,315207.6493,315975.0476,319857.6358,320624.1238,321391.0026,322157.422,322924.1638,323690.8256,324457.5832,325224.5671,327516.8924,Mapping
Blocked,m160,cave,10,m160lash.wav,None,729.8959459,218,319107.9601,325991.2354,326740.6303,327507.3858,328274.0716,329040.6561,315207.6493,315975.0476,319857.6358,320624.1238,321391.0026,322157.422,322924.1638,323690.8256,324457.5832,325224.5671,328283.2988,Mapping
Blocked,m160,cave,10,m160cave.wav,None,727.9416857,218,319107.9601,325991.2354,326740.6303,327507.3858,328274.0716,329040.6561,329807.2013,315975.0476,319857.6358,320624.1238,321391.0026,322157.422,322924.1638,323690.8256,324457.5832,325224.5671,329050.3476,Mapping
Blocked,m160,cave,10,m160greet.wav,space,396.6786542,218,319107.9601,325991.2354,326740.6303,327507.3858,328274.0716,329040.6561,329807.2013,330574.4647,319857.6358,320624.1238,321391.0026,322157.422,322924.1638,323690.8256,324457.5832,325224.5671,329816.3867,Mapping
Blocked,m160,done,20,m160depth.wav,None,722.6193332,218,333690.9598,325991.2354,326740.6303,327507.3858,328274.0716,329040.6561,329807.2013,330574.4647,319857.6358,320624.1238,321391.0026,322157.422,322924.1638,323690.8256,324457.5832,325224.5671,330584.1284,Mapping
Blocked,m160,done,20,m160gnash.wav,None,720.1391757,218,333690.9598,325991.2354,326740.6303,327507.3858,328274.0716,329040.6561,329807.2013,330574.4647,334440.4187,320624.1238,321391.0026,322157.422,322924.1638,323690.8256,324457.5832,325224.5671,333700.4711,Mapping
Blocked,m160,done,20,m160lash.wav,None,735.6109436,218,333690.9598,325991.2354,326740.6303,327507.3858,328274.0716,329040.6561,329807.2013,330574.4647,334440.4187,335207.0301,321391.0026,322157.422,322924.1638,323690.8256,324457.5832,325224.5671,334449.9087,Mapping
Blocked,m160,done,20,m160cave.wav,None,734.3526239,218,333690.9598,325991.2354,326740.6303,327507.3858,328274.0716,329040.6561,329807.2013,330574.4647,334440.4187,335207.0301,335973.8025,322157.422,322924.1638,323690.8256,324457.5832,325224.5671,335216.4279,Mapping
Blocked,m160,done,20,m160lash.wav,None,732.7910089,218,333690.9598,325991.2354,326740.6303,327507.3858,328274.0716,329040.6561,329807.2013,330574.4647,334440.4187,335207.0301,335973.8025,336740.4915,322924.1638,323690.8256,324457.5832,325224.5671,335983.0792,Mapping
Blocked,m160,done,20,m160done.wav,None,730.5996156,218,333690.9598,325991.2354,326740.6303,327507.3858,328274.0716,329040.6561,329807.2013,330574.4647,334440.4187,335207.0301,335973.8025,336740.4915,337507.071,323690.8256,324457.5832,325224.5671,336750.4078,Mapping
Blocked,m160,done,20,m160depth.wav,space,336.0607234,218,333690.9598,325991.2354,326740.6303,327507.3858,328274.0716,329040.6561,329807.2013,330574.4647,334440.4187,335207.0301,335973.8025,336740.4915,337507.071,338273.7652,324457.5832,325224.5671,337516.7177,Mapping
Blocked,m160,done,20,m160dime.wav,None,726.6227687,218,333690.9598,325991.2354,326740.6303,327507.3858,328274.0716,329040.6561,329807.2013,330574.4647,334440.4187,335207.0301,335973.8025,336740.4915,337507.071,338273.7652,339040.4353,325224.5671,338283.0054,Mapping
Blocked,m160,done,20,m160done.wav,None,724.7182848,218,333690.9598,325991.2354,326740.6303,327507.3858,328274.0716,329040.6561,329807.2013,330574.4647,334440.4187,335207.0301,335973.8025,336740.4915,337507.071,338273.7652,339040.4353,339806.7539,339050.0589,Mapping
Blocked,m160,done,20,m160jolt.wav,space,380.9277063,218,333690.9598,340573.8887,326740.6303,327507.3858,328274.0716,329040.6561,329807.2013,330574.4647,334440.4187,335207.0301,335973.8025,336740.4915,337507.071,338273.7652,339040.4353,339806.7539,339815.7832,Mapping
Blocked,m160,done,20,m160done.wav,None,722.4288848,218,333690.9598,340573.8887,341340.7372,327507.3858,328274.0716,329040.6561,329807.2013,330574.4647,334440.4187,335207.0301,335973.8025,336740.4915,337507.071,338273.7652,339040.4353,339806.7539,340583.5153,Mapping
Blocked,m160,done,20,m160dime.wav,space,582.1228318,218,333690.9598,340573.8887,341340.7372,342090.062,328274.0716,329040.6561,329807.2013,330574.4647,334440.4187,335207.0301,335973.8025,336740.4915,337507.071,338273.7652,339040.4353,339806.7539,341350.5197,Mapping
Blocked,m160,done,20,m160done.wav,None,735.162957,218,333690.9598,340573.8887,341340.7372,342090.062,342856.7973,329040.6561,329807.2013,330574.4647,334440.4187,335207.0301,335973.8025,336740.4915,337507.071,338273.7652,339040.4353,339806.7539,342099.4679,Mapping
Blocked,m160,done,20,m160knife.wav,space,330.6542768,218,333690.9598,340573.8887,341340.7372,342090.062,342856.7973,343623.5834,329807.2013,330574.4647,334440.4187,335207.0301,335973.8025,336740.4915,337507.071,338273.7652,339040.4353,339806.7539,342866.0131,Mapping
Blocked,m160,done,20,m160cling.wav,None,730.1995503,218,333690.9598,340573.8887,341340.7372,342090.062,342856.7973,343623.5834,344390.2356,330574.4647,334440.4187,335207.0301,335973.8025,336740.4915,337507.071,338273.7652,339040.4353,339806.7539,343632.8433,Mapping
Blocked,m160,done,20,m160gnash.wav,None,728.3671029,218,333690.9598,340573.8887,341340.7372,342090.062,342856.7973,343623.5834,344390.2356,345156.8203,334440.4187,335207.0301,335973.8025,336740.4915,337507.071,338273.7652,339040.4353,339806.7539,344399.8504,Mapping
Blocked,m160,cave,9,m160romp.wav,None,728.4208984,218,348290.2968,340573.8887,341340.7372,342090.062,342856.7973,343623.5834,344390.2356,345156.8203,334440.4187,335207.0301,335973.8025,336740.4915,337507.071,338273.7652,339040.4353,339806.7539,345164.9759,Mapping
Blocked,m160,cave,9,m160cave.wav,None,719.6002933,218,348290.2968,340573.8887,341340.7372,342090.062,342856.7973,343623.5834,344390.2356,345156.8203,349039.9685,335207.0301,335973.8025,336740.4915,337507.071,338273.7652,339040.4353,339806.7539,348300.6766,Mapping
Blocked,m160,cave,9,m160ball.wav,space,315.0557494,218,348290.2968,340573.8887,341340.7372,342090.062,342856.7973,343623.5834,344390.2356,345156.8203,349039.9685,349806.761,335973.8025,336740.4915,337507.071,338273.7652,339040.4353,339806.7539,349049.3728,Mapping
Blocked,m160,cave,9,m160cad.wav,None,732.8250175,218,348290.2968,340573.8887,341340.7372,342090.062,342856.7973,343623.5834,344390.2356,345156.8203,349039.9685,349806.761,350573.3492,336740.4915,337507.071,338273.7652,339040.4353,339806.7539,349816.1252,Mapping
Blocked,m160,cave,9,m160knife.wav,space,317.6935834,218,348290.2968,340573.8887,341340.7372,342090.062,342856.7973,343623.5834,344390.2356,345156.8203,349039.9685,349806.761,350573.3492,351340.0453,337507.071,338273.7652,339040.4353,339806.7539,350582.7557,Mapping
Blocked,m160,cave,9,m160bluff.wav,None,728.268787,218,348290.2968,340573.8887,341340.7372,342090.062,342856.7973,343623.5834,344390.2356,345156.8203,349039.9685,349806.761,350573.3492,351340.0453,352106.6279,338273.7652,339040.4353,339806.7539,351349.2688,Mapping
Blocked,m160,cave,9,m160cave.wav,None,726.5185786,218,348290.2968,340573.8887,341340.7372,342090.062,342856.7973,343623.5834,344390.2356,345156.8203,349039.9685,349806.761,350573.3492,351340.0453,352106.6279,352873.2999,339040.4353,339806.7539,352116.2137,Mapping
Blocked,m160,cave,9,m160greet.wav,space,441.6705416,218,348290.2968,340573.8887,341340.7372,342090.062,342856.7973,343623.5834,344390.2356,345156.8203,349039.9685,349806.761,350573.3492,351340.0453,352106.6279,352873.2999,353640.4127,339806.7539,352882.6606,Mapping
Blocked,m160,cave,9,m160done.wav,None,720.0850711,218,348290.2968,340573.8887,341340.7372,342090.062,342856.7973,343623.5834,344390.2356,345156.8203,349039.9685,349806.761,350573.3492,351340.0453,352106.6279,352873.2999,353640.4127,354406.9449,353651.0562,Mapping
Blocked,m160,cave,9,m160cad.wav,None,719.5087792,218,348290.2968,355156.1164,341340.7372,342090.062,342856.7973,343623.5834,344390.2356,345156.8203,349039.9685,349806.761,350573.3492,351340.0453,352106.6279,352873.2999,353640.4127,354406.9449,354416.9957,Mapping
Blocked,m160,cave,9,m160jaw.wav,None,736.1733229,218,348290.2968,355156.1164,355923.1123,342090.062,342856.7973,343623.5834,344390.2356,345156.8203,349039.9685,349806.761,350573.3492,351340.0453,352106.6279,352873.2999,353640.4127,354406.9449,355165.5185,Mapping
Blocked,m160,cave,9,m160ball.wav,None,733.940501,218,348290.2968,355156.1164,355923.1123,356689.8177,342856.7973,343623.5834,344390.2356,345156.8203,349039.9685,349806.761,350573.3492,351340.0453,352106.6279,352873.2999,353640.4127,354406.9449,355932.8249,Mapping
Blocked,m160,cave,9,m160cave.wav,None,732.7096973,218,348290.2968,355156.1164,355923.1123,356689.8177,357456.3338,343623.5834,344390.2356,345156.8203,349039.9685,349806.761,350573.3492,351340.0453,352106.6279,352873.2999,353640.4127,354406.9449,356699.308,Mapping
Blocked,m160,cave,9,m160cad.wav,space,434.7708065,218,348290.2968,355156.1164,355923.1123,356689.8177,357456.3338,358223.1681,344390.2356,345156.8203,349039.9685,349806.761,350573.3492,351340.0453,352106.6279,352873.2999,353640.4127,354406.9449,357465.4438,Mapping
Blocked,m160,cave,9,m160cave.wav,None,728.4168792,218,348290.2968,355156.1164,355923.1123,356689.8177,357456.3338,358223.1681,358989.8163,345156.8203,349039.9685,349806.761,350573.3492,351340.0453,352106.6279,352873.2999,353640.4127,354406.9449,358232.5489,Mapping
Blocked,m160,cave,9,m160greet.wav,space,436.6824013,218,348290.2968,355156.1164,355923.1123,356689.8177,357456.3338,358223.1681,358989.8163,359756.8265,349039.9685,349806.761,350573.3492,351340.0453,352106.6279,352873.2999,353640.4127,354406.9449,358999.4494,Mapping
Blocked,m160,cave,11,m160lash.wav,None,723.492737,218,362873.64,355156.1164,355923.1123,356689.8177,357456.3338,358223.1681,358989.8163,359756.8265,349039.9685,349806.761,350573.3492,351340.0453,352106.6279,352873.2999,353640.4127,354406.9449,359766.5446,Mapping
Blocked,m160,cave,11,m160knife.wav,None,719.8980235,218,362873.64,355156.1164,355923.1123,356689.8177,357456.3338,358223.1681,358989.8163,359756.8265,363640.1929,349806.761,350573.3492,351340.0453,352106.6279,352873.2999,353640.4127,354406.9449,362883.6537,Mapping
Blocked,m160,cave,11,m160jolt.wav,None,718.3994791,218,362873.64,355156.1164,355923.1123,356689.8177,357456.3338,358223.1681,358989.8163,359756.8265,363640.1929,364389.6302,350573.3492,351340.0453,352106.6279,352873.2999,353640.4127,354406.9449,363650.2474,Mapping
Blocked,m160,cave,11,m160bluff.wav,None,734.6321131,218,362873.64,355156.1164,355923.1123,356689.8177,357456.3338,358223.1681,358989.8163,359756.8265,363640.1929,364389.6302,365156.1055,351340.0453,352106.6279,352873.2999,353640.4127,354406.9449,364399.0756,Mapping
Blocked,m160,cave,11,m160cave.wav,None,733.6328773,218,362873.64,355156.1164,355923.1123,356689.8177,357456.3338,358223.1681,358989.8163,359756.8265,363640.1929,364389.6302,365156.1055,365922.8557,352106.6279,352873.2999,353640.4127,354406.9449,365165.218,Mapping
Blocked,m160,cave,11,m160park.wav,space,431.6695275,218,362873.64,355156.1164,355923.1123,356689.8177,357456.3338,358223.1681,358989.8163,359756.8265,363640.1929,364389.6302,365156.1055,365922.8557,366689.5376,352873.2999,353640.4127,354406.9449,365932.3049,Mapping
Blocked,m160,cave,11,m160cave.wav,None,721.7647888,218,362873.64,355156.1164,355923.1123,356689.8177,357456.3338,358223.1681,358989.8163,359756.8265,363640.1929,364389.6302,365156.1055,365922.8557,366689.5376,367456.1072,353640.4127,354406.9449,366706.1799,Mapping
Blocked,m160,cave,11,m160done.wav,space,402.7575444,218,362873.64,355156.1164,355923.1123,356689.8177,357456.3338,358223.1681,358989.8163,359756.8265,363640.1929,364389.6302,365156.1055,365922.8557,366689.5376,367456.1072,368223.2893,354406.9449,367465.1399,Mapping
Blocked,m160,cave,11,m160bluff.wav,None,723.7255416,218,362873.64,355156.1164,355923.1123,356689.8177,357456.3338,358223.1681,358989.8163,359756.8265,363640.1929,364389.6302,365156.1055,365922.8557,366689.5376,367456.1072,368223.2893,368989.4187,368232.8661,Mapping
Blocked,m160,cave,11,m160cave.wav,None,722.9288119,218,362873.64,369756.4032,355923.1123,356689.8177,357456.3338,358223.1681,358989.8163,359756.8265,363640.1929,364389.6302,365156.1055,365922.8557,366689.5376,367456.1072,368223.2893,368989.4187,368998.8839,Mapping
Blocked,m160,cave,11,m160dime.wav,space,429.7771012,218,362873.64,369756.4032,370506.2078,356689.8177,357456.3338,358223.1681,358989.8163,359756.8265,363640.1929,364389.6302,365156.1055,365922.8557,366689.5376,367456.1072,368223.2893,368989.4187,369766.0666,Mapping
Blocked,m160,cave,11,m160knife.wav,None,735.6904002,218,362873.64,369756.4032,370506.2078,371272.6884,357456.3338,358223.1681,358989.8163,359756.8265,363640.1929,364389.6302,365156.1055,365922.8557,366689.5376,367456.1072,368223.2893,368989.4187,370515.6477,Mapping
Blocked,m160,cave,11,m160done.wav,None,734.6172729,218,362873.64,369756.4032,370506.2078,371272.6884,372039.0212,358223.1681,358989.8163,359756.8265,363640.1929,364389.6302,365156.1055,365922.8557,366689.5376,367456.1072,368223.2893,368989.4187,371282.0105,Mapping
Blocked,m160,cave,11,m160greet.wav,None,733.6897645,218,362873.64,369756.4032,370506.2078,371272.6884,372039.0212,372806.0397,358989.8163,359756.8265,363640.1929,364389.6302,365156.1055,365922.8557,366689.5376,367456.1072,368223.2893,368989.4187,372048.3736,Mapping
Blocked,m160,cave,11,m160cave.wav,None,731.7361226,218,362873.64,369756.4032,370506.2078,371272.6884,372039.0212,372806.0397,373572.6576,359756.8265,363640.1929,364389.6302,365156.1055,365922.8557,366689.5376,367456.1072,368223.2893,368989.4187,372815.5946,Mapping
Blocked,m160,cave,11,m160done.wav,space,373.7147825,218,362873.64,369756.4032,370506.2078,371272.6884,372039.0212,372806.0397,373572.6576,374339.3382,363640.1929,364389.6302,365156.1055,365922.8557,366689.5376,367456.1072,368223.2893,368989.4187,373581.9819,Mapping
Blocked,m160,done,23,m160gnash.wav,None,727.7614399,218,377472.9087,369756.4032,370506.2078,371272.6884,372039.0212,372806.0397,373572.6576,374339.3382,363640.1929,364389.6302,365156.1055,365922.8557,366689.5376,367456.1072,368223.2893,368989.4187,374348.5935,Mapping
Blocked,m160,done,23,m160romp.wav,None,719.3350259,218,377472.9087,369756.4032,370506.2078,371272.6884,372039.0212,372806.0397,373572.6576,374339.3382,378222.4731,364389.6302,365156.1055,365922.8557,366689.5376,367456.1072,368223.2893,368989.4187,377482.9493,Mapping
Blocked,m160,done,23,m160done.wav,None,735.8363282,218,377472.9087,369756.4032,370506.2078,371272.6884,372039.0212,372806.0397,373572.6576,374339.3382,378222.4731,378989.1704,365156.1055,365922.8557,366689.5376,367456.1072,368223.2893,368989.4187,378231.836,Mapping
Blocked,m160,done,23,m160cling.wav,space,373.2043437,218,377472.9087,369756.4032,370506.2078,371272.6884,372039.0212,372806.0397,373572.6576,374339.3382,378222.4731,378989.1704,379755.6615,365922.8557,366689.5376,367456.1072,368223.2893,368989.4187,378998.4183,Mapping
Blocked,m160,done,23,m160ball.wav,None,731.3589359,218,377472.9087,369756.4032,370506.2078,371272.6884,372039.0212,372806.0397,373572.6576,374339.3382,378222.4731,378989.1704,379755.6615,380522.19,366689.5376,367456.1072,368223.2893,368989.4187,379765.2603,Mapping
Blocked,m160,done,23,m160done.wav,None,731.0565681,218,377472.9087,369756.4032,370506.2078,371272.6884,372039.0212,372806.0397,373572.6576,374339.3382,378222.4731,378989.1704,379755.6615,380522.19,381289.0966,367456.1072,368223.2893,368989.4187,380531.2338,Mapping
Blocked,m160,done,23,m160lash.wav,space,369.2299701,218,377472.9087,369756.4032,370506.2078,371272.6884,372039.0212,372806.0397,373572.6576,374339.3382,378222.4731,378989.1704,379755.6615,380522.19,381289.0966,382055.4397,368223.2893,368989.4187,381298.2403,Mapping
Blocked,m160,done,23,m160priest.wav,None,726.4530347,218,377472.9087,369756.4032,370506.2078,371272.6884,372039.0212,372806.0397,373572.6576,374339.3382,378222.4731,378989.1704,379755.6615,380522.19,381289.0966,382055.4397,382823.1211,368989.4187,382064.4547,Mapping
Blocked,m160,done,23,m160reek.wav,None,723.08958,218,377472.9087,369756.4032,370506.2078,371272.6884,372039.0212,372806.0397,373572.6576,374339.3382,378222.4731,378989.1704,379755.6615,380522.19,381289.0966,382055.4397,382823.1211,383589.4146,382833.1001,Mapping
Blocked,m160,done,23,m160done.wav,None,721.5622828,218,377472.9087,384355.9174,370506.2078,371272.6884,372039.0212,372806.0397,373572.6576,374339.3382,378222.4731,378989.1704,379755.6615,380522.19,381289.0966,382055.4397,382823.1211,383589.4146,383599.8283,Mapping
Blocked,m160,done,23,m160lash.wav,space,325.7514673,218,377472.9087,384355.9174,385105.3075,371272.6884,372039.0212,372806.0397,373572.6576,374339.3382,378222.4731,378989.1704,379755.6615,380522.19,381289.0966,382055.4397,382823.1211,383589.4146,384365.6971,Mapping
Blocked,m160,done,23,m160knife.wav,None,741.0155351,218,377472.9087,384355.9174,385105.3075,385872.1921,372039.0212,372806.0397,373572.6576,374339.3382,378222.4731,378989.1704,379755.6615,380522.19,381289.0966,382055.4397,382823.1211,383589.4146,385109.5564,Mapping
Blocked,m160,done,23,m160done.wav,None,734.4348629,218,377472.9087,384355.9174,385105.3075,385872.1921,386638.9714,372806.0397,373572.6576,374339.3382,378222.4731,378989.1704,379755.6615,380522.19,381289.0966,382055.4397,382823.1211,383589.4146,385881.6818,Mapping
Blocked,m160,done,23,m160dime.wav,space,395.0944698,218,377472.9087,384355.9174,385105.3075,385872.1921,386638.9714,387405.464,373572.6576,374339.3382,378222.4731,378989.1704,379755.6615,380522.19,381289.0966,382055.4397,382823.1211,383589.4146,386648.2285,Mapping
Blocked,m160,done,23,m160cad.wav,None,730.3745403,218,377472.9087,384355.9174,385105.3075,385872.1921,386638.9714,387405.464,388171.9576,374339.3382,378222.4731,378989.1704,379755.6615,380522.19,381289.0966,382055.4397,382823.1211,383589.4146,387414.5335,Mapping
Blocked,m160,done,23,m160depth.wav,None,729.4213708,218,377472.9087,384355.9174,385105.3075,385872.1921,386638.9714,387405.464,388171.9576,388938.7749,378222.4731,378989.1704,379755.6615,380522.19,381289.0966,382055.4397,382823.1211,383589.4146,388180.9832,Mapping
Blocked,m160,ball,1,m160cave.wav,None,727.4185709,218,392072.6777,384355.9174,385105.3075,385872.1921,386638.9714,387405.464,388171.9576,388938.7749,378222.4731,378989.1704,379755.6615,380522.19,381289.0966,382055.4397,382823.1211,383589.4146,388948.3412,Mapping
Blocked,m160,ball,1,m160knife.wav,None,719.3047273,218,392072.6777,384355.9174,385105.3075,385872.1921,386638.9714,387405.464,388171.9576,388938.7749,392822.1317,378989.1704,379755.6615,380522.19,381289.0966,382055.4397,382823.1211,383589.4146,392082.5952,Mapping
Blocked,m160,ball,1,m160romp.wav,None,736.0515101,218,392072.6777,384355.9174,385105.3075,385872.1921,386638.9714,387405.464,388171.9576,388938.7749,392822.1317,393588.5662,379755.6615,380522.19,381289.0966,382055.4397,382823.1211,383589.4146,392831.3814,Mapping
Blocked,m160,ball,1,m160ball.wav,None,734.5563665,218,392072.6777,384355.9174,385105.3075,385872.1921,386638.9714,387405.464,388171.9576,388938.7749,392822.1317,393588.5662,394355.2657,380522.19,381289.0966,382055.4397,382823.1211,383589.4146,393598.3808,Mapping
Blocked,m160,ball,1,m160cling.wav,space,342.4954676,218,392072.6777,384355.9174,385105.3075,385872.1921,386638.9714,387405.464,388171.9576,388938.7749,392822.1317,393588.5662,394355.2657,395122.0184,381289.0966,382055.4397,382823.1211,383589.4146,394364.6258,Mapping
Blocked,m160,ball,1,m160cave.wav,None,730.5192316,218,392072.6777,384355.9174,385105.3075,385872.1921,386638.9714,387405.464,388171.9576,388938.7749,392822.1317,393588.5662,394355.2657,395122.0184,395888.677,382055.4397,382823.1211,383589.4146,395131.3231,Mapping
Blocked,m160,ball,1,m160ball.wav,None,729.4031298,218,392072.6777,384355.9174,385105.3075,385872.1921,386638.9714,387405.464,388171.9576,388938.7749,392822.1317,393588.5662,394355.2657,395122.0184,395888.677,396655.2436,382823.1211,383589.4146,395897.9388,Mapping
Blocked,m160,ball,1,m160dime.wav,space,530.0651853,218,392072.6777,384355.9174,385105.3075,385872.1921,386638.9714,387405.464,388171.9576,388938.7749,392822.1317,393588.5662,394355.2657,395122.0184,395888.677,396655.2436,397421.982,383589.4146,396664.9803,Mapping
Blocked,m160,ball,1,m160park.wav,None,724.9204816,218,392072.6777,384355.9174,385105.3075,385872.1921,386638.9714,387405.464,388171.9576,388938.7749,392822.1317,393588.5662,394355.2657,395122.0184,395888.677,396655.2436,397421.982,398188.7189,397431.489,Mapping
Blocked,m160,ball,1,m160ball.wav,None,723.6414475,218,392072.6777,398955.5591,385105.3075,385872.1921,386638.9714,387405.464,388171.9576,388938.7749,392822.1317,393588.5662,394355.2657,395122.0184,395888.677,396655.2436,397421.982,398188.7189,398198.2358,Mapping
Blocked,m160,ball,1,m160jaw.wav,space,349.6360457,218,392072.6777,398955.5591,399705.5686,385872.1921,386638.9714,387405.464,388171.9576,388938.7749,392822.1317,393588.5662,394355.2657,395122.0184,395888.677,396655.2436,397421.982,398188.7189,398965.301,Mapping
Blocked,m160,ball,1,m160ball.wav,None,735.5132461,218,392072.6777,398955.5591,399705.5686,400471.7521,386638.9714,387405.464,388171.9576,388938.7749,392822.1317,393588.5662,394355.2657,395122.0184,395888.677,396655.2436,397421.982,398188.7189,399715.2679,Mapping
Blocked,m160,ball,1,m160bluff.wav,space,311.1017811,218,392072.6777,398955.5591,399705.5686,400471.7521,401238.2846,387405.464,388171.9576,388938.7749,392822.1317,393588.5662,394355.2657,395122.0184,395888.677,396655.2436,397421.982,398188.7189,400475.8143,Mapping
Blocked,m160,ball,1,m160park.wav,None,732.329728,218,392072.6777,398955.5591,399705.5686,400471.7521,401238.2846,402005.1458,388171.9576,388938.7749,392822.1317,393588.5662,394355.2657,395122.0184,395888.677,396655.2436,397421.982,398188.7189,401247.5331,Mapping
Blocked,m160,ball,1,m160park.wav,None,730.5965239,218,392072.6777,398955.5591,399705.5686,400471.7521,401238.2846,402005.1458,402771.7974,388938.7749,392822.1317,393588.5662,394355.2657,395122.0184,395888.677,396655.2436,397421.982,398188.7189,402014.7842,Mapping
Blocked,m160,ball,1,m160cave.wav,None,729.9571615,218,392072.6777,398955.5591,399705.5686,400471.7521,401238.2846,402005.1458,402771.7974,403538.717,392822.1317,393588.5662,394355.2657,395122.0184,395888.677,396655.2436,397421.982,398188.7189,402781.0756,Mapping
Blocked,m160,done,19,m160jaw.wav,None,728.7844817,218,406672.1211,398955.5591,399705.5686,400471.7521,401238.2846,402005.1458,402771.7974,403538.717,392822.1317,393588.5662,394355.2657,395122.0184,395888.677,396655.2436,397421.982,398188.7189,403548.2004,Mapping
Blocked,m160,done,19,m160done.wav,None,720.1261906,218,406672.1211,398955.5591,399705.5686,400471.7521,401238.2846,402005.1458,402771.7974,403538.717,407438.7106,393588.5662,394355.2657,395122.0184,395888.677,396655.2436,397421.982,398188.7189,406682.3423,Mapping
Blocked,m160,done,19,m160cave.wav,space,417.670643,218,406672.1211,398955.5591,399705.5686,400471.7521,401238.2846,402005.1458,402771.7974,403538.717,407438.7106,408188.4759,394355.2657,395122.0184,395888.677,396655.2436,397421.982,398188.7189,407448.9799,Mapping
Blocked,m160,done,19,m160done.wav,None,733.2798058,218,406672.1211,398955.5591,399705.5686,400471.7521,401238.2846,402005.1458,402771.7974,403538.717,407438.7106,408188.4759,408954.69,395122.0184,395888.677,396655.2436,397421.982,398188.7189,408197.9253,Mapping
Blocked,m160,done,19,m160knife.wav,space,350.7351432,218,406672.1211,398955.5591,399705.5686,400471.7521,401238.2846,402005.1458,402771.7974,403538.717,407438.7106,408188.4759,408954.69,409721.5134,395888.677,396655.2436,397421.982,398188.7189,408963.9038,Mapping
Blocked,m160,done,19,m160jolt.wav,None,729.3246007,218,406672.1211,398955.5591,399705.5686,400471.7521,401238.2846,402005.1458,402771.7974,403538.717,407438.7106,408188.4759,408954.69,409721.5134,410488.2692,396655.2436,397421.982,398188.7189,409730.8875,Mapping
Blocked,m160,done,19,m160done.wav,None,728.4131691,218,406672.1211,398955.5591,399705.5686,400471.7521,401238.2846,402005.1458,402771.7974,403538.717,407438.7106,408188.4759,408954.69,409721.5134,410488.2692,411254.7482,397421.982,398188.7189,410497.3507,Mapping
Blocked,m160,done,19,m160depth.wav,space,482.7616378,218,406672.1211,398955.5591,399705.5686,400471.7521,401238.2846,402005.1458,402771.7974,403538.717,407438.7106,408188.4759,408954.69,409721.5134,410488.2692,411254.7482,412021.853,398188.7189,411263.8298,Mapping
Blocked,m160,done,19,m160bluff.wav,None,723.065774,218,406672.1211,398955.5591,399705.5686,400471.7521,401238.2846,402005.1458,402771.7974,403538.717,407438.7106,408188.4759,408954.69,409721.5134,410488.2692,411254.7482,412021.853,412788.3234,412031.7591,Mapping
Blocked,m160,done,19,m160ball.wav,None,721.8145651,218,406672.1211,413555.2161,399705.5686,400471.7521,401238.2846,402005.1458,402771.7974,403538.717,407438.7106,408188.4759,408954.69,409721.5134,410488.2692,411254.7482,412021.853,412788.3234,412798.6512,Mapping
Blocked,m160,done,19,m160priest.wav,None,721.2330173,218,406672.1211,413555.2161,414322.1091,400471.7521,401238.2846,402005.1458,402771.7974,403538.717,407438.7106,408188.4759,408954.69,409721.5134,410488.2692,411254.7482,412021.853,412788.3234,413564.7951,Mapping
Blocked,m160,done,19,m160cave.wav,None,719.8287696,218,406672.1211,413555.2161,414322.1091,415088.62,401238.2846,402005.1458,402771.7974,403538.717,407438.7106,408188.4759,408954.69,409721.5134,410488.2692,411254.7482,412021.853,412788.3234,414331.8369,Mapping
Blocked,m160,done,19,m160park.wav,None,718.7126678,218,406672.1211,413555.2161,414322.1091,415088.62,415854.9624,402005.1458,402771.7974,403538.717,407438.7106,408188.4759,408954.69,409721.5134,410488.2692,411254.7482,412021.853,412788.3234,415098.4454,Mapping
Blocked,m160,done,19,m160lash.wav,None,728.1528484,218,406672.1211,413555.2161,414322.1091,415088.62,415854.9624,416621.5286,402771.7974,403538.717,407438.7106,408188.4759,408954.69,409721.5134,410488.2692,411254.7482,412021.853,412788.3234,415859.4389,Mapping
Blocked,m160,done,19,m160done.wav,None,721.6182425,218,406672.1211,413555.2161,414322.1091,415088.62,415854.9624,416621.5286,417388.3274,403538.717,407438.7106,408188.4759,408954.69,409721.5134,410488.2692,411254.7482,412021.853,412788.3234,416631.6066,Mapping
Blocked,m160,done,19,m160knife.wav,space,379.6632031,218,406672.1211,413555.2161,414322.1091,415088.62,415854.9624,416621.5286,417388.3274,418137.786,407438.7106,408188.4759,408954.69,409721.5134,410488.2692,411254.7482,412021.853,412788.3234,417398.6972,Mapping
Blocked,m160,tile,13,m160ball.wav,None,734.7446507,218,421271.755,413555.2161,414322.1091,415088.62,415854.9624,416621.5286,417388.3274,418137.786,407438.7106,408188.4759,408954.69,409721.5134,410488.2692,411254.7482,412021.853,412788.3234,418147.6358,Mapping
Blocked,m160,tile,13,m160tile.wav,None,718.9630951,218,421271.755,413555.2161,414322.1091,415088.62,415854.9624,416621.5286,417388.3274,418137.786,422021.5476,408188.4759,408954.69,409721.5134,410488.2692,411254.7482,412021.853,412788.3234,421282.1536,Mapping
Blocked,m160,tile,13,m160jaw.wav,space,611.3804664,218,421271.755,413555.2161,414322.1091,415088.62,415854.9624,416621.5286,417388.3274,418137.786,422021.5476,422787.8244,408954.69,409721.5134,410488.2692,411254.7482,412021.853,412788.3234,422030.8607,Mapping
Blocked,m160,tile,13,m160cling.wav,None,733.2414688,218,421271.755,413555.2161,414322.1091,415088.62,415854.9624,416621.5286,417388.3274,418137.786,422021.5476,422787.8244,423554.4506,409721.5134,410488.2692,411254.7482,412021.853,412788.3234,422797.148,Mapping
Blocked,m160,tile,13,m160tile.wav,None,732.202041,218,421271.755,413555.2161,414322.1091,415088.62,415854.9624,416621.5286,417388.3274,418137.786,422021.5476,422787.8244,423554.4506,424321.1281,410488.2692,411254.7482,412021.853,412788.3234,423563.8522,Mapping
Blocked,m160,tile,13,m160knife.wav,space,359.4732,218,421271.755,413555.2161,414322.1091,415088.62,415854.9624,416621.5286,417388.3274,418137.786,422021.5476,422787.8244,423554.4506,424321.1281,425087.7806,411254.7482,412021.853,412788.3234,424330.7096,Mapping
Blocked,m160,tile,13,m160romp.wav,None,728.693895,218,421271.755,413555.2161,414322.1091,415088.62,415854.9624,416621.5286,417388.3274,418137.786,422021.5476,422787.8244,423554.4506,424321.1281,425087.7806,425854.4198,412021.853,412788.3234,425096.9339,Mapping
Blocked,m160,tile,13,m160knife.wav,None,727.4173343,218,421271.755,413555.2161,414322.1091,415088.62,415854.9624,416621.5286,417388.3274,418137.786,422021.5476,422787.8244,423554.4506,424321.1281,425087.7806,425854.4198,426621.097,412788.3234,425863.7543,Mapping
Blocked,m160,tile,13,m160lash.wav,None,726.5278537,218,421271.755,413555.2161,414322.1091,415088.62,415854.9624,416621.5286,417388.3274,418137.786,422021.5476,422787.8244,423554.4506,424321.1281,425087.7806,425854.4198,426621.097,427387.6759,426630.7094,Mapping
Blocked,m160,tile,13,m160tile.wav,None,725.4442147,218,421271.755,428154.6426,414322.1091,415088.62,415854.9624,416621.5286,417388.3274,418137.786,422021.5476,422787.8244,423554.4506,424321.1281,425087.7806,425854.4198,426621.097,427387.6759,427397.412,Mapping
Blocked,m160,tile,13,m160cad.wav,space,350.0330193,218,421271.755,428154.6426,428921.4066,415088.62,415854.9624,416621.5286,417388.3274,418137.786,422021.5476,422787.8244,423554.4506,424321.1281,425087.7806,425854.4198,426621.097,427387.6759,428164.0701,Mapping
Blocked,m160,tile,13,m160lash.wav,None,720.5639746,218,421271.755,428154.6426,428921.4066,429688.2258,415854.9624,416621.5286,417388.3274,418137.786,422021.5476,422787.8244,423554.4506,424321.1281,425087.7806,425854.4198,426621.097,427387.6759,428931.3566,Mapping
Blocked,m160,tile,13,m160reek.wav,None,719.5081608,218,421271.755,428154.6426,428921.4066,429688.2258,430437.8164,416621.5286,417388.3274,418137.786,422021.5476,422787.8244,423554.4506,424321.1281,425087.7806,425854.4198,426621.097,427387.6759,429697.9992,Mapping
Blocked,m160,tile,13,m160reek.wav,None,736.007608,218,421271.755,428154.6426,428921.4066,429688.2258,430437.8164,431203.8073,417388.3274,418137.786,422021.5476,422787.8244,423554.4506,424321.1281,425087.7806,425854.4198,426621.097,427387.6759,430447.2643,Mapping
Blocked,m160,tile,13,m160tile.wav,None,736.3309993,218,421271.755,428154.6426,428921.4066,429688.2258,430437.8164,431203.8073,431970.9038,418137.786,422021.5476,422787.8244,423554.4506,424321.1281,425087.7806,425854.4198,426621.097,427387.6759,431212.8771,Mapping
Blocked,m160,tile,13,m160reek.wav,space,477.7815359,218,421271.755,428154.6426,428921.4066,429688.2258,430437.8164,431203.8073,431970.9038,432737.2381,422021.5476,422787.8244,423554.4506,424321.1281,425087.7806,425854.4198,426621.097,427387.6759,431980.1897,Mapping
Blocked,m160,tile,15,m160jolt.wav,None,731.8437136,218,435871.238,428154.6426,428921.4066,429688.2258,430437.8164,431203.8073,431970.9038,432737.2381,422021.5476,422787.8244,423554.4506,424321.1281,425087.7806,425854.4198,426621.097,427387.6759,432746.6975,Mapping
Blocked,m160,tile,15,m160tile.wav,None,719.523001,218,435871.238,428154.6426,428921.4066,429688.2258,430437.8164,431203.8073,431970.9038,432737.2381,436637.7415,422787.8244,423554.4506,424321.1281,425087.7806,425854.4198,426621.097,427387.6759,435881.1636,Mapping
Blocked,m160,tile,15,m160ball.wav,space,554.0409687,218,435871.238,428154.6426,428921.4066,429688.2258,430437.8164,431203.8073,431970.9038,432737.2381,436637.7415,437387.1253,423554.4506,424321.1281,425087.7806,425854.4198,426621.097,427387.6759,436647.7781,Mapping
Blocked,m160,tile,15,m160priest.wav,None,733.9336992,218,435871.238,428154.6426,428921.4066,429688.2258,430437.8164,431203.8073,431970.9038,432737.2381,436637.7415,437387.1253,438154.0199,424321.1281,425087.7806,425854.4198,426621.097,427387.6759,437396.1951,Mapping
Blocked,m160,tile,15,m160cad.wav,None,732.5251231,218,435871.238,428154.6426,428921.4066,429688.2258,430437.8164,431203.8073,431970.9038,432737.2381,436637.7415,437387.1253,438154.0199,438920.6971,425087.7806,425854.4198,426621.097,427387.6759,438163.4291,Mapping
Blocked,m160,tile,15,m160tile.wav,None,731.5821562,218,435871.238,428154.6426,428921.4066,429688.2258,430437.8164,431203.8073,431970.9038,432737.2381,436637.7415,437387.1253,438154.0199,438920.6971,439687.4065,425854.4198,426621.097,427387.6759,438930.1549,Mapping
Blocked,m160,tile,15,m160gnash.wav,space,401.1306946,218,435871.238,428154.6426,428921.4066,429688.2258,430437.8164,431203.8073,431970.9038,432737.2381,436637.7415,437387.1253,438154.0199,438920.6971,439687.4065,440453.8871,426621.097,427387.6759,439696.5836,Mapping
Blocked,m160,tile,15,m160tile.wav,None,727.4683472,218,435871.238,428154.6426,428921.4066,429688.2258,430437.8164,431203.8073,431970.9038,432737.2381,436637.7415,437387.1253,438154.0199,438920.6971,439687.4065,440453.8871,441220.6419,427387.6759,440463.5631,Mapping
Blocked,m160,tile,15,m160bluff.wav,space,403.7264815,218,435871.238,428154.6426,428921.4066,429688.2258,430437.8164,431203.8073,431970.9038,432737.2381,436637.7415,437387.1253,438154.0199,438920.6971,439687.4065,440453.8871,441220.6419,441987.5309,441229.9695,Mapping
Blocked,m160,tile,15,m160ball.wav,None,723.6145498,218,435871.238,442753.9843,428921.4066,429688.2258,430437.8164,431203.8073,431970.9038,432737.2381,436637.7415,437387.1253,438154.0199,438920.6971,439687.4065,440453.8871,441220.6419,441987.5309,441996.8118,Mapping
