"Condition","Talker","Target","Trial","current_stimulus","response_response","response_time_response","subject_nr","time_Audio1","time_Audio10","time_Audio11","time_Audio12","time_Audio13","time_Audio14","time_Audio15","time_Audio16","time_Audio2","time_Audio3","time_Audio4","time_Audio5","time_Audio6","time_Audio7","time_Audio8","time_Audio9","time_response","title"
"Blocked","m160","done","21","m160reek.wav","NA","NA","138","201185.208373","NA","NA","NA","NA","NA","NA","NA","NA","NA","NA","NA","NA","NA","NA","NA","NA","Mapping"
"Blocked","m160","done","21","m160dime.wav","None","716.52890183","138","201185.208373","NA","NA","NA","NA","NA","NA","NA","201952.874517","NA","NA","NA","NA","NA","NA","NA","201199.995857","Mapping"
"Blocked","m160","done","21","m160jaw.wav","None","719.04768981","138","201185.208373","NA","NA","NA","NA","NA","NA","NA","201952.874517","202702.834943","NA","NA","NA","NA","NA","NA","201963.49133","Mapping"
"Blocked","m160","done","21","m160done.wav","None","735.739336815","138","201185.208373","NA","NA","NA","NA","NA","NA","NA","201952.874517","202702.834943","203470.067325","NA","NA","NA","NA","NA","202712.52611","Mapping"
"Blocked","m160","done","21","m160cling.wav","None","734.114661347","138","201185.208373","NA","NA","NA","NA","NA","NA","NA","201952.874517","202702.834943","203470.067325","204237.275591","NA","NA","NA","NA","203479.955431","Mapping"
"Blocked","m160","done","21","m160knife.wav","space","271.33874502","138","201185.208373","NA","NA","NA","NA","NA","NA","NA","201952.874517","202702.834943","203470.067325","204237.275591","205004.920711","NA","NA","NA","204246.374392","Mapping"
"Blocked","m160","done","21","m160done.wav","None","731.44067172","138","201185.208373","NA","NA","NA","NA","NA","NA","NA","201952.874517","202702.834943","203470.067325","204237.275591","205004.920711","205772.267794","NA","NA","205014.968966","Mapping"
"Blocked","m160","done","21","m160priest.wav","space","639.313993976","138","201185.208373","NA","NA","NA","NA","NA","NA","NA","201952.874517","202702.834943","203470.067325","204237.275591","205004.920711","205772.267794","206539.034569","NA","205782.375409","Mapping"
"Blocked","m160","done","21","m160cave.wav","None","725.720762275","138","201185.208373","NA","NA","NA","NA","NA","NA","NA","201952.874517","202702.834943","203470.067325","204237.275591","205004.920711","205772.267794","206539.034569","207306.519231","206548.844455","Mapping"
"Blocked","m160","done","21","m160done.wav","None","724.481309298","138","201185.208373","208057.527117","NA","NA","NA","NA","NA","NA","201952.874517","202702.834943","203470.067325","204237.275591","205004.920711","205772.267794","206539.034569","207306.519231","207316.040664","Mapping"
"Blocked","m160","done","21","m160reek.wav","space","586.199316662","138","201185.208373","208057.527117","208824.160023","NA","NA","NA","NA","NA","201952.874517","202702.834943","203470.067325","204237.275591","205004.920711","205772.267794","206539.034569","207306.519231","208067.369157","Mapping"
"Blocked","m160","done","21","m160park.wav","None","731.405426282","138","201185.208373","208057.527117","208824.160023","209591.664472","NA","NA","NA","NA","201952.874517","202702.834943","203470.067325","204237.275591","205004.920711","205772.267794","206539.034569","207306.519231","208833.938065","Mapping"
"Blocked","m160","done","21","m160done.wav","None","729.753544088","138","201185.208373","208057.527117","208824.160023","209591.664472","210358.772568","NA","NA","NA","201952.874517","202702.834943","203470.067325","204237.275591","205004.920711","205772.267794","206539.034569","207306.519231","209601.538356","Mapping"
"Blocked","m160","done","21","m160greet.wav","space","500.625445973","138","201185.208373","208057.527117","208824.160023","209591.664472","210358.772568","211126.059981","NA","NA","201952.874517","202702.834943","203470.067325","204237.275591","205004.920711","205772.267794","206539.034569","207306.519231","210368.874309","Mapping"
"Blocked","m160","done","21","m160cad.wav","None","723.158072215","138","201185.208373","208057.527117","208824.160023","209591.664472","210358.772568","211126.059981","211892.994944","NA","201952.874517","202702.834943","203470.067325","204237.275591","205004.920711","205772.267794","206539.034569","207306.519231","211136.174089","Mapping"
"Blocked","m160","done","21","m160cave.wav","None","725.414686371","138","201185.208373","208057.527117","208824.160023","209591.664472","210358.772568","211126.059981","211892.994944","212660.144159","201952.874517","202702.834943","203470.067325","204237.275591","205004.920711","205772.267794","206539.034569","207306.519231","211902.560897","Mapping"
"Blocked","m160","done","20","m160jolt.wav","None","720.745637547","138","215812.84449","208057.527117","208824.160023","209591.664472","210358.772568","211126.059981","211892.994944","212660.144159","201952.874517","202702.834943","203470.067325","204237.275591","205004.920711","205772.267794","206539.034569","207306.519231","212669.812138","Mapping"
"Blocked","m160","done","20","m160jolt.wav","None","721.803609747","138","215812.84449","208057.527117","208824.160023","209591.664472","210358.772568","211126.059981","211892.994944","212660.144159","216563.017624","202702.834943","203470.067325","204237.275591","205004.920711","205772.267794","206539.034569","207306.519231","215822.43765","Mapping"
"Blocked","m160","done","20","m160cave.wav","None","734.62787969","138","215812.84449","208057.527117","208824.160023","209591.664472","210358.772568","211126.059981","211892.994944","212660.144159","216563.017624","217330.380165","203470.067325","204237.275591","205004.920711","205772.267794","206539.034569","207306.519231","216572.183205","Mapping"
"Blocked","m160","done","20","m160bluff.wav","None","728.839335497","138","215812.84449","208057.527117","208824.160023","209591.664472","210358.772568","211126.059981","211892.994944","212660.144159","216563.017624","217330.380165","218098.236447","204237.275591","205004.920711","205772.267794","206539.034569","207306.519231","217340.589805","Mapping"
"Blocked","m160","done","20","m160cling.wav","None","727.790948004","138","215812.84449","208057.527117","208824.160023","209591.664472","210358.772568","211126.059981","211892.994944","212660.144159","216563.017624","217330.380165","218098.236447","218865.107411","205004.920711","205772.267794","206539.034569","207306.519231","218107.489832","Mapping"
"Blocked","m160","done","20","m160done.wav","None","722.908883356","138","215812.84449","208057.527117","208824.160023","209591.664472","210358.772568","211126.059981","211892.994944","212660.144159","216563.017624","217330.380165","218098.236447","218865.107411","219615.370822","205772.267794","206539.034569","207306.519231","218874.893492","Mapping"
"Blocked","m160","done","20","m160tile.wav","space","572.130646557","138","215812.84449","208057.527117","208824.160023","209591.664472","210358.772568","211126.059981","211892.994944","212660.144159","216563.017624","217330.380165","218098.236447","218865.107411","219615.370822","220382.738309","206539.034569","207306.519231","219625.028598","Mapping"
"Blocked","m160","done","20","m160done.wav","None","733.463863842","138","215812.84449","208057.527117","208824.160023","209591.664472","210358.772568","211126.059981","211892.994944","212660.144159","216563.017624","217330.380165","218098.236447","218865.107411","219615.370822","220382.738309","221150.110126","207306.519231","220392.575094","Mapping"
"Blocked","m160","done","20","m160reek.wav","None","728.76853589","138","215812.84449","208057.527117","208824.160023","209591.664472","210358.772568","211126.059981","211892.994944","212660.144159","216563.017624","217330.380165","218098.236447","218865.107411","219615.370822","220382.738309","221150.110126","221917.193488","221159.735439","Mapping"
"Blocked","m160","done","20","m160done.wav","space","38.2418632507","138","215812.84449","222684.444111","208824.160023","209591.664472","210358.772568","211126.059981","211892.994944","212660.144159","216563.017624","217330.380165","218098.236447","218865.107411","219615.370822","220382.738309","221150.110126","221917.193488","221926.858685","Mapping"
"Blocked","m160","done","20","m160depth.wav","space","358.326438814","138","215812.84449","222684.444111","223434.553247","209591.664472","210358.772568","211126.059981","211892.994944","212660.144159","216563.017624","217330.380165","218098.236447","218865.107411","219615.370822","220382.738309","221150.110126","221917.193488","222694.75052","Mapping"
"Blocked","m160","done","20","m160gnash.wav","None","735.492311884","138","215812.84449","222684.444111","223434.553247","224202.186928","210358.772568","211126.059981","211892.994944","212660.144159","216563.017624","217330.380165","218098.236447","218865.107411","219615.370822","220382.738309","221150.110126","221917.193488","223443.935864","Mapping"
"Blocked","m160","done","20","m160done.wav","None","733.763447497","138","215812.84449","222684.444111","223434.553247","224202.186928","224969.106741","211126.059981","211892.994944","212660.144159","216563.017624","217330.380165","218098.236447","218865.107411","219615.370822","220382.738309","221150.110126","221917.193488","224211.636943","Mapping"
"Blocked","m160","done","20","m160tile.wav","space","690.584487282","138","215812.84449","222684.444111","223434.553247","224202.186928","224969.106741","225736.579964","211892.994944","212660.144159","216563.017624","217330.380165","218098.236447","218865.107411","219615.370822","220382.738309","221150.110126","221917.193488","224978.38084","Mapping"
"Blocked","m160","done","20","m160reek.wav","None","723.990661092","138","215812.84449","222684.444111","223434.553247","224202.186928","224969.106741","225736.579964","226487.493245","212660.144159","216563.017624","217330.380165","218098.236447","218865.107411","219615.370822","220382.738309","221150.110126","221917.193488","225746.332963","Mapping"
"Blocked","m160","done","20","m160jaw.wav","None","735.620616935","138","215812.84449","222684.444111","223434.553247","224202.186928","224969.106741","225736.579964","226487.493245","227254.244871","216563.017624","217330.380165","218098.236447","218865.107411","219615.370822","220382.738309","221150.110126","221917.193488","226497.417524","Mapping"
"Blocked","m160","tile","18","m160cave.wav","None","731.899784878","138","230372.999222","222684.444111","223434.553247","224202.186928","224969.106741","225736.579964","226487.493245","227254.244871","216563.017624","217330.380165","218098.236447","218865.107411","219615.370822","220382.738309","221150.110126","221917.193488","227263.638927","Mapping"
"Blocked","m160","tile","18","m160cad.wav","None","735.01217505","138","230372.999222","222684.444111","223434.553247","224202.186928","224969.106741","225736.579964","226487.493245","227254.244871","231140.16606","217330.380165","218098.236447","218865.107411","219615.370822","220382.738309","221150.110126","221917.193488","230382.806017","Mapping"
"Blocked","m160","tile","18","m160jolt.wav","None","731.112644542","138","230372.999222","222684.444111","223434.553247","224202.186928","224969.106741","225736.579964","226487.493245","227254.244871","231140.16606","231907.861265","218098.236447","218865.107411","219615.370822","220382.738309","221150.110126","221917.193488","231149.401204","Mapping"
"Blocked","m160","tile","18","m160knife.wav","None","726.932390127","138","230372.999222","222684.444111","223434.553247","224202.186928","224969.106741","225736.579964","226487.493245","227254.244871","231140.16606","231907.861265","232674.822198","218865.107411","219615.370822","220382.738309","221150.110126","221917.193488","231917.407123","Mapping"
"Blocked","m160","tile","18","m160tile.wav","None","723.641610239","138","230372.999222","222684.444111","223434.553247","224202.186928","224969.106741","225736.579964","226487.493245","227254.244871","231140.16606","231907.861265","232674.822198","233425.461247","219615.370822","220382.738309","221150.110126","221917.193488","232683.891319","Mapping"
"Blocked","m160","tile","18","m160gnash.wav","space","713.756905403","138","230372.999222","222684.444111","223434.553247","224202.186928","224969.106741","225736.579964","226487.493245","227254.244871","231140.16606","231907.861265","232674.822198","233425.461247","234192.429291","220382.738309","221150.110126","221917.193488","233434.924557","Mapping"
"Blocked","m160","tile","18","m160cave.wav","None","730.929926503","138","230372.999222","222684.444111","223434.553247","224202.186928","224969.106741","225736.579964","226487.493245","227254.244871","231140.16606","231907.861265","232674.822198","233425.461247","234192.429291","234959.688879","221150.110126","221917.193488","234201.719157","Mapping"
"Blocked","m160","tile","18","m160tile.wav","None","726.448233705","138","230372.999222","222684.444111","223434.553247","224202.186928","224969.106741","225736.579964","226487.493245","227254.244871","231140.16606","231907.861265","232674.822198","233425.461247","234192.429291","234959.688879","235726.894672","221917.193488","234968.905473","Mapping"
"Blocked","m160","tile","18","m160gnash.wav","None","720.96112743","138","230372.999222","222684.444111","223434.553247","224202.186928","224969.106741","225736.579964","226487.493245","227254.244871","231140.16606","231907.861265","232674.822198","233425.461247","234192.429291","234959.688879","235726.894672","236477.823102","235737.036604","Mapping"
"Blocked","m160","tile","18","m160tile.wav","space","0.0346265733242","138","230372.999222","237245.062904","223434.553247","224202.186928","224969.106741","225736.579964","226487.493245","227254.244871","231140.16606","231907.861265","232674.822198","233425.461247","234192.429291","234959.688879","235726.894672","236477.823102","236487.639481","Mapping"
"Blocked","m160","tile","18","m160bluff.wav","space","606.161338743","138","230372.999222","237245.062904","238012.278899","224202.186928","224969.106741","225736.579964","226487.493245","227254.244871","231140.16606","231907.861265","232674.822198","233425.461247","234192.429291","234959.688879","235726.894672","236477.823102","237254.328346","Mapping"
"Blocked","m160","tile","18","m160cad.wav","None","723.36799698","138","230372.999222","237245.062904","238012.278899","238762.540455","224969.106741","225736.579964","226487.493245","227254.244871","231140.16606","231907.861265","232674.822198","233425.461247","234192.429291","234959.688879","235726.894672","236477.823102","238022.117538","Mapping"
"Blocked","m160","tile","18","m160done.wav","None","735.75912416","138","230372.999222","237245.062904","238012.278899","238762.540455","239530.040884","225736.579964","226487.493245","227254.244871","231140.16606","231907.861265","232674.822198","233425.461247","234192.429291","234959.688879","235726.894672","236477.823102","238772.475554","Mapping"
"Blocked","m160","tile","18","m160jaw.wav","None","730.985885952","138","230372.999222","237245.062904","238012.278899","238762.540455","239530.040884","240297.303255","226487.493245","227254.244871","231140.16606","231907.861265","232674.822198","233425.461247","234192.429291","234959.688879","235726.894672","236477.823102","239539.988041","Mapping"
"Blocked","m160","tile","18","m160tile.wav","None","726.737305056","138","230372.999222","237245.062904","238012.278899","238762.540455","239530.040884","240297.303255","241064.459891","227254.244871","231140.16606","231907.861265","232674.822198","233425.461247","234192.429291","234959.688879","235726.894672","236477.823102","240307.032758","Mapping"
"Blocked","m160","tile","18","m160cad.wav","space","562.29169853","138","230372.999222","237245.062904","238012.278899","238762.540455","239530.040884","240297.303255","241064.459891","241814.8649","231140.16606","231907.861265","232674.822198","233425.461247","234192.429291","234959.688879","235726.894672","236477.823102","241074.083968","Mapping"
"Blocked","m160","ball","3","m160gnash.wav","None","734.865011182","138","244933.847108","237245.062904","238012.278899","238762.540455","239530.040884","240297.303255","241064.459891","241814.8649","231140.16606","231907.861265","232674.822198","233425.461247","234192.429291","234959.688879","235726.894672","236477.823102","241824.434254","Mapping"
"Blocked","m160","ball","3","m160jolt.wav","None","734.744745307","138","244933.847108","237245.062904","238012.278899","238762.540455","239530.040884","240297.303255","241064.459891","241814.8649","245700.838957","231907.861265","232674.822198","233425.461247","234192.429291","234959.688879","235726.894672","236477.823102","244943.516942","Mapping"
"Blocked","m160","ball","3","m160tile.wav","None","730.888807215","138","244933.847108","237245.062904","238012.278899","238762.540455","239530.040884","240297.303255","241064.459891","241814.8649","245700.838957","246468.509429","232674.822198","233425.461247","234192.429291","234959.688879","235726.894672","236477.823102","245710.082758","Mapping"
"Blocked","m160","ball","3","m160ball.wav","None","725.465080701","138","244933.847108","237245.062904","238012.278899","238762.540455","239530.040884","240297.303255","241064.459891","241814.8649","245700.838957","246468.509429","247235.554764","233425.461247","234192.429291","234959.688879","235726.894672","236477.823102","246478.314678","Mapping"
"Blocked","m160","ball","3","m160cling.wav","None","724.383921828","138","244933.847108","237245.062904","238012.278899","238762.540455","239530.040884","240297.303255","241064.459891","241814.8649","245700.838957","246468.509429","247235.554764","248002.605046","234192.429291","234959.688879","235726.894672","236477.823102","247245.506868","Mapping"
"Blocked","m160","ball","3","m160tile.wav","space","240.02378108","138","244933.847108","237245.062904","238012.278899","238762.540455","239530.040884","240297.303255","241064.459891","241814.8649","245700.838957","246468.509429","247235.554764","248002.605046","248753.162166","234959.688879","235726.894672","236477.823102","248012.127407","Mapping"
"Blocked","m160","ball","3","m160knife.wav","None","731.296598911","138","244933.847108","237245.062904","238012.278899","238762.540455","239530.040884","240297.303255","241064.459891","241814.8649","245700.838957","246468.509429","247235.554764","248002.605046","248753.162166","249520.523161","235726.894672","236477.823102","248763.858745","Mapping"
"Blocked","m160","ball","3","m160priest.wav","None","727.529392578","138","244933.847108","237245.062904","238012.278899","238762.540455","239530.040884","240297.303255","241064.459891","241814.8649","245700.838957","246468.509429","247235.554764","248002.605046","248753.162166","249520.523161","250287.776875","236477.823102","249530.389007","Mapping"
"Blocked","m160","ball","3","m160ball.wav","None","723.121590447","138","244933.847108","237245.062904","238012.278899","238762.540455","239530.040884","240297.303255","241064.459891","241814.8649","245700.838957","246468.509429","247235.554764","248002.605046","248753.162166","249520.523161","250287.776875","251038.197652","250297.492157","Mapping"
"Blocked","m160","ball","3","m160gnash.wav","None","735.110180918","138","244933.847108","251805.337283","238012.278899","238762.540455","239530.040884","240297.303255","241064.459891","241814.8649","245700.838957","246468.509429","247235.554764","248002.605046","248753.162166","249520.523161","250287.776875","251038.197652","251048.11111","Mapping"
"Blocked","m160","ball","3","m160romp.wav","space","13.2821477018","138","244933.847108","251805.337283","252572.37458","238762.540455","239530.040884","240297.303255","241064.459891","241814.8649","245700.838957","246468.509429","247235.554764","248002.605046","248753.162166","249520.523161","250287.776875","251038.197652","251814.732267","Mapping"
"Blocked","m160","ball","3","m160ball.wav","None","730.096101761","138","244933.847108","251805.337283","252572.37458","253339.71517","239530.040884","240297.303255","241064.459891","241814.8649","245700.838957","246468.509429","247235.554764","248002.605046","248753.162166","249520.523161","250287.776875","251038.197652","252581.77853","Mapping"
"Blocked","m160","ball","3","m160cave.wav","space","694.741245359","138","244933.847108","251805.337283","252572.37458","253339.71517","254107.236314","240297.303255","241064.459891","241814.8649","245700.838957","246468.509429","247235.554764","248002.605046","248753.162166","249520.523161","250287.776875","251038.197652","253349.186518","Mapping"
"Blocked","m160","ball","3","m160ball.wav","None","720.138741657","138","244933.847108","251805.337283","252572.37458","253339.71517","254107.236314","254857.535589","241064.459891","241814.8649","245700.838957","246468.509429","247235.554764","248002.605046","248753.162166","249520.523161","250287.776875","251038.197652","254117.031361","Mapping"
"Blocked","m160","ball","3","m160dime.wav","space","544.164276682","138","244933.847108","251805.337283","252572.37458","253339.71517","254107.236314","254857.535589","255624.870304","241814.8649","245700.838957","246468.509429","247235.554764","248002.605046","248753.162166","249520.523161","250287.776875","251038.197652","254867.7375","Mapping"
"Blocked","m160","ball","3","m160cad.wav","None","728.193175048","138","244933.847108","251805.337283","252572.37458","253339.71517","254107.236314","254857.535589","255624.870304","256392.166374","245700.838957","246468.509429","247235.554764","248002.605046","248753.162166","249520.523161","250287.776875","251038.197652","255634.07886","Mapping"
"Blocked","m160","cave","12","m160romp.wav","None","723.064703867","138","259494.371605","251805.337283","252572.37458","253339.71517","254107.236314","254857.535589","255624.870304","256392.166374","245700.838957","246468.509429","247235.554764","248002.605046","248753.162166","249520.523161","250287.776875","251038.197652","256402.008414","Mapping"
"Blocked","m160","cave","12","m160done.wav","None","734.877068549","138","259494.371605","251805.337283","252572.37458","253339.71517","254107.236314","254857.535589","255624.870304","256392.166374","260261.780212","246468.509429","247235.554764","248002.605046","248753.162166","249520.523161","250287.776875","251038.197652","259503.791631","Mapping"
"Blocked","m160","cave","12","m160cave.wav","None","729.752307292","138","259494.371605","251805.337283","252572.37458","253339.71517","254107.236314","254857.535589","255624.870304","256392.166374","260261.780212","261028.655814","247235.554764","248002.605046","248753.162166","249520.523161","250287.776875","251038.197652","260271.702326","Mapping"
"Blocked","m160","cave","12","m160romp.wav","space","549.348089378","138","259494.371605","251805.337283","252572.37458","253339.71517","254107.236314","254857.535589","255624.870304","256392.166374","260261.780212","261028.655814","261796.216531","248002.605046","248753.162166","249520.523161","250287.776875","251038.197652","261038.322865","Mapping"
"Blocked","m160","cave","12","m160jolt.wav","None","720.479444601","138","259494.371605","251805.337283","252572.37458","253339.71517","254107.236314","254857.535589","255624.870304","256392.166374","260261.780212","261028.655814","261796.216531","262546.78509","248753.162166","249520.523161","250287.776875","251038.197652","261805.957473","Mapping"
"Blocked","m160","cave","12","m160cave.wav","None","732.41671361","138","259494.371605","251805.337283","252572.37458","253339.71517","254107.236314","254857.535589","255624.870304","256392.166374","260261.780212","261028.655814","261796.216531","262546.78509","263313.93647","249520.523161","250287.776875","251038.197652","262556.633314","Mapping"
"Blocked","m160","cave","12","m160jaw.wav","space","424.153777305","138","259494.371605","251805.337283","252572.37458","253339.71517","254107.236314","254857.535589","255624.870304","256392.166374","260261.780212","261028.655814","261796.216531","262546.78509","263313.93647","264081.175344","250287.776875","251038.197652","263323.393906","Mapping"
"Blocked","m160","cave","12","m160bluff.wav","None","723.767750897","138","259494.371605","251805.337283","252572.37458","253339.71517","254107.236314","254857.535589","255624.870304","256392.166374","260261.780212","261028.655814","261796.216531","262546.78509","263313.93647","264081.175344","264831.633839","251038.197652","264090.746553","Mapping"
"Blocked","m160","cave","12","m160priest.wav","None","736.023771111","138","259494.371605","251805.337283","252572.37458","253339.71517","254107.236314","254857.535589","255624.870304","256392.166374","260261.780212","261028.655814","261796.216531","262546.78509","263313.93647","264081.175344","264831.633839","265598.957735","264841.251424","Mapping"
"Blocked","m160","cave","12","m160cave.wav","None","731.498485897","138","259494.371605","266366.113133","252572.37458","253339.71517","254107.236314","254857.535589","255624.870304","256392.166374","260261.780212","261028.655814","261796.216531","262546.78509","263313.93647","264081.175344","264831.633839","265598.957735","265608.532963","Mapping"
"Blocked","m160","cave","12","m160lash.wav","space","475.99252034","138","259494.371605","266366.113133","267133.504427","253339.71517","254107.236314","254857.535589","255624.870304","256392.166374","260261.780212","261028.655814","261796.216531","262546.78509","263313.93647","264081.175344","264831.633839","265598.957735","266375.490185","Mapping"
"Blocked","m160","cave","12","m160park.wav","None","725.785687566","138","259494.371605","266366.113133","267133.504427","267900.546979","254107.236314","254857.535589","255624.870304","256392.166374","260261.780212","261028.655814","261796.216531","262546.78509","263313.93647","264081.175344","264831.633839","265598.957735","267143.218162","Mapping"
"Blocked","m160","cave","12","m160cave.wav","None","721.601104364","138","259494.371605","266366.113133","267133.504427","267900.546979","268651.008876","254857.535589","255624.870304","256392.166374","260261.780212","261028.655814","261796.216531","262546.78509","263313.93647","264081.175344","264831.633839","265598.957735","267910.137666","Mapping"
"Blocked","m160","cave","12","m160greet.wav","space","406.69570351","138","259494.371605","266366.113133","267133.504427","267900.546979","268651.008876","269418.393367","255624.870304","256392.166374","260261.780212","261028.655814","261796.216531","262546.78509","263313.93647","264081.175344","264831.633839","265598.957735","268660.74549","Mapping"
"Blocked","m160","cave","12","m160ball.wav","None","728.87767246","138","259494.371605","266366.113133","267133.504427","267900.546979","268651.008876","269418.393367","270185.252893","256392.166374","260261.780212","261028.655814","261796.216531","262546.78509","263313.93647","264081.175344","264831.633839","265598.957735","269428.04867","Mapping"
"Blocked","m160","cave","12","m160tile.wav","None","725.230422337","138","259494.371605","266366.113133","267133.504427","267900.546979","268651.008876","269418.393367","270185.252893","270952.87328","260261.780212","261028.655814","261796.216531","262546.78509","263313.93647","264081.175344","264831.633839","265598.957735","270194.488037","Mapping"
"Blocked","m160","tile","16","m160reek.wav","None","720.035789069","138","274055.037391","266366.113133","267133.504427","267900.546979","268651.008876","269418.393367","270185.252893","270952.87328","260261.780212","261028.655814","261796.216531","262546.78509","263313.93647","264081.175344","264831.633839","265598.957735","270962.511579","Mapping"
"Blocked","m160","tile","16","m160tile.wav","None","734.729595482","138","274055.037391","266366.113133","267133.504427","267900.546979","268651.008876","269418.393367","270185.252893","270952.87328","274822.253386","261028.655814","261796.216531","262546.78509","263313.93647","264081.175344","264831.633839","265598.957735","274064.566554","Mapping"
"Blocked","m160","tile","16","m160depth.wav","space","587.222352158","138","274055.037391","266366.113133","267133.504427","267900.546979","268651.008876","269418.393367","270185.252893","270952.87328","274822.253386","275589.108893","261796.216531","262546.78509","263313.93647","264081.175344","264831.633839","265598.957735","274831.88983","Mapping"
"Blocked","m160","tile","16","m160tile.wav","None","728.663419373","138","274055.037391","266366.113133","267133.504427","267900.546979","268651.008876","269418.393367","270185.252893","270952.87328","274822.253386","275589.108893","276356.42815","262546.78509","263313.93647","264081.175344","264831.633839","265598.957735","275598.288077","Mapping"
"Blocked","m160","tile","16","m160greet.wav","space","356.890046038","138","274055.037391","266366.113133","267133.504427","267900.546979","268651.008876","269418.393367","270185.252893","270952.87328","274822.253386","275589.108893","276356.42815","277107.182519","263313.93647","264081.175344","264831.633839","265598.957735","276366.219487","Mapping"
"Blocked","m160","tile","16","m160lash.wav","None","735.211587977","138","274055.037391","266366.113133","267133.504427","267900.546979","268651.008876","269418.393367","270185.252893","270952.87328","274822.253386","275589.108893","276356.42815","277107.182519","277874.458802","264081.175344","264831.633839","265598.957735","277117.141115","Mapping"
"Blocked","m160","tile","16","m160ball.wav","None","731.06936086","138","274055.037391","266366.113133","267133.504427","267900.546979","268651.008876","269418.393367","270185.252893","270952.87328","274822.253386","275589.108893","276356.42815","277107.182519","277874.458802","278641.535672","264831.633839","265598.957735","277884.1645","Mapping"
"Blocked","m160","tile","16","m160tile.wav","None","726.868083235","138","274055.037391","266366.113133","267133.504427","267900.546979","268651.008876","269418.393367","270185.252893","270952.87328","274822.253386","275589.108893","276356.42815","277107.182519","277874.458802","278641.535672","279409.055271","265598.957735","278651.290836","Mapping"
"Blocked","m160","tile","16","m160priest.wav","space","400.350039825","138","274055.037391","266366.113133","267133.504427","267900.546979","268651.008876","269418.393367","270185.252893","270952.87328","274822.253386","275589.108893","276356.42815","277107.182519","277874.458802","278641.535672","279409.055271","280159.561687","279418.671309","Mapping"
"Blocked","m160","tile","16","m160depth.wav","None","733.941527549","138","274055.037391","280926.786649","267133.504427","267900.546979","268651.008876","269418.393367","270185.252893","270952.87328","274822.253386","275589.108893","276356.42815","277107.182519","277874.458802","278641.535672","279409.055271","280159.561687","280169.523375","Mapping"
"Blocked","m160","tile","16","m160tile.wav","None","730.017882306","138","274055.037391","280926.786649","281693.955651","267900.546979","268651.008876","269418.393367","270185.252893","270952.87328","274822.253386","275589.108893","276356.42815","277107.182519","277874.458802","278641.535672","279409.055271","280159.561687","280936.518316","Mapping"
"Blocked","m160","tile","16","m160done.wav","space","650.653023738","138","274055.037391","280926.786649","281693.955651","282461.185868","268651.008876","269418.393367","270185.252893","270952.87328","274822.253386","275589.108893","276356.42815","277107.182519","277874.458802","278641.535672","279409.055271","280159.561687","281704.282156","Mapping"
"Blocked","m160","tile","16","m160park.wav","None","720.709156245","138","274055.037391","280926.786649","281693.955651","282461.185868","283211.465974","269418.393367","270185.252893","270952.87328","274822.253386","275589.108893","276356.42815","277107.182519","277874.458802","278641.535672","279409.055271","280159.561687","282471.152193","Mapping"
"Blocked","m160","tile","16","m160lash.wav","None","733.664204367","138","274055.037391","280926.786649","281693.955651","282461.185868","283211.465974","283979.047715","270185.252893","270952.87328","274822.253386","275589.108893","276356.42815","277107.182519","277874.458802","278641.535672","279409.055271","280159.561687","283221.224539","Mapping"
"Blocked","m160","tile","16","m160park.wav","None","728.636830579","138","274055.037391","280926.786649","281693.955651","282461.185868","283211.465974","283979.047715","284745.812634","270952.87328","274822.253386","275589.108893","276356.42815","277107.182519","277874.458802","278641.535672","279409.055271","280159.561687","283989.186556","Mapping"
"Blocked","m160","tile","16","m160cave.wav","None","725.265976973","138","274055.037391","280926.786649","281693.955651","282461.185868","283211.465974","283979.047715","284745.812634","285513.421582","274822.253386","275589.108893","276356.42815","277107.182519","277874.458802","278641.535672","279409.055271","280159.561687","284755.651274","Mapping"
"Blocked","m160","done","19","m160cling.wav","None","720.572504215","138","288615.482122","280926.786649","281693.955651","282461.185868","283211.465974","283979.047715","284745.812634","285513.421582","274822.253386","275589.108893","276356.42815","277107.182519","277874.458802","278641.535672","279409.055271","280159.561687","285523.361938","Mapping"
"Blocked","m160","done","19","m160knife.wav","None","735.207568854","138","288615.482122","280926.786649","281693.955651","282461.185868","283211.465974","283979.047715","284745.812634","285513.421582","289382.995846","275589.108893","276356.42815","277107.182519","277874.458802","278641.535672","279409.055271","280159.561687","288625.453394","Mapping"
"Blocked","m160","done","19","m160done.wav","None","730.333541986","138","288615.482122","280926.786649","281693.955651","282461.185868","283211.465974","283979.047715","284745.812634","285513.421582","289382.995846","290150.111362","276356.42815","277107.182519","277874.458802","278641.535672","279409.055271","280159.561687","289393.254644","Mapping"
"Blocked","m160","done","19","m160cave.wav","space","435.127061792","138","288615.482122","280926.786649","281693.955651","282461.185868","283211.465974","283979.047715","284745.812634","285513.421582","289382.995846","290150.111362","290917.230898","277107.182519","277874.458802","278641.535672","279409.055271","280159.561687","290159.474502","Mapping"
"Blocked","m160","done","19","m160done.wav","None","722.844267264","138","288615.482122","280926.786649","281693.955651","282461.185868","283211.465974","283979.047715","284745.812634","285513.421582","289382.995846","290150.111362","290917.230898","291667.732986","277874.458802","278641.535672","279409.055271","280159.561687","290926.694517","Mapping"
"Blocked","m160","done","19","m160bluff.wav","space","468.838073779","138","288615.482122","280926.786649","281693.955651","282461.185868","283211.465974","283979.047715","284745.812634","285513.421582","289382.995846","290150.111362","290917.230898","291667.732986","292435.058736","278641.535672","279409.055271","280159.561687","291677.69591","Mapping"
"Blocked","m160","done","19","m160jaw.wav","None","729.790335055","138","288615.482122","280926.786649","281693.955651","282461.185868","283211.465974","283979.047715","284745.812634","285513.421582","289382.995846","290150.111362","290917.230898","291667.732986","292435.058736","293202.805263","279409.055271","280159.561687","292445.043921","Mapping"
"Blocked","m160","done","19","m160ball.wav","None","725.250209216","138","288615.482122","280926.786649","281693.955651","282461.185868","283211.465974","283979.047715","284745.812634","285513.421582","289382.995846","290150.111362","290917.230898","291667.732986","292435.058736","293202.805263","293969.224534","280159.561687","293212.568774","Mapping"
"Blocked","m160","done","19","m160dime.wav","None","722.731112037","138","288615.482122","280926.786649","281693.955651","282461.185868","283211.465974","283979.047715","284745.812634","285513.421582","289382.995846","290150.111362","290917.230898","291667.732986","292435.058736","293202.805263","293969.224534","294720.048156","293978.213271","Mapping"
"Blocked","m160","done","19","m160reek.wav","space","392.762758303","138","288615.482122","295486.909845","281693.955651","282461.185868","283211.465974","283979.047715","284745.812634","285513.421582","289382.995846","290150.111362","290917.230898","291667.732986","292435.058736","293202.805263","293969.224534","294720.048156","294729.693566","Mapping"
"Blocked","m160","done","19","m160tile.wav","None","729.788479861","138","288615.482122","295486.909845","296254.260638","282461.185868","283211.465974","283979.047715","284745.812634","285513.421582","289382.995846","290150.111362","290917.230898","291667.732986","292435.058736","293202.805263","293969.224534","294720.048156","295496.548763","Mapping"
"Blocked","m160","done","19","m160greet.wav","None","726.010761689","138","288615.482122","295486.909845","296254.260638","297021.806207","283211.465974","283979.047715","284745.812634","285513.421582","289382.995846","290150.111362","290917.230898","291667.732986","292435.058736","293202.805263","293969.224534","294720.048156","296263.272254","Mapping"
"Blocked","m160","done","19","m160done.wav","None","721.283280291","138","288615.482122","295486.909845","296254.260638","297021.806207","297772.414339","283979.047715","284745.812634","285513.421582","289382.995846","290150.111362","290917.230898","291667.732986","292435.058736","293202.805263","293969.224534","294720.048156","297031.12699","Mapping"
"Blocked","m160","done","19","m160lash.wav","space","540.315449703","138","288615.482122","295486.909845","296254.260638","297021.806207","297772.414339","298539.64332","284745.812634","285513.421582","289382.995846","290150.111362","290917.230898","291667.732986","292435.058736","293202.805263","293969.224534","294720.048156","297782.019248","Mapping"
"Blocked","m160","done","19","m160done.wav","None","728.654453531","138","288615.482122","295486.909845","296254.260638","297021.806207","297772.414339","298539.64332","299306.70164","285513.421582","289382.995846","290150.111362","290917.230898","291667.732986","292435.058736","293202.805263","293969.224534","294720.048156","298549.241736","Mapping"
"Blocked","m160","done","19","m160ball.wav","None","730.129800737","138","288615.482122","295486.909845","296254.260638","297021.806207","297772.414339","298539.64332","299306.70164","300073.593009","289382.995846","290150.111362","290917.230898","291667.732986","292435.058736","293202.805263","293969.224534","294720.048156","299311.089964","Mapping"
"Blocked","m160","cave","7","m160done.wav","None","721.503098495","138","303176.201085","295486.909845","296254.260638","297021.806207","297772.414339","298539.64332","299306.70164","300073.593009","289382.995846","290150.111362","290917.230898","291667.732986","292435.058736","293202.805263","293969.224534","294720.048156","300082.679444","Mapping"
"Blocked","m160","cave","7","m160priest.wav","None","735.206332523","138","303176.201085","295486.909845","296254.260638","297021.806207","297772.414339","298539.64332","299306.70164","300073.593009","303943.183659","290150.111362","290917.230898","291667.732986","292435.058736","293202.805263","293969.224534","294720.048156","303185.801047","Mapping"
"Blocked","m160","cave","7","m160cave.wav","None","731.256098486","138","303176.201085","295486.909845","296254.260638","297021.806207","297772.414339","298539.64332","299306.70164","300073.593009","303943.183659","304710.702948","290917.230898","291667.732986","292435.058736","293202.805263","293969.224534","294720.048156","303952.767544","Mapping"
"Blocked","m160","cave","7","m160dime.wav","space","513.370260131","138","303176.201085","295486.909845","296254.260638","297021.806207","297772.414339","298539.64332","299306.70164","300073.593009","303943.183659","304710.702948","305477.969338","291667.732986","292435.058736","293202.805263","293969.224534","294720.048156","304720.697717","Mapping"
"Blocked","m160","cave","7","m160gnash.wav","None","722.037958447","138","303176.201085","295486.909845","296254.260638","297021.806207","297772.414339","298539.64332","299306.70164","300073.593009","303943.183659","304710.702948","305477.969338","306228.330755","292435.058736","293202.805263","293969.224534","294720.048156","305487.35381","Mapping"
"Blocked","m160","cave","7","m160cave.wav","None","734.248531051","138","303176.201085","295486.909845","296254.260638","297021.806207","297772.414339","298539.64332","299306.70164","300073.593009","303943.183659","304710.702948","305477.969338","306228.330755","306995.304673","293202.805263","293969.224534","294720.048156","306238.148989","Mapping"
"Blocked","m160","cave","7","m160park.wav","None","730.800076388","138","303176.201085","295486.909845","296254.260638","297021.806207","297772.414339","298539.64332","299306.70164","300073.593009","303943.183659","304710.702948","305477.969338","306228.330755","306995.304673","307762.32311","293969.224534","294720.048156","307004.634731","Mapping"
"Blocked","m160","cave","7","m160cave.wav","space","6.51694275439","138","303176.201085","295486.909845","296254.260638","297021.806207","297772.414339","298539.64332","299306.70164","300073.593009","303943.183659","304710.702948","305477.969338","306228.330755","306995.304673","307762.32311","308530.116322","294720.048156","307771.414801","Mapping"
"Blocked","m160","cave","7","m160ball.wav","space","614.146209322","138","303176.201085","295486.909845","296254.260638","297021.806207","297772.414339","298539.64332","299306.70164","300073.593009","303943.183659","304710.702948","305477.969338","306228.330755","306995.304673","307762.32311","308530.116322","309280.257611","308539.790792","Mapping"
"Blocked","m160","cave","7","m160cave.wav","None","735.233230051","138","303176.201085","310048.005375","296254.260638","297021.806207","297772.414339","298539.64332","299306.70164","300073.593009","303943.183659","304710.702948","305477.969338","306228.330755","306995.304673","307762.32311","308530.116322","309280.257611","309290.098414","Mapping"
"Blocked","m160","cave","7","m160lash.wav","space","512.213664595","138","303176.201085","310048.005375","310815.06926","297021.806207","297772.414339","298539.64332","299306.70164","300073.593009","303943.183659","304710.702948","305477.969338","306228.330755","306995.304673","307762.32311","308530.116322","309280.257611","310057.684793","Mapping"
"Blocked","m160","cave","7","m160romp.wav","None","725.11695791","138","303176.201085","310048.005375","310815.06926","311582.395319","297772.414339","298539.64332","299306.70164","300073.593009","303943.183659","304710.702948","305477.969338","306228.330755","306995.304673","307762.32311","308530.116322","309280.257611","310825.423282","Mapping"
"Blocked","m160","cave","7","m160romp.wav","None","721.792170312","138","303176.201085","310048.005375","310815.06926","311582.395319","312332.888441","298539.64332","299306.70164","300073.593009","303943.183659","304710.702948","305477.969338","306228.330755","306995.304673","307762.32311","308530.116322","309280.257611","311591.863575","Mapping"
"Blocked","m160","cave","7","m160cad.wav","None","734.175567515","138","303176.201085","310048.005375","310815.06926","311582.395319","312332.888441","313099.777956","299306.70164","300073.593009","303943.183659","304710.702948","305477.969338","306228.330755","306995.304673","307762.32311","308530.116322","309280.257611","312342.57868","Mapping"
"Blocked","m160","cave","7","m160jaw.wav","None","730.997943319","138","303176.201085","310048.005375","310815.06926","311582.395319","312332.888441","313099.777956","313867.364025","300073.593009","303943.183659","304710.702948","305477.969338","306228.330755","306995.304673","307762.32311","308530.116322","309280.257611","313108.821725","Mapping"
"Blocked","m160","cave","7","m160knife.wav","None","725.817531813","138","303176.201085","310048.005375","310815.06926","311582.395319","312332.888441","313099.777956","313867.364025","314634.571364","303943.183659","304710.702948","305477.969338","306228.330755","306995.304673","307762.32311","308530.116322","309280.257611","313877.17824","Mapping"
"Blocked","m160","cave","11","m160depth.wav","None","721.57018818","138","317736.680443","310048.005375","310815.06926","311582.395319","312332.888441","313099.777956","313867.364025","314634.571364","303943.183659","304710.702948","305477.969338","306228.330755","306995.304673","307762.32311","308530.116322","309280.257611","314644.483894","Mapping"
"Blocked","m160","cave","11","m160cling.wav","None","735.237558372","138","317736.680443","310048.005375","310815.06926","311582.395319","312332.888441","313099.777956","313867.364025","314634.571364","318503.760714","304710.702948","305477.969338","306228.330755","306995.304673","307762.32311","308530.116322","309280.257611","317746.385213","Mapping"
"Blocked","m160","cave","11","m160lash.wav","None","731.916789431","138","317736.680443","310048.005375","310815.06926","311582.395319","312332.888441","313099.777956","313867.364025","314634.571364","318503.760714","319270.859535","305477.969338","306228.330755","306995.304673","307762.32311","308530.116322","309280.257611","318512.91362","Mapping"
"Blocked","m160","cave","11","m160cave.wav","None","727.803933434","138","317736.680443","310048.005375","310815.06926","311582.395319","312332.888441","313099.777956","313867.364025","314634.571364","318503.760714","319270.859535","320038.426745","306228.330755","306995.304673","307762.32311","308530.116322","309280.257611","319280.106428","Mapping"
"Blocked","m160","cave","11","m160depth.wav","None","722.738222685","138","317736.680443","310048.005375","310815.06926","311582.395319","312332.888441","313099.777956","313867.364025","314634.571364","318503.760714","319270.859535","320038.426745","320788.538046","306995.304673","307762.32311","308530.116322","309280.257611","320048.304031","Mapping"
"Blocked","m160","cave","11","m160cave.wav","space","667.654766236","138","317736.680443","310048.005375","310815.06926","311582.395319","312332.888441","313099.777956","313867.364025","314634.571364","318503.760714","319270.859535","320038.426745","320788.538046","321556.115149","307762.32311","308530.116322","309280.257611","320797.821111","Mapping"
"Blocked","m160","cave","11","m160ball.wav","space","692.023043986","138","317736.680443","310048.005375","310815.06926","311582.395319","312332.888441","313099.777956","313867.364025","314634.571364","318503.760714","319270.859535","320038.426745","320788.538046","321556.115149","322323.513553","308530.116322","309280.257611","321565.478907","Mapping"
"Blocked","m160","cave","11","m160cave.wav","None","725.298129953","138","317736.680443","310048.005375","310815.06926","311582.395319","312332.888441","313099.777956","313867.364025","314634.571364","318503.760714","319270.859535","320038.426745","320788.538046","321556.115149","322323.513553","323090.67699","309280.257611","322333.380327","Mapping"
"Blocked","m160","cave","11","m160romp.wav","space","660.713954829","138","317736.680443","310048.005375","310815.06926","311582.395319","312332.888441","313099.777956","313867.364025","314634.571364","318503.760714","319270.859535","320038.426745","320788.538046","321556.115149","322323.513553","323090.67699","323841.376946","323100.71597","Mapping"
"Blocked","m160","cave","11","m160priest.wav","None","733.213438187","138","317736.680443","324608.392601","310815.06926","311582.395319","312332.888441","313099.777956","313867.364025","314634.571364","318503.760714","319270.859535","320038.426745","320788.538046","321556.115149","322323.513553","323090.67699","323841.376946","323851.06533","Mapping"
"Blocked","m160","cave","11","m160greet.wav","None","734.879542142","138","317736.680443","324608.392601","325375.642605","311582.395319","312332.888441","313099.777956","313867.364025","314634.571364","318503.760714","319270.859535","320038.426745","320788.538046","321556.115149","322323.513553","323090.67699","323841.376946","324612.566363","Mapping"
"Blocked","m160","cave","11","m160dime.wav","None","725.039357319","138","317736.680443","324608.392601","325375.642605","326142.88488","312332.888441","313099.777956","313867.364025","314634.571364","318503.760714","319270.859535","320038.426745","320788.538046","321556.115149","322323.513553","323090.67699","323841.376946","325385.582033","Mapping"
"Blocked","m160","cave","11","m160cave.wav","space","696.78793475","138","317736.680443","324608.392601","325375.642605","326142.88488","326893.249079","313099.777956","313867.364025","314634.571364","318503.760714","319270.859535","320038.426745","320788.538046","321556.115149","322323.513553","323090.67699","323841.376946","326152.483296","Mapping"
"Blocked","m160","cave","11","m160jaw.wav","None","734.762058593","138","317736.680443","324608.392601","325375.642605","326142.88488","326893.249079","327660.677164","313867.364025","314634.571364","318503.760714","319270.859535","320038.426745","320788.538046","321556.115149","322323.513553","323090.67699","323841.376946","326902.971162","Mapping"
"Blocked","m160","cave","11","m160romp.wav","None","730.201837141","138","317736.680443","324608.392601","325375.642605","326142.88488","326893.249079","327660.677164","328427.525559","314634.571364","318503.760714","319270.859535","320038.426745","320788.538046","321556.115149","322323.513553","323090.67699","323841.376946","327670.775813","Mapping"
"Blocked","m160","cave","11","m160park.wav","None","727.435405832","138","317736.680443","324608.392601","325375.642605","326142.88488","326893.249079","327660.677164","328427.525559","329195.242406","318503.760714","319270.859535","320038.426745","320788.538046","321556.115149","322323.513553","323090.67699","323841.376946","328436.759776","Mapping"
"Blocked","m160","tile","15","m160park.wav","None","722.307552584","138","332297.202776","324608.392601","325375.642605","326142.88488","326893.249079","327660.677164","328427.525559","329195.242406","318503.760714","319270.859535","320038.426745","320788.538046","321556.115149","322323.513553","323090.67699","323841.376946","329204.990768","Mapping"
"Blocked","m160","tile","15","m160reek.wav","None","735.41069217","138","332297.202776","324608.392601","325375.642605","326142.88488","326893.249079","327660.677164","328427.525559","329195.242406","333064.65343","319270.859535","320038.426745","320788.538046","321556.115149","322323.513553","323090.67699","323841.376946","332306.870136","Mapping"
"Blocked","m160","tile","15","m160dime.wav","None","731.02360405","138","332297.202776","324608.392601","325375.642605","326142.88488","326893.249079","327660.677164","328427.525559","329195.242406","333064.65343","333831.929713","320038.426745","320788.538046","321556.115149","322323.513553","323090.67699","323841.376946","333074.637996","Mapping"
"Blocked","m160","tile","15","m160tile.wav","None","727.871641051","138","332297.202776","324608.392601","325375.642605","326142.88488","326893.249079","327660.677164","328427.525559","329195.242406","333064.65343","333831.929713","334599.06316","320788.538046","321556.115149","322323.513553","323090.67699","323841.376946","333841.560282","Mapping"
"Blocked","m160","tile","15","m160reek.wav","space","464.403065387","138","332297.202776","324608.392601","325375.642605","326142.88488","326893.249079","327660.677164","328427.525559","329195.242406","333064.65343","333831.929713","334599.06316","335349.594929","321556.115149","322323.513553","323090.67699","323841.376946","334608.592941","Mapping"
"Blocked","m160","tile","15","m160tile.wav","None","736.027171835","138","332297.202776","324608.392601","325375.642605","326142.88488","326893.249079","327660.677164","328427.525559","329195.242406","333064.65343","333831.929713","334599.06316","335349.594929","336117.018067","322323.513553","323090.67699","323841.376946","335359.233228","Mapping"
"Blocked","m160","tile","15","m160cling.wav","space","729.862989392","138","332297.202776","324608.392601","325375.642605","326142.88488","326893.249079","327660.677164","328427.525559","329195.242406","333064.65343","333831.929713","334599.06316","335349.594929","336117.018067","336883.775258","323090.67699","323841.376946","336127.116098","Mapping"
"Blocked","m160","tile","15","m160tile.wav","None","728.190701921","138","332297.202776","324608.392601","325375.642605","326142.88488","326893.249079","327660.677164","328427.525559","329195.242406","333064.65343","333831.929713","334599.06316","335349.594929","336117.018067","336883.775258","337650.978887","323841.376946","336892.719166","Mapping"
"Blocked","m160","tile","15","m160lash.wav","space","492.578432895","138","332297.202776","324608.392601","325375.642605","326142.88488","326893.249079","327660.677164","328427.525559","329195.242406","333064.65343","333831.929713","334599.06316","335349.594929","336117.018067","336883.775258","337650.978887","338401.610825","337660.317911","Mapping"
"Blocked","m160","tile","15","m160tile.wav","None","735.710893758","138","332297.202776","339168.975839","325375.642605","326142.88488","326893.249079","327660.677164","328427.525559","329195.242406","333064.65343","333831.929713","334599.06316","335349.594929","336117.018067","336883.775258","337650.978887","338401.610825","338411.052493","Mapping"
"Blocked","m160","tile","15","m160cad.wav","space","406.235662755","138","332297.202776","339168.975839","339936.293551","326142.88488","326893.249079","327660.677164","328427.525559","329195.242406","333064.65343","333831.929713","334599.06316","335349.594929","336117.018067","336883.775258","337650.978887","338401.610825","339178.578584","Mapping"
"Blocked","m160","tile","15","m160dime.wav","None","726.184204221","138","332297.202776","339168.975839","339936.293551","340703.680516","326893.249079","327660.677164","328427.525559","329195.242406","333064.65343","333831.929713","334599.06316","335349.594929","336117.018067","336883.775258","337650.978887","338401.610825","339946.363757","Mapping"
"Blocked","m160","tile","15","m160greet.wav","space","95.5074243248","138","332297.202776","339168.975839","339936.293551","340703.680516","341453.947019","327660.677164","328427.525559","329195.242406","333064.65343","333831.929713","334599.06316","335349.594929","336117.018067","336883.775258","337650.978887","338401.610825","340713.275222","Mapping"
"Blocked","m160","tile","15","m160cad.wav","None","734.365705866","138","332297.202776","339168.975839","339936.293551","340703.680516","341453.947019","342221.300903","328427.525559","329195.242406","333064.65343","333831.929713","334599.06316","335349.594929","336117.018067","336883.775258","337650.978887","338401.610825","341463.947043","Mapping"
"Blocked","m160","tile","15","m160ball.wav","None","731.010001153","138","332297.202776","339168.975839","339936.293551","340703.680516","341453.947019","342221.300903","342988.362005","329195.242406","333064.65343","333831.929713","334599.06316","335349.594929","336117.018067","336883.775258","337650.978887","338401.610825","342230.578094","Mapping"
"Blocked","m160","tile","15","m160jolt.wav","None","726.654138882","138","332297.202776","339168.975839","339936.293551","340703.680516","341453.947019","342221.300903","342988.362005","343755.341488","333064.65343","333831.929713","334599.06316","335349.594929","336117.018067","336883.775258","337650.978887","338401.610825","342998.263715","Mapping"
"Blocked","m160","done","24","m160jaw.wav","None","723.819382023","138","346857.777976","339168.975839","339936.293551","340703.680516","341453.947019","342221.300903","342988.362005","343755.341488","333064.65343","333831.929713","334599.06316","335349.594929","336117.018067","336883.775258","337650.978887","338401.610825","343764.5216","Mapping"
"Blocked","m160","done","24","m160lash.wav","None","735.097505152","138","346857.777976","339168.975839","339936.293551","340703.680516","341453.947019","342221.300903","342988.362005","343755.341488","347624.849281","333831.929713","334599.06316","335349.594929","336117.018067","336883.775258","337650.978887","338401.610825","346867.455848","Mapping"
"Blocked","m160","done","24","m160dime.wav","None","693.20962904","138","346857.777976","339168.975839","339936.293551","340703.680516","341453.947019","342221.300903","342988.362005","343755.341488","347624.849281","348392.573548","334599.06316","335349.594929","336117.018067","336883.775258","337650.978887","338401.610825","347672.647513","Mapping"
"Blocked","m160","done","24","m160done.wav","None","724.53448642","138","346857.777976","339168.975839","339936.293551","340703.680516","341453.947019","342221.300903","342988.362005","343755.341488","347624.849281","348392.573548","349159.2114","335349.594929","336117.018067","336883.775258","337650.978887","338401.610825","348404.760933","Mapping"
"Blocked","m160","done","24","m160bluff.wav","space","456.294218544","138","346857.777976","339168.975839","339936.293551","340703.680516","341453.947019","342221.300903","342988.362005","343755.341488","347624.849281","348392.573548","349159.2114","349910.013381","336117.018067","336883.775258","337650.978887","338401.610825","349168.204466","Mapping"
"Blocked","m160","done","24","m160done.wav","None","722.204908729","138","346857.777976","339168.975839","339936.293551","340703.680516","341453.947019","342221.300903","342988.362005","343755.341488","347624.849281","348392.573548","349159.2114","349910.013381","350677.402201","336883.775258","337650.978887","338401.610825","349932.834584","Mapping"
"Blocked","m160","done","24","m160bluff.wav","space","585.54728236","138","346857.777976","339168.975839","339936.293551","340703.680516","341453.947019","342221.300903","342988.362005","343755.341488","347624.849281","348392.573548","349159.2114","349910.013381","350677.402201","351444.272238","337650.978887","338401.610825","350686.876332","Mapping"
"Blocked","m160","done","24","m160done.wav","None","727.711801417","138","346857.777976","339168.975839","339936.293551","340703.680516","341453.947019","342221.300903","342988.362005","343755.341488","347624.849281","348392.573548","349159.2114","349910.013381","350677.402201","351444.272238","352211.884277","338401.610825","351453.098354","Mapping"
"Blocked","m160","done","24","m160tile.wav","space","571.33392198","138","346857.777976","339168.975839","339936.293551","340703.680516","341453.947019","342221.300903","342988.362005","343755.341488","347624.849281","348392.573548","349159.2114","349910.013381","350677.402201","351444.272238","352211.884277","352962.411718","352221.05697","Mapping"
"Blocked","m160","done","24","m160park.wav","None","734.749073163","138","346857.777976","353729.386871","339936.293551","340703.680516","341453.947019","342221.300903","342988.362005","343755.341488","347624.849281","348392.573548","349159.2114","349910.013381","350677.402201","351444.272238","352211.884277","352962.411718","352971.843801","Mapping"
"Blocked","m160","done","24","m160greet.wav","None","730.921888258","138","346857.777976","353729.386871","354496.494967","340703.680516","341453.947019","342221.300903","342988.362005","343755.341488","347624.849281","348392.573548","349159.2114","349910.013381","350677.402201","351444.272238","352211.884277","352962.411718","353739.086076","Mapping"
"Blocked","m160","done","24","m160done.wav","None","727.623688523","138","346857.777976","353729.386871","354496.494967","355264.179043","341453.947019","342221.300903","342988.362005","343755.341488","347624.849281","348392.573548","349159.2114","349910.013381","350677.402201","351444.272238","352211.884277","352962.411718","354505.681572","Mapping"
"Blocked","m160","done","24","m160romp.wav","space","686.769978143","138","346857.777976","353729.386871","354496.494967","355264.179043","356014.206868","342221.300903","342988.362005","343755.341488","347624.849281","348392.573548","349159.2114","349910.013381","350677.402201","351444.272238","352211.884277","352962.411718","355273.471383","Mapping"
"Blocked","m160","done","24","m160lash.wav","None","736.301712692","138","346857.777976","353729.386871","354496.494967","355264.179043","356014.206868","356781.796029","342988.362005","343755.341488","347624.849281","348392.573548","349159.2114","349910.013381","350677.402201","351444.272238","352211.884277","352962.411718","356023.143356","Mapping"
"Blocked","m160","done","24","m160bluff.wav","None","731.794049963","138","346857.777976","353729.386871","354496.494967","355264.179043","356014.206868","356781.796029","357548.999967","343755.341488","347624.849281","348392.573548","349159.2114","349910.013381","350677.402201","351444.272238","352211.884277","352962.411718","356791.08033","Mapping"
"Blocked","m160","done","24","m160ball.wav","None","727.256397251","138","346857.777976","353729.386871","354496.494967","355264.179043","356014.206868","356781.796029","357548.999967","358316.003873","347624.849281","348392.573548","349159.2114","349910.013381","350677.402201","351444.272238","352211.884277","352962.411718","357558.9969","Mapping"
"Blocked","m160","tile","14","m160priest.wav","None","724.699891172","138","361418.272792","353729.386871","354496.494967","355264.179043","356014.206868","356781.796029","357548.999967","358316.003873","347624.849281","348392.573548","349159.2114","349910.013381","350677.402201","351444.272238","352211.884277","352962.411718","358324.790106","Mapping"
"Blocked","m160","tile","14","m160tile.wav","None","735.394924413","138","361418.272792","353729.386871","354496.494967","355264.179043","356014.206868","356781.796029","357548.999967","358316.003873","362185.639043","348392.573548","349159.2114","349910.013381","350677.402201","351444.272238","352211.884277","352962.411718","361427.700548","Mapping"
"Blocked","m160","tile","14","m160romp.wav","None","731.247441843","138","361418.272792","353729.386871","354496.494967","355264.179043","356014.206868","356781.796029","357548.999967","358316.003873","362185.639043","362953.298076","349159.2114","349910.013381","350677.402201","351444.272238","352211.884277","352962.411718","362195.233749","Mapping"
"Blocked","m160","tile","14","m160tile.wav","None","726.918477565","138","361418.272792","353729.386871","354496.494967","355264.179043","356014.206868","356781.796029","357548.999967","358316.003873","362185.639043","362953.298076","363719.838541","349910.013381","350677.402201","351444.272238","352211.884277","352962.411718","362963.002227","Mapping"
"Blocked","m160","tile","14","m160lash.wav","space","63.0426662974","138","361418.272792","353729.386871","354496.494967","355264.179043","356014.206868","356781.796029","357548.999967","358316.003873","362185.639043","362953.298076","363719.838541","364470.197484","350677.402201","351444.272238","352211.884277","352962.411718","363728.921574","Mapping"
"Blocked","m160","tile","14","m160jolt.wav","space","0.0194776803255","138","361418.272792","353729.386871","354496.494967","355264.179043","356014.206868","356781.796029","357548.999967","358316.003873","362185.639043","362953.298076","363719.838541","364470.197484","365237.912785","351444.272238","352211.884277","352962.411718","364479.005049","Mapping"
"Blocked","m160","tile","14","m160tile.wav","None","730.529245455","138","361418.272792","353729.386871","354496.494967","355264.179043","356014.206868","356781.796029","357548.999967","358316.003873","362185.639043","362953.298076","363719.838541","364470.197484","365237.912785","366004.94699","352211.884277","352962.411718","365247.5415","Mapping"
"Blocked","m160","tile","14","m160depth.wav","space","577.779138461","138","361418.272792","353729.386871","354496.494967","355264.179043","356014.206868","356781.796029","357548.999967","358316.003873","362185.639043","362953.298076","363719.838541","364470.197484","365237.912785","366004.94699","366772.083221","352962.411718","366014.097113","Mapping"
"Blocked","m160","tile","14","m160done.wav","None","723.094692919","138","361418.272792","353729.386871","354496.494967","355264.179043","356014.206868","356781.796029","357548.999967","358316.003873","362185.639043","362953.298076","363719.838541","364470.197484","365237.912785","366004.94699","366772.083221","367522.91179","366781.397821","Mapping"
"Blocked","m160","tile","14","m160done.wav","None","735.359370243","138","361418.272792","368289.814908","354496.494967","355264.179043","356014.206868","356781.796029","357548.999967","358316.003873","362185.639043","362953.298076","363719.838541","364470.197484","365237.912785","366004.94699","366772.083221","367522.91179","367532.480526","Mapping"
"Blocked","m160","tile","14","m160park.wav","None","732.572842855","138","361418.272792","368289.814908","369056.995349","355264.179043","356014.206868","356781.796029","357548.999967","358316.003873","362185.639043","362953.298076","363719.838541","364470.197484","365237.912785","366004.94699","366772.083221","367522.91179","368298.852185","Mapping"
"Blocked","m160","tile","14","m160park.wav","None","728.789559565","138","361418.272792","368289.814908","369056.995349","369824.288946","356014.206868","356781.796029","357548.999967","358316.003873","362185.639043","362953.298076","363719.838541","364470.197484","365237.912785","366004.94699","366772.083221","367522.91179","369066.127541","Mapping"
"Blocked","m160","tile","14","m160park.wav","None","725.112629589","138","361418.272792","368289.814908","369056.995349","369824.288946","370591.535549","356781.796029","357548.999967","358316.003873","362185.639043","362953.298076","363719.838541","364470.197484","365237.912785","366004.94699","366772.083221","367522.91179","369833.374144","Mapping"
"Blocked","m160","tile","14","m160tile.wav","None","721.517938189","138","361418.272792","368289.814908","369056.995349","369824.288946","370591.535549","371342.418841","357548.999967","358316.003873","362185.639043","362953.298076","363719.838541","364470.197484","365237.912785","366004.94699","366772.083221","367522.91179","370600.541909","Mapping"
"Blocked","m160","tile","14","m160jaw.wav","None","737.096582539","138","361418.272792","368289.814908","369056.995349","369824.288946","370591.535549","371342.418841","372109.742117","358316.003873","362185.639043","362953.298076","363719.838541","364470.197484","365237.912785","366004.94699","366772.083221","367522.91179","371351.235063","Mapping"
"Blocked","m160","tile","14","m160done.wav","space","8.67616897449","138","361418.272792","368289.814908","369056.995349","369824.288946","370591.535549","371342.418841","372109.742117","372876.828881","362185.639043","362953.298076","363719.838541","364470.197484","365237.912785","366004.94699","366772.083221","367522.91179","372119.00385","Mapping"
"Blocked","m160","cave","8","m160knife.wav","None","727.842270397","138","375978.932395","368289.814908","369056.995349","369824.288946","370591.535549","371342.418841","372109.742117","372876.828881","362185.639043","362953.298076","363719.838541","364470.197484","365237.912785","366004.94699","366772.083221","367522.91179","372886.308886","Mapping"
"Blocked","m160","cave","8","m160cave.wav","None","735.234466381","138","375978.932395","368289.814908","369056.995349","369824.288946","370591.535549","371342.418841","372109.742117","372876.828881","376745.896419","362953.298076","363719.838541","364470.197484","365237.912785","366004.94699","366772.083221","367522.91179","375988.306665","Mapping"
"Blocked","m160","cave","8","m160ball.wav","space","644.590557087","138","375978.932395","368289.814908","369056.995349","369824.288946","370591.535549","371342.418841","372109.742117","372876.828881","376745.896419","377513.442297","363719.838541","364470.197484","365237.912785","366004.94699","366772.083221","367522.91179","376754.909581","Mapping"
"Blocked","m160","cave","8","m160done.wav","None","726.897453889","138","375978.932395","368289.814908","369056.995349","369824.288946","370591.535549","371342.418841","372109.742117","372876.828881","376745.896419","377513.442297","378280.747641","364470.197484","365237.912785","366004.94699","366772.083221","367522.91179","377522.568923","Mapping"
"Blocked","m160","cave","8","m160cave.wav","None","722.690301947","138","375978.932395","368289.814908","369056.995349","369824.288946","370591.535549","371342.418841","372109.742117","372876.828881","376745.896419","377513.442297","378280.747641","379030.816895","365237.912785","366004.94699","366772.083221","367522.91179","378290.292263","Mapping"
"Blocked","m160","cave","8","m160tile.wav","None","736.363237258","138","375978.932395","368289.814908","369056.995349","369824.288946","370591.535549","371342.418841","372109.742117","372876.828881","376745.896419","377513.442297","378280.747641","379030.816895","379798.551365","366004.94699","366772.083221","367522.91179","379040.053276","Mapping"
"Blocked","m160","cave","8","m160cave.wav","space","55.2788507193","138","375978.932395","368289.814908","369056.995349","369824.288946","370591.535549","371342.418841","372109.742117","372876.828881","376745.896419","377513.442297","378280.747641","379030.816895","379798.551365","380565.760558","366772.083221","367522.91179","379808.111753","Mapping"
"Blocked","m160","cave","8","m160greet.wav","None","726.437103935","138","375978.932395","368289.814908","369056.995349","369824.288946","370591.535549","371342.418841","372109.742117","372876.828881","376745.896419","377513.442297","378280.747641","379030.816895","379798.551365","380565.760558","381332.566289","367522.91179","380575.88054","Mapping"
"Blocked","m160","cave","8","m160depth.wav","None","724.068880081","138","375978.932395","368289.814908","369056.995349","369824.288946","370591.535549","371342.418841","372109.742117","372876.828881","376745.896419","377513.442297","378280.747641","379030.816895","379798.551365","380565.760558","381332.566289","382083.538312","381341.759077","Mapping"
"Blocked","m160","cave","8","m160priest.wav","space","106.272329576","138","375978.932395","382850.440193","369056.995349","369824.288946","370591.535549","371342.418841","372109.742117","372876.828881","376745.896419","377513.442297","378280.747641","379030.816895","379798.551365","380565.760558","381332.566289","382083.538312","382093.043668","Mapping"
"Blocked","m160","cave","8","m160done.wav","None","732.080029789","138","375978.932395","382850.440193","383617.793459","369824.288946","370591.535549","371342.418841","372109.742117","372876.828881","376745.896419","377513.442297","378280.747641","379030.816895","379798.551365","380565.760558","381332.566289","382083.538312","382859.463866","Mapping"
"Blocked","m160","cave","8","m160greet.wav","None","727.288241964","138","375978.932395","382850.440193","383617.793459","384385.252151","370591.535549","371342.418841","372109.742117","372876.828881","376745.896419","377513.442297","378280.747641","379030.816895","379798.551365","380565.760558","381332.566289","382083.538312","383627.770914","Mapping"
"Blocked","m160","cave","8","m160cave.wav","space","68.4373313561","138","375978.932395","382850.440193","383617.793459","384385.252151","385135.373345","371342.418841","372109.742117","372876.828881","376745.896419","377513.442297","378280.747641","379030.816895","379798.551365","380565.760558","381332.566289","382083.538312","384394.787188","Mapping"
"Blocked","m160","cave","8","m160park.wav","None","736.560177058","138","375978.932395","382850.440193","383617.793459","384385.252151","385135.373345","385902.740523","372109.742117","372876.828881","376745.896419","377513.442297","378280.747641","379030.816895","379798.551365","380565.760558","381332.566289","382083.538312","385144.436592","Mapping"
"Blocked","m160","cave","8","m160priest.wav","space","631.522044539","138","375978.932395","382850.440193","383617.793459","384385.252151","385135.373345","385902.740523","386670.225804","372876.828881","376745.896419","377513.442297","378280.747641","379030.816895","379798.551365","380565.760558","381332.566289","382083.538312","385911.623835","Mapping"
"Blocked","m160","cave","8","m160priest.wav","None","727.359350771","138","375978.932395","382850.440193","383617.793459","384385.252151","385135.373345","385902.740523","386670.225804","387437.131395","376745.896419","377513.442297","378280.747641","379030.816895","379798.551365","380565.760558","381332.566289","382083.538312","386679.829475","Mapping"
"Blocked","m160","done","23","m160park.wav","None","724.452557042","138","390539.370016","382850.440193","383617.793459","384385.252151","385135.373345","385902.740523","386670.225804","387437.131395","376745.896419","377513.442297","378280.747641","379030.816895","379798.551365","380565.760558","381332.566289","382083.538312","387446.341188","Mapping"
"Blocked","m160","done","23","m160knife.wav","None","735.37019128","138","390539.370016","382850.440193","383617.793459","384385.252151","385135.373345","385902.740523","386670.225804","387437.131395","391306.739049","377513.442297","378280.747641","379030.816895","379798.551365","380565.760558","381332.566289","382083.538312","390548.620309","Mapping"
"Blocked","m160","done","23","m160done.wav","None","736.707959324","138","390539.370016","382850.440193","383617.793459","384385.252151","385135.373345","385902.740523","386670.225804","387437.131395","391306.739049","392074.16466","378280.747641","379030.816895","379798.551365","380565.760558","381332.566289","382083.538312","391310.832427","Mapping"
"Blocked","m160","done","23","m160gnash.wav","space","683.25783452","138","390539.370016","382850.440193","383617.793459","384385.252151","385135.373345","385902.740523","386670.225804","387437.131395","391306.739049","392074.16466","392841.265645","379030.816895","379798.551365","380565.760558","381332.566289","382083.538312","392083.661979","Mapping"
"Blocked","m160","done","23","m160gnash.wav","None","722.858798224","138","390539.370016","382850.440193","383617.793459","384385.252151","385135.373345","385902.740523","386670.225804","387437.131395","391306.739049","392074.16466","392841.265645","393592.083394","379798.551365","380565.760558","381332.566289","382083.538312","392851.200436","Mapping"
"Blocked","m160","done","23","m160lash.wav","None","736.12981569","138","390539.370016","382850.440193","383617.793459","384385.252151","385135.373345","385902.740523","386670.225804","387437.131395","391306.739049","392074.16466","392841.265645","393592.083394","394359.119454","380565.760558","381332.566289","382083.538312","393601.535264","Mapping"
"Blocked","m160","done","23","m160reek.wav","None","733.208182268","138","390539.370016","382850.440193","383617.793459","384385.252151","385135.373345","385902.740523","386670.225804","387437.131395","391306.739049","392074.16466","392841.265645","393592.083394","394359.119454","395126.42418","381332.566289","382083.538312","394368.310387","Mapping"
"Blocked","m160","done","23","m160ball.wav","None","729.329365771","138","390539.370016","382850.440193","383617.793459","384385.252151","385135.373345","385902.740523","386670.225804","387437.131395","391306.739049","392074.16466","392841.265645","393592.083394","394359.119454","395126.42418","395893.913789","382083.538312","395135.69086","Mapping"
"Blocked","m160","done","23","m160done.wav","None","725.184356794","138","390539.370016","382850.440193","383617.793459","384385.252151","385135.373345","385902.740523","386670.225804","387437.131395","391306.739049","392074.16466","392841.265645","393592.083394","394359.119454","395126.42418","395893.913789","396660.78259","395903.383282","Mapping"
"Blocked","m160","done","23","m160depth.wav","space","544.00381865","138","390539.370016","397411.131949","383617.793459","384385.252151","385135.373345","385902.740523","386670.225804","387437.131395","391306.739049","392074.16466","392841.265645","393592.083394","394359.119454","395126.42418","395893.913789","396660.78259","396670.752316","Mapping"
"Blocked","m160","done","23","m160done.wav","None","734.046335798","138","390539.370016","397411.131949","398178.711835","384385.252151","385135.373345","385902.740523","386670.225804","387437.131395","391306.739049","392074.16466","392841.265645","393592.083394","394359.119454","395126.42418","395893.913789","396660.78259","397420.424598","Mapping"
"Blocked","m160","done","23","m160tile.wav","None","730.031794868","138","390539.370016","397411.131949","398178.711835","398945.465316","385135.373345","385902.740523","386670.225804","387437.131395","391306.739049","392074.16466","392841.265645","393592.083394","394359.119454","395126.42418","395893.913789","396660.78259","398188.083322","Mapping"
"Blocked","m160","done","23","m160done.wav","space","116.21639505","138","390539.370016","397411.131949","398178.711835","398945.465316","399712.667399","385902.740523","386670.225804","387437.131395","391306.739049","392074.16466","392841.265645","393592.083394","394359.119454","395126.42418","395893.913789","396660.78259","398954.480951","Mapping"
"Blocked","m160","done","23","m160jolt.wav","None","722.191614565","138","390539.370016","397411.131949","398178.711835","398945.465316","399712.667399","400463.03098","386670.225804","387437.131395","391306.739049","392074.16466","392841.265645","393592.083394","394359.119454","395126.42418","395893.913789","396660.78259","399721.902852","Mapping"
"Blocked","m160","done","23","m160park.wav","space","630.401930306","138","390539.370016","397411.131949","398178.711835","398945.465316","399712.667399","400463.03098","401230.745045","387437.131395","391306.739049","392074.16466","392841.265645","393592.083394","394359.119454","395126.42418","395893.913789","396660.78259","400472.199035","Mapping"
"Blocked","m160","done","23","m160tile.wav","None","729.804866016","138","390539.370016","397411.131949","398178.711835","398945.465316","399712.667399","400463.03098","401230.745045","401997.963204","391306.739049","392074.16466","392841.265645","393592.083394","394359.119454","395126.42418","395893.913789","396660.78259","401240.230924","Mapping"
"Blocked","m160","ball","5","m160jolt.wav","None","726.332295686","138","405100.036729","397411.131949","398178.711835","398945.465316","399712.667399","400463.03098","401230.745045","401997.963204","391306.739049","392074.16466","392841.265645","393592.083394","394359.119454","395126.42418","395893.913789","396660.78259","402007.388177","Mapping"
"Blocked","m160","ball","5","m160tile.wav","None","735.018667299","138","405100.036729","397411.131949","398178.711835","398945.465316","399712.667399","400463.03098","401230.745045","401997.963204","405867.500986","392074.16466","392841.265645","393592.083394","394359.119454","395126.42418","395893.913789","396660.78259","405109.437896","Mapping"
"Blocked","m160","ball","5","m160ball.wav","None","731.053593569","138","405100.036729","397411.131949","398178.711835","398945.465316","399712.667399","400463.03098","401230.745045","401997.963204","405867.500986","406634.4242","392841.265645","393592.083394","394359.119454","395126.42418","395893.913789","396660.78259","405877.201428","Mapping"
"Blocked","m160","ball","5","m160lash.wav","space","715.173510835","138","405100.036729","397411.131949","398178.711835","398945.465316","399712.667399","400463.03098","401230.745045","401997.963204","405867.500986","406634.4242","407401.8393","393592.083394","394359.119454","395126.42418","395893.913789","396660.78259","406643.189101","Mapping"
"Blocked","m160","ball","5","m160jaw.wav","None","723.06841379","138","405100.036729","397411.131949","398178.711835","398945.465316","399712.667399","400463.03098","401230.745045","401997.963204","405867.500986","406634.4242","407401.8393","408152.608509","394359.119454","395126.42418","395893.913789","396660.78259","407411.188218","Mapping"
"Blocked","m160","ball","5","m160ball.wav","None","735.968430061","138","405100.036729","397411.131949","398178.711835","398945.465316","399712.667399","400463.03098","401230.745045","401997.963204","405867.500986","406634.4242","407401.8393","408152.608509","408919.417331","395126.42418","395893.913789","396660.78259","408162.028226","Mapping"
"Blocked","m160","ball","5","m160park.wav","None","733.360602055","138","405100.036729","397411.131949","398178.711835","398945.465316","399712.667399","400463.03098","401230.745045","401997.963204","405867.500986","406634.4242","407401.8393","408152.608509","408919.417331","409686.820063","395893.913789","396660.78259","408928.320738","Mapping"
"Blocked","m160","ball","5","m160depth.wav","None","729.020508006","138","405100.036729","397411.131949","398178.711835","398945.465316","399712.667399","400463.03098","401230.745045","401997.963204","405867.500986","406634.4242","407401.8393","408152.608509","408919.417331","409686.820063","410454.294523","396660.78259","409696.314908","Mapping"
"Blocked","m160","ball","5","m160ball.wav","None","725.248045288","138","405100.036729","397411.131949","398178.711835","398945.465316","399712.667399","400463.03098","401230.745045","401997.963204","405867.500986","406634.4242","407401.8393","408152.608509","408919.417331","409686.820063","410454.294523","411221.398909","410463.83698","Mapping"
"Blocked","m160","ball","5","m160cling.wav","space","511.384476908","138","405100.036729","411971.458888","398178.711835","398945.465316","399712.667399","400463.03098","401230.745045","401997.963204","405867.500986","406634.4242","407401.8393","408152.608509","408919.417331","409686.820063","410454.294523","411221.398909","411230.881078","Mapping"
"Blocked","m160","ball","5","m160lash.wav","None","734.865938779","138","405100.036729","411971.458888","412739.281779","398945.465316","399712.667399","400463.03098","401230.745045","401997.963204","405867.500986","406634.4242","407401.8393","408152.608509","408919.417331","409686.820063","410454.294523","411221.398909","411980.606228","Mapping"
"Blocked","m160","ball","5","m160depth.wav","None","730.31437397","138","405100.036729","411971.458888","412739.281779","413506.310419","399712.667399","400463.03098","401230.745045","401997.963204","405867.500986","406634.4242","407401.8393","408152.608509","408919.417331","409686.820063","410454.294523","411221.398909","412748.96738","Mapping"
"Blocked","m160","ball","5","m160depth.wav","None","727.090065368","138","405100.036729","411971.458888","412739.281779","413506.310419","414273.680071","400463.03098","401230.745045","401997.963204","405867.500986","406634.4242","407401.8393","408152.608509","408919.417331","409686.820063","410454.294523","411221.398909","413515.842673","Mapping"
"Blocked","m160","ball","5","m160ball.wav","None","723.668199033","138","405100.036729","411971.458888","412739.281779","413506.310419","414273.680071","415040.69449","401230.745045","401997.963204","405867.500986","406634.4242","407401.8393","408152.608509","408919.417331","409686.820063","410454.294523","411221.398909","414283.260246","Mapping"
"Blocked","m160","ball","5","m160cave.wav","None","720.544988289","138","405100.036729","411971.458888","412739.281779","413506.310419","414273.680071","415040.69449","415791.373421","401997.963204","405867.500986","406634.4242","407401.8393","408152.608509","408919.417331","409686.820063","410454.294523","411221.398909","415050.107096","Mapping"
"Blocked","m160","ball","5","m160cave.wav","space","428.795309737","138","405100.036729","411971.458888","412739.281779","413506.310419","414273.680071","415040.69449","415791.373421","416558.232328","405867.500986","406634.4242","407401.8393","408152.608509","408919.417331","409686.820063","410454.294523","411221.398909","415801.271112","Mapping"
"Blocked","m160","done","22","m160romp.wav","None","729.74828817","138","419660.563081","411971.458888","412739.281779","413506.310419","414273.680071","415040.69449","415791.373421","416558.232328","405867.500986","406634.4242","407401.8393","408152.608509","408919.417331","409686.820063","410454.294523","411221.398909","416567.086269","Mapping"
"Blocked","m160","done","22","m160done.wav","None","736.162278336","138","419660.563081","411971.458888","412739.281779","413506.310419","414273.680071","415040.69449","415791.373421","416558.232328","420428.079587","406634.4242","407401.8393","408152.608509","408919.417331","409686.820063","410454.294523","411221.398909","419669.684142","Mapping"
"Blocked","m160","done","22","m160depth.wav","space","696.7700026","138","419660.563081","411971.458888","412739.281779","413506.310419","414273.680071","415040.69449","415791.373421","416558.232328","420428.079587","421194.942823","407401.8393","408152.608509","408919.417331","409686.820063","410454.294523","411221.398909","420437.155201","Mapping"
"Blocked","m160","done","22","m160greet.wav","None","728.058378212","138","419660.563081","411971.458888","412739.281779","413506.310419","414273.680071","415040.69449","415791.373421","416558.232328","420428.079587","421194.942823","421962.397805","408152.608509","408919.417331","409686.820063","410454.294523","411221.398909","421203.818405","Mapping"
"Blocked","m160","done","22","m160priest.wav","None","723.578540143","138","419660.563081","411971.458888","412739.281779","413506.310419","414273.680071","415040.69449","415791.373421","416558.232328","420428.079587","421194.942823","421962.397805","422729.845676","408919.417331","409686.820063","410454.294523","411221.398909","421972.071039","Mapping"
"Blocked","m160","done","22","m160done.wav","None","719.930672552","138","419660.563081","411971.458888","412739.281779","413506.310419","414273.680071","415040.69449","415791.373421","416558.232328","420428.079587","421194.942823","421962.397805","422729.845676","423479.927915","409686.820063","410454.294523","411221.398909","422739.480883","Mapping"
"Blocked","m160","done","22","m160priest.wav","None","734.386729077","138","419660.563081","411971.458888","412739.281779","413506.310419","414273.680071","415040.69449","415791.373421","416558.232328","420428.079587","421194.942823","421962.397805","422729.845676","423479.927915","424247.404539","410454.294523","411221.398909","423488.777527","Mapping"
"Blocked","m160","done","22","m160depth.wav","None","730.383936781","138","419660.563081","411971.458888","412739.281779","413506.310419","414273.680071","415040.69449","415791.373421","416558.232328","420428.079587","421194.942823","421962.397805","422729.845676","423479.927915","424247.404539","425014.354032","411221.398909","424256.633808","Mapping"
"Blocked","m160","done","22","m160tile.wav","space","22.3518875428","138","419660.563081","411971.458888","412739.281779","413506.310419","414273.680071","415040.69449","415791.373421","416558.232328","420428.079587","421194.942823","421962.397805","422729.845676","423479.927915","424247.404539","425014.354032","425782.350984","425023.387289","Mapping"
"Blocked","m160","done","22","m160ball.wav","space","0.0352449715137","138","419660.563081","426532.614395","412739.281779","413506.310419","414273.680071","415040.69449","415791.373421","416558.232328","420428.079587","421194.942823","421962.397805","422729.845676","423479.927915","424247.404539","425014.354032","425782.350984","425792.378834","Mapping"
"Blocked","m160","done","22","m160done.wav","None","733.523224015","138","419660.563081","426532.614395","427299.728366","413506.310419","414273.680071","415040.69449","415791.373421","416558.232328","420428.079587","421194.942823","421962.397805","422729.845676","423479.927915","424247.404539","425014.354032","425782.350984","426542.039987","Mapping"
"Blocked","m160","done","22","m160knife.wav","space","440.450926777","138","419660.563081","426532.614395","427299.728366","428066.57707","414273.680071","415040.69449","415791.373421","416558.232328","420428.079587","421194.942823","421962.397805","422729.845676","423479.927915","424247.404539","425014.354032","425782.350984","427309.215791","Mapping"
"Blocked","m160","done","22","m160ball.wav","None","726.393820252","138","419660.563081","426532.614395","427299.728366","428066.57707","428834.182617","415040.69449","415791.373421","416558.232328","420428.079587","421194.942823","421962.397805","422729.845676","423479.927915","424247.404539","425014.354032","425782.350984","428075.471202","Mapping"
"Blocked","m160","done","22","m160knife.wav","None","721.529996023","138","419660.563081","426532.614395","427299.728366","428066.57707","428834.182617","429584.60463","415791.373421","416558.232328","420428.079587","421194.942823","421962.397805","422729.845676","423479.927915","424247.404539","425014.354032","425782.350984","428844.140595","Mapping"
"Blocked","m160","done","22","m160done.wav","None","736.355199013","138","419660.563081","426532.614395","427299.728366","428066.57707","428834.182617","429584.60463","430351.504966","416558.232328","420428.079587","421194.942823","421962.397805","422729.845676","423479.927915","424247.404539","425014.354032","425782.350984","429593.876875","Mapping"
"Blocked","m160","done","22","m160ball.wav","space","669.344366528","138","419660.563081","426532.614395","427299.728366","428066.57707","428834.182617","429584.60463","430351.504966","431118.842155","420428.079587","421194.942823","421962.397805","422729.845676","423479.927915","424247.404539","425014.354032","425782.350984","430360.188555","Mapping"
"Blocked","m160","cave","9","m160knife.wav","None","728.506670799","138","434221.039966","426532.614395","427299.728366","428066.57707","428834.182617","429584.60463","430351.504966","431118.842155","420428.079587","421194.942823","421962.397805","422729.845676","423479.927915","424247.404539","425014.354032","425782.350984","431128.080391","Mapping"
"Blocked","m160","cave","9","m160romp.wav","None","736.19505018","138","434221.039966","426532.614395","427299.728366","428066.57707","428834.182617","429584.60463","430351.504966","431118.842155","434988.007081","421194.942823","421962.397805","422729.845676","423479.927915","424247.404539","425014.354032","425782.350984","434230.383318","Mapping"
"Blocked","m160","cave","9","m160cave.wav","None","737.455526367","138","434221.039966","426532.614395","427299.728366","428066.57707","428834.182617","429584.60463","430351.504966","431118.842155","434988.007081","435755.644472","421962.397805","422729.845676","423479.927915","424247.404539","425014.354032","425782.350984","434996.918836","Mapping"
"Blocked","m160","cave","9","m160romp.wav","None","733.893916011","138","434221.039966","426532.614395","427299.728366","428066.57707","428834.182617","429584.60463","430351.504966","431118.842155","434988.007081","435755.644472","436522.948272","422729.845676","423479.927915","424247.404539","425014.354032","425782.350984","435765.0342","Mapping"
"Blocked","m160","cave","9","m160cave.wav","space","280.947054736","138","434221.039966","426532.614395","427299.728366","428066.57707","428834.182617","429584.60463","430351.504966","431118.842155","434988.007081","435755.644472","436522.948272","437290.325652","423479.927915","424247.404539","425014.354032","425782.350984","436532.349438","Mapping"
"Blocked","m160","cave","9","m160bluff.wav","space","505.706305616","138","434221.039966","426532.614395","427299.728366","428066.57707","428834.182617","429584.60463","430351.504966","431118.842155","434988.007081","435755.644472","436522.948272","437290.325652","438057.616467","424247.404539","425014.354032","425782.350984","437299.577492","Mapping"
"Blocked","m160","cave","9","m160dime.wav","None","720.355468336","138","434221.039966","426532.614395","427299.728366","428066.57707","428834.182617","429584.60463","430351.504966","431118.842155","434988.007081","435755.644472","436522.948272","437290.325652","438057.616467","438807.615848","425014.354032","425782.350984","438066.940033","Mapping"
"Blocked","m160","cave","9","m160depth.wav","None","734.509159811","138","434221.039966","426532.614395","427299.728366","428066.57707","428834.182617","429584.60463","430351.504966","431118.842155","434988.007081","435755.644472","436522.948272","437290.325652","438057.616467","438807.615848","439575.016417","425782.350984","438816.767517","Mapping"
"Blocked","m160","cave","9","m160cave.wav","None","731.378528755","138","434221.039966","426532.614395","427299.728366","428066.57707","428834.182617","429584.60463","430351.504966","431118.842155","434988.007081","435755.644472","436522.948272","437290.325652","438057.616467","438807.615848","439575.016417","440342.550237","439583.766168","Mapping"
"Blocked","m160","cave","9","m160dime.wav","space","637.252155691","138","434221.039966","441109.6707","427299.728366","428066.57707","428834.182617","429584.60463","430351.504966","431118.842155","434988.007081","435755.644472","436522.948272","437290.325652","438057.616467","438807.615848","439575.016417","440342.550237","440351.937491","Mapping"
"Blocked","m160","cave","9","m160cad.wav","None","722.316518426","138","434221.039966","441109.6707","441859.799004","428066.57707","428834.182617","429584.60463","430351.504966","431118.842155","434988.007081","435755.644472","436522.948272","437290.325652","438057.616467","438807.615848","439575.016417","440342.550237","441119.011579","Mapping"
"Blocked","m160","cave","9","m160bluff.wav","None","736.343450379","138","434221.039966","441109.6707","441859.799004","442627.50905","428834.182617","429584.60463","430351.504966","431118.842155","434988.007081","435755.644472","436522.948272","437290.325652","438057.616467","438807.615848","439575.016417","440342.550237","441868.874618","Mapping"
"Blocked","m160","cave","9","m160done.wav","None","732.24574374","138","434221.039966","441109.6707","441859.799004","442627.50905","443394.748233","429584.60463","430351.504966","431118.842155","434988.007081","435755.644472","436522.948272","437290.325652","438057.616467","438807.615848","439575.016417","440342.550237","442636.787786","Mapping"
"Blocked","m160","cave","9","m160cave.wav","None","730.036741588","138","434221.039966","441109.6707","441859.799004","442627.50905","443394.748233","444161.594773","430351.504966","431118.842155","434988.007081","435755.644472","436522.948272","437290.325652","438057.616467","438807.615848","439575.016417","440342.550237","443404.039645","Mapping"
"Blocked","m160","cave","9","m160done.wav","None","727.347601671","138","434221.039966","441109.6707","441859.799004","442627.50905","443394.748233","444161.594773","444929.215469","431118.842155","434988.007081","435755.644472","436522.948272","437290.325652","438057.616467","438807.615848","439575.016417","440342.550237","444170.601442","Mapping"
"Blocked","m160","cave","9","m160jaw.wav","None","722.786453087","138","434221.039966","441109.6707","441859.799004","442627.50905","443394.748233","444161.594773","444929.215469","445696.276572","434988.007081","435755.644472","436522.948272","437290.325652","438057.616467","438807.615848","439575.016417","440342.550237","444939.066784","Mapping"
"Blocked","m160","ball","1","m160cad.wav","space","67.3703942448","138","448798.509318","441109.6707","441859.799004","442627.50905","443394.748233","444161.594773","444929.215469","445696.276572","434988.007081","435755.644472","436522.948272","437290.325652","438057.616467","438807.615848","439575.016417","440342.550237","445705.660116","Mapping"
"Blocked","m160","ball","1","m160done.wav","None","736.154549289","138","448798.509318","441109.6707","441859.799004","442627.50905","443394.748233","444161.594773","444929.215469","445696.276572","449565.941112","435755.644472","436522.948272","437290.325652","438057.616467","438807.615848","439575.016417","440342.550237","448807.730859","Mapping"
"Blocked","m160","ball","1","m160ball.wav","None","732.336329762","138","448798.509318","441109.6707","441859.799004","442627.50905","443394.748233","444161.594773","444929.215469","445696.276572","449565.941112","450333.147833","436522.948272","437290.325652","438057.616467","438807.615848","439575.016417","440342.550237","449575.412151","Mapping"
"Blocked","m160","ball","1","m160cad.wav","None","730.016954709","138","448798.509318","441109.6707","441859.799004","442627.50905","443394.748233","444161.594773","444929.215469","445696.276572","449565.941112","450333.147833","451099.985407","437290.325652","438057.616467","438807.615848","439575.016417","440342.550237","450342.578989","Mapping"
"Blocked","m160","ball","1","m160ball.wav","space","0.0185500830412","138","448798.509318","441109.6707","441859.799004","442627.50905","443394.748233","444161.594773","444929.215469","445696.276572","449565.941112","450333.147833","451099.985407","451867.46234","438057.616467","438807.615848","439575.016417","440342.550237","451109.012791","Mapping"
"Blocked","m160","ball","1","m160done.wav","None","722.105975263","138","448798.509318","441109.6707","441859.799004","442627.50905","443394.748233","444161.594773","444929.215469","445696.276572","449565.941112","450333.147833","451099.985407","451867.46234","452617.974631","438807.615848","439575.016417","440342.550237","451876.768902","Mapping"
"Blocked","m160","ball","1","m160cad.wav","space","41.3335384801","138","448798.509318","441109.6707","441859.799004","442627.50905","443394.748233","444161.594773","444929.215469","445696.276572","449565.941112","450333.147833","451099.985407","451867.46234","452617.974631","453385.475679","439575.016417","440342.550237","452627.425265","Mapping"
"Blocked","m160","ball","1","m160gnash.wav","None","730.01015326","138","448798.509318","441109.6707","441859.799004","442627.50905","443394.748233","444161.594773","444929.215469","445696.276572","449565.941112","450333.147833","451099.985407","451867.46234","452617.974631","453385.475679","454152.72692","440342.550237","453395.00546","Mapping"
"Blocked","m160","ball","1","m160gnash.wav","None","726.253458299","138","448798.509318","441109.6707","441859.799004","442627.50905","443394.748233","444161.594773","444929.215469","445696.276572","449565.941112","450333.147833","451099.985407","451867.46234","452617.974631","453385.475679","454152.72692","454919.460923","454162.705303","Mapping"
"Blocked","m160","ball","1","m160lash.wav","None","724.504188169","138","448798.509318","455686.946513","441859.799004","442627.50905","443394.748233","444161.594773","444929.215469","445696.276572","449565.941112","450333.147833","451099.985407","451867.46234","452617.974631","453385.475679","454152.72692","454919.460923","454928.414725","Mapping"
"Blocked","m160","ball","1","m160knife.wav","None","720.394732431","138","448798.509318","455686.946513","456437.572268","442627.50905","443394.748233","444161.594773","444929.215469","445696.276572","449565.941112","450333.147833","451099.985407","451867.46234","452617.974631","453385.475679","454152.72692","454919.460923","455696.47784","Mapping"
"Blocked","m160","ball","1","m160cave.wav","None","734.166601673","138","448798.509318","455686.946513","456437.572268","457204.672944","443394.748233","444161.594773","444929.215469","445696.276572","449565.941112","450333.147833","451099.985407","451867.46234","452617.974631","453385.475679","454152.72692","454919.460923","456446.727647","Mapping"
"Blocked","m160","ball","1","m160ball.wav","space","158.205369022","138","448798.509318","455686.946513","456437.572268","457204.672944","457972.054344","444161.594773","444929.215469","445696.276572","449565.941112","450333.147833","451099.985407","451867.46234","452617.974631","453385.475679","454152.72692","454919.460923","457214.36782","Mapping"
