"Condition","Talker","Target","Trial","current_stimulus","response_response","response_time_response","subject_nr","time_Audio1","time_Audio10","time_Audio11","time_Audio12","time_Audio13","time_Audio14","time_Audio15","time_Audio16","time_Audio2","time_Audio3","time_Audio4","time_Audio5","time_Audio6","time_Audio7","time_Audio8","time_Audio9","time_response","title"
"Mixed","Both","done","38","m150ball.wav","NA","NA","128","312629.412418","NA","NA","NA","NA","NA","NA","NA","NA","NA","NA","NA","NA","NA","NA","NA","NA","Mapping"
"Mixed","Both","done","38","m150knife.wav","None","718.408507528","128","312629.412418","NA","NA","NA","NA","NA","NA","NA","313395.898434","NA","NA","NA","NA","NA","NA","NA","312644.422514","Mapping"
"Mixed","Both","done","38","m150gnash.wav","None","724.579623668","128","312629.412418","NA","NA","NA","NA","NA","NA","NA","313395.898434","314161.993654","NA","NA","NA","NA","NA","NA","313405.986168","Mapping"
"Mixed","Both","done","38","m160done.wav","None","727.61262214","128","312629.412418","NA","NA","NA","NA","NA","NA","NA","313395.898434","314161.993654","314928.418144","NA","NA","NA","NA","NA","314171.105325","Mapping"
"Mixed","Both","done","38","m160park.wav","space","391.063877498","128","312629.412418","NA","NA","NA","NA","NA","NA","NA","313395.898434","314161.993654","314928.418144","315695.290319","NA","NA","NA","NA","314937.998833","Mapping"
"Mixed","Both","done","38","m150done.wav","None","730.042421783","128","312629.412418","NA","NA","NA","NA","NA","NA","NA","313395.898434","314161.993654","314928.418144","315695.290319","316461.929377","NA","NA","NA","315704.965615","Mapping"
"Mixed","Both","done","38","m150park.wav","space","537.117748696","128","312629.412418","NA","NA","NA","NA","NA","NA","NA","313395.898434","314161.993654","314928.418144","315695.290319","316461.929377","317229.501522","NA","NA","316471.93116","Mapping"
"Mixed","Both","done","38","m160reek.wav","None","731.293340446","128","312629.412418","NA","NA","NA","NA","NA","NA","NA","313395.898434","314161.993654","314928.418144","315695.290319","316461.929377","317229.501522","317995.311374","NA","317239.29554","Mapping"
"Mixed","Both","done","38","m150jolt.wav","None","733.134163369","128","312629.412418","NA","NA","NA","NA","NA","NA","NA","313395.898434","314161.993654","314928.418144","315695.290319","316461.929377","317229.501522","317995.311374","318761.719169","318005.333873","Mapping"
"Mixed","Both","done","38","m150bluff.wav","None","735.716695082","128","312629.412418","319545.989192","NA","NA","NA","NA","NA","NA","313395.898434","314161.993654","314928.418144","315695.290319","316461.929377","317229.501522","317995.311374","318761.719169","318771.414252","Mapping"
"Mixed","Both","done","38","m160park.wav","None","718.692638504","128","312629.412418","319545.989192","320312.610936","NA","NA","NA","NA","NA","313395.898434","314161.993654","314928.418144","315695.290319","316461.929377","317229.501522","317995.311374","318761.719169","319556.239552","Mapping"
"Mixed","Both","done","38","m150done.wav","None","720.618793508","128","312629.412418","319545.989192","320312.610936","321079.334707","NA","NA","NA","NA","313395.898434","314161.993654","314928.418144","315695.290319","316461.929377","317229.501522","317995.311374","318761.719169","320322.476064","Mapping"
"Mixed","Both","done","38","m160ball.wav","space","375.346390996","128","312629.412418","319545.989192","320312.610936","321079.334707","321845.859988","NA","NA","NA","313395.898434","314161.993654","314928.418144","315695.290319","316461.929377","317229.501522","317995.311374","318761.719169","321089.61753","Mapping"
"Mixed","Both","done","38","m160cad.wav","None","722.300082562","128","312629.412418","319545.989192","320312.610936","321079.334707","321845.859988","322612.321889","NA","NA","313395.898434","314161.993654","314928.418144","315695.290319","316461.929377","317229.501522","317995.311374","318761.719169","321856.537008","Mapping"
"Mixed","Both","done","38","m160done.wav","None","725.147885678","128","312629.412418","319545.989192","320312.610936","321079.334707","321845.859988","322612.321889","323378.787809","NA","313395.898434","314161.993654","314928.418144","315695.290319","316461.929377","317229.501522","317995.311374","318761.719169","322621.86053","Mapping"
"Mixed","Both","done","38","m160greet.wav","space","476.272583997","128","312629.412418","319545.989192","320312.610936","321079.334707","321845.859988","322612.321889","323378.787809","324145.549299","313395.898434","314161.993654","314928.418144","315695.290319","316461.929377","317229.501522","317995.311374","318761.719169","323388.676126","Mapping"
"Mixed","Both","done","45","m160depth.wav","None","727.706920181","128","327312.26095","319545.989192","320312.610936","321079.334707","321845.859988","322612.321889","323378.787809","324145.549299","313395.898434","314161.993654","314928.418144","315695.290319","316461.929377","317229.501522","317995.311374","318761.719169","324155.664241","Mapping"
"Mixed","Both","done","45","m150done.wav","None","725.077393989","128","327312.26095","319545.989192","320312.610936","321079.334707","321845.859988","322612.321889","323378.787809","324145.549299","328078.688842","314161.993654","314928.418144","315695.290319","316461.929377","317229.501522","317995.311374","318761.719169","327322.02838","Mapping"
"Mixed","Both","done","45","m150dime.wav","space","416.603208694","128","327312.26095","319545.989192","320312.610936","321079.334707","321845.859988","322612.321889","323378.787809","324145.549299","328078.688842","328845.236384","314928.418144","315695.290319","316461.929377","317229.501522","317995.311374","318761.719169","328088.26211","Mapping"
"Mixed","Both","done","45","m150done.wav","None","728.464396903","128","327312.26095","319545.989192","320312.610936","321079.334707","321845.859988","322612.321889","323378.787809","324145.549299","328078.688842","328845.236384","329611.803713","315695.290319","316461.929377","317229.501522","317995.311374","318761.719169","328854.655993","Mapping"
"Mixed","Both","done","45","m150cad.wav","space","371.989068808","128","327312.26095","319545.989192","320312.610936","321079.334707","321845.859988","322612.321889","323378.787809","324145.549299","328078.688842","328845.236384","329611.803713","330378.966511","316461.929377","317229.501522","317995.311374","318761.719169","329620.839946","Mapping"
"Mixed","Both","done","45","m160priest.wav","None","731.664349441","128","327312.26095","319545.989192","320312.610936","321079.334707","321845.859988","322612.321889","323378.787809","324145.549299","328078.688842","328845.236384","329611.803713","330378.966511","331145.514671","317229.501522","317995.311374","318761.719169","330389.448443","Mapping"
"Mixed","Both","done","45","m150cling.wav","None","733.559586981","128","327312.26095","319545.989192","320312.610936","321079.334707","321845.859988","322612.321889","323378.787809","324145.549299","328078.688842","328845.236384","329611.803713","330378.966511","331145.514671","331929.126462","317995.311374","318761.719169","331155.477809","Mapping"
"Mixed","Both","done","45","m160cling.wav","None","720.304054266","128","327312.26095","319545.989192","320312.610936","321079.334707","321845.859988","322612.321889","323378.787809","324145.549299","328078.688842","328845.236384","329611.803713","330378.966511","331145.514671","331929.126462","332695.968956","318761.719169","331938.578535","Mapping"
"Mixed","Both","done","45","m160done.wav","None","720.65929533","128","327312.26095","319545.989192","320312.610936","321079.334707","321845.859988","322612.321889","323378.787809","324145.549299","328078.688842","328845.236384","329611.803713","330378.966511","331145.514671","331929.126462","332695.968956","333462.574005","332706.311141","Mapping"
"Mixed","Both","done","45","m150jolt.wav","space","352.197285218","128","327312.26095","334228.651293","320312.610936","321079.334707","321845.859988","322612.321889","323378.787809","324145.549299","328078.688842","328845.236384","329611.803713","330378.966511","331145.514671","331929.126462","332695.968956","333462.574005","333472.592793","Mapping"
"Mixed","Both","done","45","m160priest.wav","None","724.515933776","128","327312.26095","334228.651293","334995.407836","321079.334707","321845.859988","322612.321889","323378.787809","324145.549299","328078.688842","328845.236384","329611.803713","330378.966511","331145.514671","331929.126462","332695.968956","333462.574005","334238.459224","Mapping"
"Mixed","Both","done","45","m150park.wav","None","725.63545336","128","327312.26095","334228.651293","334995.407836","335762.102545","321845.859988","322612.321889","323378.787809","324145.549299","328078.688842","328845.236384","329611.803713","330378.966511","331145.514671","331929.126462","332695.968956","333462.574005","335005.340674","Mapping"
"Mixed","Both","done","45","m150bluff.wav","None","726.46898689","128","327312.26095","334228.651293","334995.407836","335762.102545","336528.444486","322612.321889","323378.787809","324145.549299","328078.688842","328845.236384","329611.803713","330378.966511","331145.514671","331929.126462","332695.968956","333462.574005","335772.505019","Mapping"
"Mixed","Both","done","45","m160bluff.wav","None","729.613288073","128","327312.26095","334228.651293","334995.407836","335762.102545","336528.444486","337295.285125","323378.787809","324145.549299","328078.688842","328845.236384","329611.803713","330378.966511","331145.514671","331929.126462","332695.968956","333462.574005","336537.658185","Mapping"
"Mixed","Both","done","45","m160done.wav","None","730.153415352","128","327312.26095","334228.651293","334995.407836","335762.102545","336528.444486","337295.285125","338062.099793","324145.549299","328078.688842","328845.236384","329611.803713","330378.966511","331145.514671","331929.126462","332695.968956","333462.574005","337305.32401","Mapping"
"Mixed","Both","done","45","m160romp.wav","space","344.686826633","128","327312.26095","334228.651293","334995.407836","335762.102545","336528.444486","337295.285125","338062.099793","338828.517791","328078.688842","328845.236384","329611.803713","330378.966511","331145.514671","331929.126462","332695.968956","333462.574005","338072.034796","Mapping"
"Mixed","Both","ball","10","m150cad.wav","None","733.812491468","128","341962.080099","334228.651293","334995.407836","335762.102545","336528.444486","337295.285125","338062.099793","338828.517791","328078.688842","328845.236384","329611.803713","330378.966511","331145.514671","331929.126462","332695.968956","333462.574005","338837.716959","Mapping"
"Mixed","Both","ball","10","m150ball.wav","None","724.163475214","128","341962.080099","334228.651293","334995.407836","335762.102545","336528.444486","337295.285125","338062.099793","338828.517791","342728.533034","328845.236384","329611.803713","330378.966511","331145.514671","331929.126462","332695.968956","333462.574005","341972.084047","Mapping"
"Mixed","Both","ball","10","m160reek.wav","space","461.96554997","128","341962.080099","334228.651293","334995.407836","335762.102545","336528.444486","337295.285125","338062.099793","338828.517791","342728.533034","343495.414483","329611.803713","330378.966511","331145.514671","331929.126462","332695.968956","333462.574005","342738.669927","Mapping"
"Mixed","Both","ball","10","m160bluff.wav","None","727.323853411","128","341962.080099","334228.651293","334995.407836","335762.102545","336528.444486","337295.285125","338062.099793","338828.517791","342728.533034","343495.414483","344261.957697","330378.966511","331145.514671","331929.126462","332695.968956","333462.574005","343504.657245","Mapping"
"Mixed","Both","ball","10","m160ball.wav","None","727.935399918","128","341962.080099","334228.651293","334995.407836","335762.102545","336528.444486","337295.285125","338062.099793","338828.517791","342728.533034","343495.414483","344261.957697","345028.344777","331145.514671","331929.126462","332695.968956","333462.574005","344272.005239","Mapping"
"Mixed","Both","ball","10","m160romp.wav","space","466.547201737","128","341962.080099","334228.651293","334995.407836","335762.102545","336528.444486","337295.285125","338062.099793","338828.517791","342728.533034","343495.414483","344261.957697","345028.344777","345795.258072","331929.126462","332695.968956","333462.574005","345038.064904","Mapping"
"Mixed","Both","ball","10","m150knife.wav","None","731.822337431","128","341962.080099","334228.651293","334995.407836","335762.102545","336528.444486","337295.285125","338062.099793","338828.517791","342728.533034","343495.414483","344261.957697","345028.344777","345795.258072","346561.606197","332695.968956","333462.574005","345804.502689","Mapping"
"Mixed","Both","ball","10","m160ball.wav","None","733.461578726","128","341962.080099","334228.651293","334995.407836","335762.102545","336528.444486","337295.285125","338062.099793","338828.517791","342728.533034","343495.414483","344261.957697","345028.344777","345795.258072","346561.606197","347328.116019","333462.574005","346571.002927","Mapping"
"Mixed","Both","ball","10","m150gnash.wav","space","366.651486198","128","341962.080099","334228.651293","334995.407836","335762.102545","336528.444486","337295.285125","338062.099793","338828.517791","342728.533034","343495.414483","344261.957697","345028.344777","345795.258072","346561.606197","347328.116019","348112.21105","347337.920859","Mapping"
"Mixed","Both","ball","10","m160greet.wav","None","718.3367791","128","341962.080099","348878.475697","334995.407836","335762.102545","336528.444486","337295.285125","338062.099793","338828.517791","342728.533034","343495.414483","344261.957697","345028.344777","345795.258072","346561.606197","347328.116019","348112.21105","348122.568075","Mapping"
"Mixed","Both","ball","10","m150done.wav","None","720.125042368","128","341962.080099","348878.475697","349645.671268","335762.102545","336528.444486","337295.285125","338062.099793","338828.517791","342728.533034","343495.414483","344261.957697","345028.344777","345795.258072","346561.606197","347328.116019","348112.21105","348888.814481","Mapping"
"Mixed","Both","ball","10","m160romp.wav","None","721.681425115","128","341962.080099","348878.475697","349645.671268","350411.904689","336528.444486","337295.285125","338062.099793","338828.517791","342728.533034","343495.414483","344261.957697","345028.344777","345795.258072","346561.606197","347328.116019","348112.21105","349655.347182","Mapping"
"Mixed","Both","ball","10","m150ball.wav","None","723.393631575","128","341962.080099","348878.475697","349645.671268","350411.904689","351178.476346","337295.285125","338062.099793","338828.517791","342728.533034","343495.414483","344261.957697","345028.344777","345795.258072","346561.606197","347328.116019","348112.21105","350421.750649","Mapping"
"Mixed","Both","ball","10","m150cad.wav","space","436.09107408","128","341962.080099","348878.475697","349645.671268","350411.904689","351178.476346","351945.120351","338062.099793","338828.517791","342728.533034","343495.414483","344261.957697","345028.344777","345795.258072","346561.606197","347328.116019","348112.21105","351188.416296","Mapping"
"Mixed","Both","ball","10","m160cad.wav","None","725.975544949","128","341962.080099","348878.475697","349645.671268","350411.904689","351178.476346","351945.120351","352711.615642","338828.517791","342728.533034","343495.414483","344261.957697","345028.344777","345795.258072","346561.606197","347328.116019","348112.21105","351955.106985","Mapping"
"Mixed","Both","ball","10","m150romp.wav","None","728.610636259","128","341962.080099","348878.475697","349645.671268","350411.904689","351178.476346","351945.120351","352711.615642","353478.180807","342728.533034","343495.414483","344261.957697","345028.344777","345795.258072","346561.606197","347328.116019","348112.21105","352720.910654","Mapping"
"Mixed","Both","cave","15","m150reek.wav","None","730.038093345","128","356611.859364","348878.475697","349645.671268","350411.904689","351178.476346","351945.120351","352711.615642","353478.180807","342728.533034","343495.414483","344261.957697","345028.344777","345795.258072","346561.606197","347328.116019","348112.21105","353487.615256","Mapping"
"Mixed","Both","cave","15","m150jolt.wav","None","724.162856874","128","356611.859364","348878.475697","349645.671268","350411.904689","351178.476346","351945.120351","352711.615642","353478.180807","357378.286019","343495.414483","344261.957697","345028.344777","345795.258072","346561.606197","347328.116019","348112.21105","356621.705324","Mapping"
"Mixed","Both","cave","15","m160done.wav","None","725.67904694","128","356611.859364","348878.475697","349645.671268","350411.904689","351178.476346","351945.120351","352711.615642","353478.180807","357378.286019","358145.162831","344261.957697","345028.344777","345795.258072","346561.606197","347328.116019","348112.21105","357388.287494","Mapping"
"Mixed","Both","cave","15","m150bluff.wav","None","726.416736492","128","356611.859364","348878.475697","349645.671268","350411.904689","351178.476346","351945.120351","352711.615642","353478.180807","357378.286019","358145.162831","358911.770662","345028.344777","345795.258072","346561.606197","347328.116019","348112.21105","358155.541808","Mapping"
"Mixed","Both","cave","15","m150tile.wav","None","728.063088842","128","356611.859364","348878.475697","349645.671268","350411.904689","351178.476346","351945.120351","352711.615642","353478.180807","357378.286019","358145.162831","358911.770662","359678.277084","345795.258072","346561.606197","347328.116019","348112.21105","358921.90941","Mapping"
"Mixed","Both","cave","15","m160cave.wav","None","729.925244814","128","356611.859364","348878.475697","349645.671268","350411.904689","351178.476346","351945.120351","352711.615642","353478.180807","357378.286019","358145.162831","358911.770662","359678.277084","360445.149877","346561.606197","347328.116019","348112.21105","359688.233728","Mapping"
"Mixed","Both","cave","15","m160greet.wav","space","377.913154836","128","356611.859364","348878.475697","349645.671268","350411.904689","351178.476346","351945.120351","352711.615642","353478.180807","357378.286019","358145.162831","358911.770662","359678.277084","360445.149877","361228.181348","347328.116019","348112.21105","360454.449835","Mapping"
"Mixed","Both","cave","15","m150depth.wav","None","721.259093203","128","356611.859364","348878.475697","349645.671268","350411.904689","351178.476346","351945.120351","352711.615642","353478.180807","357378.286019","358145.162831","358911.770662","359678.277084","360445.149877","361228.181348","361995.308282","348112.21105","361237.589208","Mapping"
"Mixed","Both","cave","15","m160dime.wav","None","722.418805468","128","356611.859364","348878.475697","349645.671268","350411.904689","351178.476346","351945.120351","352711.615642","353478.180807","357378.286019","358145.162831","358911.770662","359678.277084","360445.149877","361228.181348","361995.308282","362761.392681","362004.982032","Mapping"
"Mixed","Both","cave","15","m150cave.wav","None","725.063481194","128","356611.859364","363528.151389","349645.671268","350411.904689","351178.476346","351945.120351","352711.615642","353478.180807","357378.286019","358145.162831","358911.770662","359678.277084","360445.149877","361228.181348","361995.308282","362761.392681","362770.52043","Mapping"
"Mixed","Both","cave","15","m160priest.wav","space","574.521328846","128","356611.859364","363528.151389","364294.670487","350411.904689","351178.476346","351945.120351","352711.615642","353478.180807","357378.286019","358145.162831","358911.770662","359678.277084","360445.149877","361228.181348","361995.308282","362761.392681","363537.819265","Mapping"
"Mixed","Both","cave","15","m160cave.wav","None","728.422967601","128","356611.859364","363528.151389","364294.670487","365061.758465","351178.476346","351945.120351","352711.615642","353478.180807","357378.286019","358145.162831","358911.770662","359678.277084","360445.149877","361228.181348","361995.308282","362761.392681","364303.714758","Mapping"
"Mixed","Both","cave","15","m160dime.wav","space","608.769168379","128","356611.859364","363528.151389","364294.670487","365061.758465","365828.084638","351945.120351","352711.615642","353478.180807","357378.286019","358145.162831","358911.770662","359678.277084","360445.149877","361228.181348","361995.308282","362761.392681","365071.533934","Mapping"
"Mixed","Both","cave","15","m150cave.wav","None","730.855859001","128","356611.859364","363528.151389","364294.670487","365061.758465","365828.084638","366594.672064","352711.615642","353478.180807","357378.286019","358145.162831","358911.770662","359678.277084","360445.149877","361228.181348","361995.308282","362761.392681","365837.751896","Mapping"
"Mixed","Both","cave","15","m160jolt.wav","space","412.360411719","128","356611.859364","363528.151389","364294.670487","365061.758465","365828.084638","366594.672064","367361.334","353478.180807","357378.286019","358145.162831","358911.770662","359678.277084","360445.149877","361228.181348","361995.308282","362761.392681","366603.943269","Mapping"
"Mixed","Both","cave","15","m150cling.wav","None","734.332213178","128","356611.859364","363528.151389","364294.670487","365061.758465","365828.084638","366594.672064","367361.334","368127.838257","357378.286019","358145.162831","358911.770662","359678.277084","360445.149877","361228.181348","361995.308282","362761.392681","367370.354156","Mapping"
"Mixed","Both","tile","26","m160jaw.wav","None","735.403501661","128","371278.106791","363528.151389","364294.670487","365061.758465","365828.084638","366594.672064","367361.334","368127.838257","357378.286019","358145.162831","358911.770662","359678.277084","360445.149877","361228.181348","361995.308282","362761.392681","368137.536432","Mapping"
"Mixed","Both","tile","26","m150jaw.wav","None","724.829127139","128","371278.106791","363528.151389","364294.670487","365061.758465","365828.084638","366594.672064","367361.334","368127.838257","372044.556015","358145.162831","358911.770662","359678.277084","360445.149877","361228.181348","361995.308282","362761.392681","371288.015204","Mapping"
"Mixed","Both","tile","26","m150greet.wav","None","727.367137792","128","371278.106791","363528.151389","364294.670487","365061.758465","365828.084638","366594.672064","367361.334","368127.838257","372044.556015","372811.421388","358911.770662","359678.277084","360445.149877","361228.181348","361995.308282","362761.392681","372053.749309","Mapping"
"Mixed","Both","tile","26","m150tile.wav","None","729.062030558","128","371278.106791","363528.151389","364294.670487","365061.758465","365828.084638","366594.672064","367361.334","368127.838257","372044.556015","372811.421388","373577.9241","359678.277084","360445.149877","361228.181348","361995.308282","362761.392681","372820.316947","Mapping"
"Mixed","Both","tile","26","m160cling.wav","space","428.70397598","128","371278.106791","363528.151389","364294.670487","365061.758465","365828.084638","366594.672064","367361.334","368127.838257","372044.556015","372811.421388","373577.9241","374344.563157","360445.149877","361228.181348","361995.308282","362761.392681","373587.492731","Mapping"
"Mixed","Both","tile","26","m160tile.wav","None","731.583345798","128","371278.106791","363528.151389","364294.670487","365061.758465","365828.084638","366594.672064","367361.334","368127.838257","372044.556015","372811.421388","373577.9241","374344.563157","375111.20005","361228.181348","361995.308282","362761.392681","374353.979365","Mapping"
"Mixed","Both","tile","26","m160bluff.wav","space","575.949404272","128","371278.106791","363528.151389","364294.670487","365061.758465","365828.084638","366594.672064","367361.334","368127.838257","372044.556015","372811.421388","373577.9241","374344.563157","375111.20005","375877.738935","361995.308282","362761.392681","375120.260399","Mapping"
"Mixed","Both","tile","26","m160greet.wav","None","734.682198323","128","371278.106791","363528.151389","364294.670487","365061.758465","365828.084638","366594.672064","367361.334","368127.838257","372044.556015","372811.421388","373577.9241","374344.563157","375111.20005","375877.738935","376645.136088","362761.392681","375887.348068","Mapping"
"Mixed","Both","tile","26","m150done.wav","None","736.177055398","128","371278.106791","363528.151389","364294.670487","365061.758465","365828.084638","366594.672064","367361.334","368127.838257","372044.556015","372811.421388","373577.9241","374344.563157","375111.20005","375877.738935","376645.136088","377427.85993","376654.194581","Mapping"
"Mixed","Both","tile","26","m150tile.wav","None","721.153355669","128","371278.106791","378194.916064","364294.670487","365061.758465","365828.084638","366594.672064","367361.334","368127.838257","372044.556015","372811.421388","373577.9241","374344.563157","375111.20005","375877.738935","376645.136088","377427.85993","377437.624578","Mapping"
"Mixed","Both","tile","26","m150park.wav","space","379.469228385","128","371278.106791","378194.916064","378961.198025","365061.758465","365828.084638","366594.672064","367361.334","368127.838257","372044.556015","372811.421388","373577.9241","374344.563157","375111.20005","375877.738935","376645.136088","377427.85993","378204.666798","Mapping"
"Mixed","Both","tile","26","m150romp.wav","None","725.125316007","128","371278.106791","378194.916064","378961.198025","379727.941583","365828.084638","366594.672064","367361.334","368127.838257","372044.556015","372811.421388","373577.9241","374344.563157","375111.20005","375877.738935","376645.136088","377427.85993","378970.148617","Mapping"
"Mixed","Both","tile","26","m150lash.wav","None","725.69945245","128","371278.106791","378194.916064","378961.198025","379727.941583","380494.709257","366594.672064","367361.334","368127.838257","372044.556015","372811.421388","373577.9241","374344.563157","375111.20005","375877.738935","376645.136088","377427.85993","379737.757554","Mapping"
"Mixed","Both","tile","26","m160done.wav","None","727.476585482","128","371278.106791","378194.916064","378961.198025","379727.941583","380494.709257","381261.531346","367361.334","368127.838257","372044.556015","372811.421388","373577.9241","374344.563157","375111.20005","375877.738935","376645.136088","377427.85993","380504.672394","Mapping"
"Mixed","Both","tile","26","m160tile.wav","None","729.116136034","128","371278.106791","378194.916064","378961.198025","379727.941583","380494.709257","381261.531346","382027.736323","368127.838257","372044.556015","372811.421388","373577.9241","374344.563157","375111.20005","375877.738935","376645.136088","377427.85993","381271.502831","Mapping"
"Mixed","Both","tile","26","m160lash.wav","space","378.897565359","128","371278.106791","378194.916064","378961.198025","379727.941583","380494.709257","381261.531346","382027.736323","382794.383109","372044.556015","372811.421388","373577.9241","374344.563157","375111.20005","375877.738935","376645.136088","377427.85993","382037.17541","Mapping"
"Mixed","Both","done","48","m150reek.wav","None","733.300808177","128","385927.952528","378194.916064","378961.198025","379727.941583","380494.709257","381261.531346","382027.736323","382794.383109","372044.556015","372811.421388","373577.9241","374344.563157","375111.20005","375877.738935","376645.136088","377427.85993","382803.563108","Mapping"
"Mixed","Both","done","48","m160depth.wav","None","724.80284737","128","385927.952528","378194.916064","378961.198025","379727.941583","380494.709257","381261.531346","382027.736323","382794.383109","386694.646928","372811.421388","373577.9241","374344.563157","375111.20005","375877.738935","376645.136088","377427.85993","385937.769426","Mapping"
"Mixed","Both","done","48","m160greet.wav","None","726.407770417","128","385927.952528","378194.916064","378961.198025","379727.941583","380494.709257","381261.531346","382027.736323","382794.383109","386694.646928","387461.357714","373577.9241","374344.563157","375111.20005","375877.738935","376645.136088","377427.85993","386704.535554","Mapping"
"Mixed","Both","done","48","m150cling.wav","None","728.488203313","128","385927.952528","378194.916064","378961.198025","379727.941583","380494.709257","381261.531346","382027.736323","382794.383109","386694.646928","387461.357714","388227.83631","374344.563157","375111.20005","375877.738935","376645.136088","377427.85993","387470.785361","Mapping"
"Mixed","Both","done","48","m160done.wav","None","730.170419905","128","385927.952528","378194.916064","378961.198025","379727.941583","380494.709257","381261.531346","382027.736323","382794.383109","386694.646928","387461.357714","388227.83631","388994.671693","375111.20005","375877.738935","376645.136088","377427.85993","388237.694946","Mapping"
"Mixed","Both","done","48","m150priest.wav","space","379.621342057","128","385927.952528","378194.916064","378961.198025","379727.941583","380494.709257","381261.531346","382027.736323","382794.383109","386694.646928","387461.357714","388227.83631","388994.671693","389760.91408","375877.738935","376645.136088","377427.85993","389004.328129","Mapping"
"Mixed","Both","done","48","m150done.wav","None","733.665015374","128","385927.952528","378194.916064","378961.198025","379727.941583","380494.709257","381261.531346","382027.736323","382794.383109","386694.646928","387461.357714","388227.83631","388994.671693","389760.91408","390527.918581","376645.136088","377427.85993","389770.890202","Mapping"
"Mixed","Both","done","48","m150lash.wav","space","534.404127102","128","385927.952528","378194.916064","378961.198025","379727.941583","380494.709257","381261.531346","382027.736323","382794.383109","386694.646928","387461.357714","388227.83631","388994.671693","389760.91408","390527.918581","391311.408557","377427.85993","390537.520293","Mapping"
"Mixed","Both","done","48","m160done.wav","None","720.416902797","128","385927.952528","378194.916064","378961.198025","379727.941583","380494.709257","381261.531346","382027.736323","382794.383109","386694.646928","387461.357714","388227.83631","388994.671693","389760.91408","390527.918581","391311.408557","392078.244249","391320.918136","Mapping"
"Mixed","Both","done","48","m160reek.wav","space","357.850534725","128","385927.952528","392844.956272","378961.198025","379727.941583","380494.709257","381261.531346","382027.736323","382794.383109","386694.646928","387461.357714","388227.83631","388994.671693","389760.91408","390527.918581","391311.408557","392078.244249","392098.068496","Mapping"
"Mixed","Both","done","48","m160dime.wav","None","722.340584442","128","385927.952528","392844.956272","393611.02614","379727.941583","380494.709257","381261.531346","382027.736323","382794.383109","386694.646928","387461.357714","388227.83631","388994.671693","389760.91408","390527.918581","391311.408557","392078.244249","392855.167676","Mapping"
"Mixed","Both","done","48","m160ball.wav","space","347.812886524","128","385927.952528","392844.956272","393611.02614","394377.715593","380494.709257","381261.531346","382027.736323","382794.383109","386694.646928","387461.357714","388227.83631","388994.671693","389760.91408","390527.918581","391311.408557","392078.244249","393620.09329","Mapping"
"Mixed","Both","done","48","m160ball.wav","None","698.794808239","128","385927.952528","392844.956272","393611.02614","394377.715593","395144.521295","381261.531346","382027.736323","382794.383109","386694.646928","387461.357714","388227.83631","388994.671693","389760.91408","390527.918581","391311.408557","392078.244249","394414.885437","Mapping"
"Mixed","Both","done","48","m150park.wav","None","709.476156975","128","385927.952528","392844.956272","393611.02614","394377.715593","395144.521295","395910.918887","382027.736323","382794.383109","386694.646928","387461.357714","388227.83631","388994.671693","389760.91408","390527.918581","391311.408557","392078.244249","395172.756006","Mapping"
"Mixed","Both","done","48","m150done.wav","None","730.739300314","128","385927.952528","392844.956272","393611.02614","394377.715593","395144.521295","395910.918887","396677.663064","382794.383109","386694.646928","387461.357714","388227.83631","388994.671693","389760.91408","390527.918581","391311.408557","392078.244249","395919.89916","Mapping"
"Mixed","Both","done","48","m150jolt.wav","space","416.747902171","128","385927.952528","392844.956272","393611.02614","394377.715593","395144.521295","395910.918887","396677.663064","397444.450834","386694.646928","387461.357714","388227.83631","388994.671693","389760.91408","390527.918581","391311.408557","392078.244249","396687.08731","Mapping"
"Mixed","Both","ball","1","m150jolt.wav","None","732.978030399","128","400577.595757","392844.956272","393611.02614","394377.715593","395144.521295","395910.918887","396677.663064","397444.450834","386694.646928","387461.357714","388227.83631","388994.671693","389760.91408","390527.918581","391311.408557","392078.244249","397453.734716","Mapping"
"Mixed","Both","ball","1","m150jaw.wav","None","725.181894901","128","400577.595757","392844.956272","393611.02614","394377.715593","395144.521295","395910.918887","396677.663064","397444.450834","401344.415372","387461.357714","388227.83631","388994.671693","389760.91408","390527.918581","391311.408557","392078.244249","400587.193141","Mapping"
"Mixed","Both","ball","1","m150bluff.wav","None","727.269438736","128","400577.595757","392844.956272","393611.02614","394377.715593","395144.521295","395910.918887","396677.663064","397444.450834","401344.415372","402111.09895","388227.83631","388994.671693","389760.91408","390527.918581","391311.408557","392078.244249","401353.579294","Mapping"
"Mixed","Both","ball","1","m150bluff.wav","None","728.74265362","128","400577.595757","392844.956272","393611.02614","394377.715593","395144.521295","395910.918887","396677.663064","397444.450834","401344.415372","402111.09895","402877.635362","388994.671693","389760.91408","390527.918581","391311.408557","392078.244249","402120.442502","Mapping"
"Mixed","Both","ball","1","m160romp.wav","None","730.758159945","128","400577.595757","392844.956272","393611.02614","394377.715593","395144.521295","395910.918887","396677.663064","397444.450834","401344.415372","402111.09895","402877.635362","403644.080567","389760.91408","390527.918581","391311.408557","392078.244249","402886.765893","Mapping"
"Mixed","Both","ball","1","m160romp.wav","None","732.70719382","128","400577.595757","392844.956272","393611.02614","394377.715593","395144.521295","395910.918887","396677.663064","397444.450834","401344.415372","402111.09895","402877.635362","403644.080567","404410.682833","390527.918581","391311.408557","392078.244249","403653.365995","Mapping"
"Mixed","Both","ball","1","m160cave.wav","None","735.364545719","128","400577.595757","392844.956272","393611.02614","394377.715593","395144.521295","395910.918887","396677.663064","397444.450834","401344.415372","402111.09895","402877.635362","403644.080567","404410.682833","405194.266489","391311.408557","392078.244249","404419.578392","Mapping"
"Mixed","Both","ball","1","m150ball.wav","None","720.287667995","128","400577.595757","392844.956272","393611.02614","394377.715593","395144.521295","395910.918887","396677.663064","397444.450834","401344.415372","402111.09895","402877.635362","403644.080567","404410.682833","405194.266489","405962.213662","392078.244249","405203.442778","Mapping"
"Mixed","Both","ball","1","m150park.wav","space","363.943738921","128","400577.595757","392844.956272","393611.02614","394377.715593","395144.521295","395910.918887","396677.663064","397444.450834","401344.415372","402111.09895","402877.635362","403644.080567","404410.682833","405194.266489","405962.213662","406728.001872","405971.718912","Mapping"
"Mixed","Both","ball","1","m160cad.wav","None","722.119524842","128","400577.595757","407494.057209","393611.02614","394377.715593","395144.521295","395910.918887","396677.663064","397444.450834","401344.415372","402111.09895","402877.635362","403644.080567","404410.682833","405194.266489","405962.213662","406728.001872","406737.790326","Mapping"
"Mixed","Both","ball","1","m160ball.wav","None","725.340192032","128","400577.595757","407494.057209","408260.655765","394377.715593","395144.521295","395910.918887","396677.663064","397444.450834","401344.415372","402111.09895","402877.635362","403644.080567","404410.682833","405194.266489","405962.213662","406728.001872","407502.927725","Mapping"
"Mixed","Both","ball","1","m150dime.wav","space","490.143682517","128","400577.595757","407494.057209","408260.655765","409027.469505","395144.521295","395910.918887","396677.663064","397444.450834","401344.415372","402111.09895","402877.635362","403644.080567","404410.682833","405194.266489","405962.213662","406728.001872","408269.536483","Mapping"
"Mixed","Both","ball","1","m160ball.wav","None","728.027533798","128","400577.595757","407494.057209","408260.655765","409027.469505","409794.246145","395910.918887","396677.663064","397444.450834","401344.415372","402111.09895","402877.635362","403644.080567","404410.682833","405194.266489","405962.213662","406728.001872","409036.607457","Mapping"
"Mixed","Both","ball","1","m160park.wav","space","452.088363178","128","400577.595757","407494.057209","408260.655765","409027.469505","409794.246145","410560.675273","396677.663064","397444.450834","401344.415372","402111.09895","402877.635362","403644.080567","404410.682833","405194.266489","405962.213662","406728.001872","409803.548577","Mapping"
"Mixed","Both","ball","1","m150ball.wav","None","731.586128357","128","400577.595757","407494.057209","408260.655765","409027.469505","409794.246145","410560.675273","411327.68534","397444.450834","401344.415372","402111.09895","402877.635362","403644.080567","404410.682833","405194.266489","405962.213662","406728.001872","410569.906286","Mapping"
"Mixed","Both","ball","1","m160park.wav","space","438.18634731","128","400577.595757","407494.057209","408260.655765","409027.469505","409794.246145","410560.675273","411327.68534","412094.166718","401344.415372","402111.09895","402877.635362","403644.080567","404410.682833","405194.266489","405962.213662","406728.001872","411337.414432","Mapping"
"Mixed","Both","ball","5","m160lash.wav","None","734.158457315","128","415227.510131","407494.057209","408260.655765","409027.469505","409794.246145","410560.675273","411327.68534","412094.166718","401344.415372","402111.09895","402877.635362","403644.080567","404410.682833","405194.266489","405962.213662","406728.001872","412103.519546","Mapping"
"Mixed","Both","ball","5","m160ball.wav","None","725.305564527","128","415227.510131","407494.057209","408260.655765","409027.469505","409794.246145","410560.675273","411327.68534","412094.166718","415994.269148","402111.09895","402877.635362","403644.080567","404410.682833","405194.266489","405962.213662","406728.001872","415236.929431","Mapping"
"Mixed","Both","ball","5","m160greet.wav","space","443.669860077","128","415227.510131","407494.057209","408260.655765","409027.469505","409794.246145","410560.675273","411327.68534","412094.166718","415994.269148","416760.902949","402877.635362","403644.080567","404410.682833","405194.266489","405962.213662","406728.001872","416003.876735","Mapping"
"Mixed","Both","ball","5","m150done.wav","None","727.946839354","128","415227.510131","407494.057209","408260.655765","409027.469505","409794.246145","410560.675273","411327.68534","412094.166718","415994.269148","416760.902949","417527.385565","403644.080567","404410.682833","405194.266489","405962.213662","406728.001872","416770.388722","Mapping"
"Mixed","Both","ball","5","m160cling.wav","None","729.770966864","128","415227.510131","407494.057209","408260.655765","409027.469505","409794.246145","410560.675273","411327.68534","412094.166718","415994.269148","416760.902949","417527.385565","418294.207344","404410.682833","405194.266489","405962.213662","406728.001872","417537.017267","Mapping"
"Mixed","Both","ball","5","m150lash.wav","None","732.232920651","128","415227.510131","407494.057209","408260.655765","409027.469505","409794.246145","410560.675273","411327.68534","412094.166718","415994.269148","416760.902949","417527.385565","418294.207344","419060.546502","405194.266489","405962.213662","406728.001872","418303.477931","Mapping"
"Mixed","Both","ball","5","m150bluff.wav","None","734.554509399","128","415227.510131","407494.057209","408260.655765","409027.469505","409794.246145","410560.675273","411327.68534","412094.166718","415994.269148","416760.902949","417527.385565","418294.207344","419060.546502","419827.14073","405962.213662","406728.001872","419069.526775","Mapping"
"Mixed","Both","ball","5","m160tile.wav","None","736.314637878","128","415227.510131","407494.057209","408260.655765","409027.469505","409794.246145","410560.675273","411327.68534","412094.166718","415994.269148","416760.902949","417527.385565","418294.207344","419060.546502","419827.14073","420610.750975","406728.001872","419836.317637","Mapping"
"Mixed","Both","ball","5","m150ball.wav","None","720.684956759","128","415227.510131","407494.057209","408260.655765","409027.469505","409794.246145","410560.675273","411327.68534","412094.166718","415994.269148","416760.902949","417527.385565","418294.207344","419060.546502","419827.14073","420610.750975","421377.718993","420620.339393","Mapping"
"Mixed","Both","ball","5","m160depth.wav","space","395.774454926","128","415227.510131","422143.831836","408260.655765","409027.469505","409794.246145","410560.675273","411327.68534","412094.166718","415994.269148","416760.902949","417527.385565","418294.207344","419060.546502","419827.14073","420610.750975","421377.718993","421387.701299","Mapping"
"Mixed","Both","ball","5","m160ball.wav","None","724.822634482","128","415227.510131","422143.831836","422910.536748","409027.469505","409794.246145","410560.675273","411327.68534","412094.166718","415994.269148","416760.902949","417527.385565","418294.207344","419060.546502","419827.14073","420610.750975","421377.718993","422153.065632","Mapping"
"Mixed","Both","ball","5","m150romp.wav","space","408.089789154","128","415227.510131","422143.831836","422910.536748","423677.301021","409794.246145","410560.675273","411327.68534","412094.166718","415994.269148","416760.902949","417527.385565","418294.207344","419060.546502","419827.14073","420610.750975","421377.718993","422919.37851","Mapping"
"Mixed","Both","ball","5","m150done.wav","None","727.352297457","128","415227.510131","422143.831836","422910.536748","423677.301021","424444.123419","410560.675273","411327.68534","412094.166718","415994.269148","416760.902949","417527.385565","418294.207344","419060.546502","419827.14073","420610.750975","421377.718993","423686.859758","Mapping"
"Mixed","Both","ball","5","m150ball.wav","None","730.263172183","128","415227.510131","422143.831836","422910.536748","423677.301021","424444.123419","425210.792157","411327.68534","412094.166718","415994.269148","416760.902949","417527.385565","418294.207344","419060.546502","419827.14073","420610.750975","421377.718993","424453.183767","Mapping"
"Mixed","Both","ball","5","m150gnash.wav","space","506.894429098","128","415227.510131","422143.831836","422910.536748","423677.301021","424444.123419","425210.792157","425977.213556","412094.166718","415994.269148","416760.902949","417527.385565","418294.207344","419060.546502","419827.14073","420610.750975","421377.718993","425220.536399","Mapping"
"Mixed","Both","ball","5","m160done.wav","None","733.5163026","128","415227.510131","422143.831836","422910.536748","423677.301021","424444.123419","425210.792157","425977.213556","426743.814585","415994.269148","416760.902949","417527.385565","418294.207344","419060.546502","419827.14073","420610.750975","421377.718993","425986.328937","Mapping"
"Mixed","Both","cave","16","m150jaw.wav","None","734.741250577","128","429894.075079","422143.831836","422910.536748","423677.301021","424444.123419","425210.792157","425977.213556","426743.814585","415994.269148","416760.902949","417527.385565","418294.207344","419060.546502","419827.14073","420610.750975","421377.718993","426753.808021","Mapping"
"Mixed","Both","cave","16","m150cave.wav","None","725.441601186","128","429894.075079","422143.831836","422910.536748","423677.301021","424444.123419","425210.792157","425977.213556","426743.814585","430660.640553","416760.902949","417527.385565","418294.207344","419060.546502","419827.14073","420610.750975","421377.718993","429903.403791","Mapping"
"Mixed","Both","cave","16","m150gnash.wav","space","417.10994509","128","429894.075079","422143.831836","422910.536748","423677.301021","424444.123419","425210.792157","425977.213556","426743.814585","430660.640553","431427.148212","417527.385565","418294.207344","419060.546502","419827.14073","420610.750975","421377.718993","430670.233918","Mapping"
"Mixed","Both","cave","16","m160cling.wav","None","728.628568409","128","429894.075079","422143.831836","422910.536748","423677.301021","424444.123419","425210.792157","425977.213556","426743.814585","430660.640553","431427.148212","432193.930107","418294.207344","419060.546502","419827.14073","420610.750975","421377.718993","431436.604921","Mapping"
"Mixed","Both","cave","16","m150cave.wav","None","730.085087824","128","429894.075079","422143.831836","422910.536748","423677.301021","424444.123419","425210.792157","425977.213556","426743.814585","430660.640553","431427.148212","432193.930107","432960.658207","419060.546502","419827.14073","420610.750975","421377.718993","432203.763082","Mapping"
"Mixed","Both","cave","16","m150bluff.wav","space","373.530302022","128","429894.075079","422143.831836","422910.536748","423677.301021","424444.123419","425210.792157","425977.213556","426743.814585","430660.640553","431427.148212","432193.930107","432960.658207","433727.150407","419827.14073","420610.750975","421377.718993","432969.769569","Mapping"
"Mixed","Both","cave","16","m160jolt.wav","None","733.830732701","128","429894.075079","422143.831836","422910.536748","423677.301021","424444.123419","425210.792157","425977.213556","426743.814585","430660.640553","431427.148212","432193.930107","432960.658207","433727.150407","434493.914061","420610.750975","421377.718993","433736.719965","Mapping"
"Mixed","Both","cave","16","m160depth.wav","None","736.218484701","128","429894.075079","422143.831836","422910.536748","423677.301021","424444.123419","425210.792157","425977.213556","426743.814585","430660.640553","431427.148212","432193.930107","432960.658207","433727.150407","434493.914061","435277.36941","421377.718993","434503.030061","Mapping"
"Mixed","Both","cave","16","m150jaw.wav","None","720.569325669","128","429894.075079","422143.831836","422910.536748","423677.301021","424444.123419","425210.792157","425977.213556","426743.814585","430660.640553","431427.148212","432193.930107","432960.658207","433727.150407","434493.914061","435277.36941","436044.01496","435287.123237","Mapping"
"Mixed","Both","cave","16","m160cave.wav","None","723.728776327","128","429894.075079","436810.629593","422910.536748","423677.301021","424444.123419","425210.792157","425977.213556","426743.814585","430660.640553","431427.148212","432193.930107","432960.658207","433727.150407","434493.914061","435277.36941","436044.01496","436053.042846","Mapping"
"Mixed","Both","cave","16","m160park.wav","space","347.043352085","128","429894.075079","436810.629593","437576.891458","423677.301021","424444.123419","425210.792157","425977.213556","426743.814585","430660.640553","431427.148212","432193.930107","432960.658207","433727.150407","434493.914061","435277.36941","436044.01496","436820.209354","Mapping"
"Mixed","Both","cave","16","m160cave.wav","None","726.810624357","128","429894.075079","436810.629593","437576.891458","438343.557413","424444.123419","425210.792157","425977.213556","426743.814585","430660.640553","431427.148212","432193.930107","432960.658207","433727.150407","434493.914061","435277.36941","436044.01496","437586.156789","Mapping"
"Mixed","Both","cave","16","m160depth.wav","space","590.920853545","128","429894.075079","436810.629593","437576.891458","438343.557413","439110.731651","425210.792157","425977.213556","426743.814585","430660.640553","431427.148212","432193.930107","432960.658207","433727.150407","434493.914061","435277.36941","436044.01496","438352.275197","Mapping"
"Mixed","Both","cave","16","m150greet.wav","None","729.135304806","128","429894.075079","436810.629593","437576.891458","438343.557413","439110.731651","439877.060298","425977.213556","426743.814585","430660.640553","431427.148212","432193.930107","432960.658207","433727.150407","434493.914061","435277.36941","436044.01496","439120.170738","Mapping"
"Mixed","Both","cave","16","m150bluff.wav","None","731.240780849","128","429894.075079","436810.629593","437576.891458","438343.557413","439110.731651","439877.060298","440643.469948","426743.814585","430660.640553","431427.148212","432193.930107","432960.658207","433727.150407","434493.914061","435277.36941","436044.01496","439886.741777","Mapping"
"Mixed","Both","cave","16","m160lash.wav","None","734.207306814","128","429894.075079","436810.629593","437576.891458","438343.557413","439110.731651","439877.060298","440643.469948","441410.405813","430660.640553","431427.148212","432193.930107","432960.658207","433727.150407","434493.914061","435277.36941","436044.01496","440652.60388","Mapping"
"Mixed","Both","done","46","m160romp.wav","None","736.041946278","128","444560.521614","436810.629593","437576.891458","438343.557413","439110.731651","439877.060298","440643.469948","441410.405813","430660.640553","431427.148212","432193.930107","432960.658207","433727.150407","434493.914061","435277.36941","436044.01496","441419.491204","Mapping"
"Mixed","Both","done","46","m150lash.wav","None","724.749978574","128","444560.521614","436810.629593","437576.891458","438343.557413","439110.731651","439877.060298","440643.469948","441410.405813","445327.002683","431427.148212","432193.930107","432960.658207","433727.150407","434493.914061","435277.36941","436044.01496","444569.986672","Mapping"
"Mixed","Both","done","46","m160done.wav","None","727.205130563","128","444560.521614","436810.629593","437576.891458","438343.557413","439110.731651","439877.060298","440643.469948","441410.405813","445327.002683","446093.882587","432193.930107","432960.658207","433727.150407","434493.914061","435277.36941","436044.01496","445336.216073","Mapping"
"Mixed","Both","done","46","m150park.wav","space","391.585763544","128","444560.521614","436810.629593","437576.891458","438343.557413","439110.731651","439877.060298","440643.469948","441410.405813","445327.002683","446093.882587","446860.233494","432960.658207","433727.150407","434493.914061","435277.36941","436044.01496","446103.510889","Mapping"
"Mixed","Both","done","46","m150done.wav","None","730.474028911","128","444560.521614","436810.629593","437576.891458","438343.557413","439110.731651","439877.060298","440643.469948","441410.405813","445327.002683","446093.882587","446860.233494","447626.924184","433727.150407","434493.914061","435277.36941","436044.01496","446869.496661","Mapping"
"Mixed","Both","done","46","m160tile.wav","space","402.667492803","128","444560.521614","436810.629593","437576.891458","438343.557413","439110.731651","439877.060298","440643.469948","441410.405813","445327.002683","446093.882587","446860.233494","447626.924184","448393.412983","434493.914061","435277.36941","436044.01496","447636.430671","Mapping"
"Mixed","Both","done","46","m150cave.wav","None","733.753748355","128","444560.521614","436810.629593","437576.891458","438343.557413","439110.731651","439877.060298","440643.469948","441410.405813","445327.002683","446093.882587","446860.233494","447626.924184","448393.412983","449159.917549","435277.36941","436044.01496","448402.537949","Mapping"
"Mixed","Both","done","46","m150done.wav","None","736.06142425","128","444560.521614","436810.629593","437576.891458","438343.557413","439110.731651","439877.060298","440643.469948","441410.405813","445327.002683","446093.882587","446860.233494","447626.924184","448393.412983","449159.917549","449944.302585","436044.01496","449168.957183","Mapping"
"Mixed","Both","done","46","m150jaw.wav","space","380.714272673","128","444560.521614","436810.629593","437576.891458","438343.557413","439110.731651","439877.060298","440643.469948","441410.405813","445327.002683","446093.882587","446860.233494","447626.924184","448393.412983","449159.917549","449944.302585","450710.679772","449954.345489","Mapping"
"Mixed","Both","done","46","m160bluff.wav","None","720.262934105","128","444560.521614","451477.220512","437576.891458","438343.557413","439110.731651","439877.060298","440643.469948","441410.405813","445327.002683","446093.882587","446860.233494","447626.924184","448393.412983","449159.917549","449944.302585","450710.679772","450721.446453","Mapping"
"Mixed","Both","done","46","m150cad.wav","None","723.210909637","128","444560.521614","451477.220512","452243.343558","438343.557413","439110.731651","439877.060298","440643.469948","441410.405813","445327.002683","446093.882587","446860.233494","447626.924184","448393.412983","449159.917549","449944.302585","450710.679772","451487.397598","Mapping"
"Mixed","Both","done","46","m160gnash.wav","None","726.87122249","128","444560.521614","451477.220512","452243.343558","453010.421024","439110.731651","439877.060298","440643.469948","441410.405813","445327.002683","446093.882587","446860.233494","447626.924184","448393.412983","449159.917549","449944.302585","450710.679772","452252.494494","Mapping"
"Mixed","Both","done","46","m160cad.wav","None","728.027533798","128","444560.521614","451477.220512","452243.343558","453010.421024","453776.760183","439877.060298","440643.469948","441410.405813","445327.002683","446093.882587","446860.233494","447626.924184","448393.412983","449159.917549","449944.302585","450710.679772","453019.94668","Mapping"
"Mixed","Both","done","46","m160done.wav","None","731.060532271","128","444560.521614","451477.220512","452243.343558","453010.421024","453776.760183","454543.310507","440643.469948","441410.405813","445327.002683","446093.882587","446860.233494","447626.924184","448393.412983","449159.917549","449944.302585","450710.679772","453785.963679","Mapping"
"Mixed","Both","done","46","m150cad.wav","space","382.510883734","128","444560.521614","451477.220512","452243.343558","453010.421024","453776.760183","454543.310507","455309.904425","441410.405813","445327.002683","446093.882587","446860.233494","447626.924184","448393.412983","449159.917549","449944.302585","450710.679772","454552.463608","Mapping"
"Mixed","Both","done","46","m160ball.wav","None","735.307966825","128","444560.521614","451477.220512","452243.343558","453010.421024","453776.760183","454543.310507","455309.904425","456094.088188","445327.002683","446093.882587","446860.233494","447626.924184","448393.412983","449159.917549","449944.302585","450710.679772","455318.83523","Mapping"
"Mixed","Both","tile","32","m150reek.wav","None","719.021908997","128","459226.801504","451477.220512","452243.343558","453010.421024","453776.760183","454543.310507","455309.904425","456094.088188","445327.002683","446093.882587","446860.233494","447626.924184","448393.412983","449159.917549","449944.302585","450710.679772","456103.875405","Mapping"
"Mixed","Both","tile","32","m150greet.wav","None","725.872280775","128","459226.801504","451477.220512","452243.343558","453010.421024","453776.760183","454543.310507","455309.904425","456094.088188","459993.536096","446093.882587","446860.233494","447626.924184","448393.412983","449159.917549","449944.302585","450710.679772","459235.812384","Mapping"
"Mixed","Both","tile","32","m160tile.wav","None","727.530381759","128","459226.801504","451477.220512","452243.343558","453010.421024","453776.760183","454543.310507","455309.904425","456094.088188","459993.536096","460760.079","446860.233494","447626.924184","448393.412983","449159.917549","449944.302585","450710.679772","460002.930353","Mapping"
"Mixed","Both","tile","32","m150depth.wav","space","661.406995903","128","459226.801504","451477.220512","452243.343558","453010.421024","453776.760183","454543.310507","455309.904425","456094.088188","459993.536096","460760.079","461526.747738","447626.924184","448393.412983","449159.917549","449944.302585","450710.679772","460769.500155","Mapping"
"Mixed","Both","tile","32","m160tile.wav","None","731.237689091","128","459226.801504","451477.220512","452243.343558","453010.421024","453776.760183","454543.310507","455309.904425","456094.088188","459993.536096","460760.079","461526.747738","462293.445848","448393.412983","449159.917549","449944.302585","450710.679772","461536.253607","Mapping"
"Mixed","Both","tile","32","m150cling.wav","space","439.656470378","128","459226.801504","451477.220512","452243.343558","453010.421024","453776.760183","454543.310507","455309.904425","456094.088188","459993.536096","460760.079","461526.747738","462293.445848","463059.639385","449159.917549","449944.302585","450710.679772","462303.216679","Mapping"
"Mixed","Both","tile","32","m160knife.wav","None","736.257131502","128","459226.801504","451477.220512","452243.343558","453010.421024","453776.760183","454543.310507","455309.904425","456094.088188","459993.536096","460760.079","461526.747738","462293.445848","463059.639385","463843.816965","449944.302585","450710.679772","463068.71983","Mapping"
"Mixed","Both","tile","32","m150jaw.wav","None","720.645073336","128","459226.801504","451477.220512","452243.343558","453010.421024","453776.760183","454543.310507","455309.904425","456094.088188","459993.536096","460760.079","461526.747738","462293.445848","463059.639385","463843.816965","464610.345647","450710.679772","463853.67251","Mapping"
"Mixed","Both","tile","32","m160reek.wav","None","723.334888462","128","459226.801504","451477.220512","452243.343558","453010.421024","453776.760183","454543.310507","455309.904425","456094.088188","459993.536096","460760.079","461526.747738","462293.445848","463059.639385","463843.816965","464610.345647","465376.666565","464619.78628","Mapping"
"Mixed","Both","tile","32","m160jaw.wav","None","725.721403782","128","459226.801504","466143.462064","452243.343558","453010.421024","453776.760183","454543.310507","455309.904425","456094.088188","459993.536096","460760.079","461526.747738","462293.445848","463059.639385","463843.816965","464610.345647","465376.666565","465386.528911","Mapping"
"Mixed","Both","tile","32","m150tile.wav","None","728.490367532","128","459226.801504","466143.462064","466910.05289","453010.421024","453776.760183","454543.310507","455309.904425","456094.088188","459993.536096","460760.079","461526.747738","462293.445848","463059.639385","463843.816965","464610.345647","465376.666565","466152.85663","Mapping"
"Mixed","Both","tile","32","m160priest.wav","space","423.816550872","128","459226.801504","466143.462064","466910.05289","467676.643098","453776.760183","454543.310507","455309.904425","456094.088188","459993.536096","460760.079","461526.747738","462293.445848","463059.639385","463843.816965","464610.345647","465376.666565","466919.020487","Mapping"
"Mixed","Both","tile","32","m160cling.wav","None","732.087299635","128","459226.801504","466143.462064","466910.05289","467676.643098","468443.245055","454543.310507","455309.904425","456094.088188","459993.536096","460760.079","461526.747738","462293.445848","463059.639385","463843.816965","464610.345647","465376.666565","467686.047558","Mapping"
"Mixed","Both","tile","32","m150tile.wav","None","733.899060171","128","459226.801504","466143.462064","466910.05289","467676.643098","468443.245055","469226.672887","455309.904425","456094.088188","459993.536096","460760.079","461526.747738","462293.445848","463059.639385","463843.816965","464610.345647","465376.666565","468453.10771","Mapping"
"Mixed","Both","tile","32","m160jaw.wav","space","459.022830357","128","459226.801504","466143.462064","466910.05289","467676.643098","468443.245055","469226.672887","469993.873405","456094.088188","459993.536096","460760.079","461526.747738","462293.445848","463059.639385","463843.816965","464610.345647","465376.666565","469235.774047","Mapping"
"Mixed","Both","tile","32","m150ball.wav","None","720.623740286","128","459226.801504","466143.462064","466910.05289","467676.643098","468443.245055","469226.672887","469993.873405","470760.178245","459993.536096","460760.079","461526.747738","462293.445848","463059.639385","463843.816965","464610.345647","465376.666565","470003.643617","Mapping"
"Mixed","Both","ball","8","m150depth.wav","None","723.539252591","128","473893.768069","466143.462064","466910.05289","467676.643098","468443.245055","469226.672887","469993.873405","470760.178245","459993.536096","460760.079","461526.747738","462293.445848","463059.639385","463843.816965","464610.345647","465376.666565","470769.698954","Mapping"
"Mixed","Both","ball","8","m160cad.wav","None","723.540180072","128","473893.768069","466143.462064","466910.05289","467676.643098","468443.245055","469226.672887","469993.873405","470760.178245","474660.101353","460760.079","461526.747738","462293.445848","463059.639385","463843.816965","464610.345647","465376.666565","473903.580948","Mapping"
"Mixed","Both","ball","8","m160greet.wav","None","726.523092366","128","473893.768069","466143.462064","466910.05289","467676.643098","468443.245055","469226.672887","469993.873405","470760.178245","474660.101353","475426.653224","461526.747738","462293.445848","463059.639385","463843.816965","464610.345647","465376.666565","474669.600729","Mapping"
"Mixed","Both","ball","8","m150reek.wav","None","729.497656925","128","473893.768069","466143.462064","466910.05289","467676.643098","468443.245055","469226.672887","469993.873405","470760.178245","474660.101353","475426.653224","476193.510558","462293.445848","463059.639385","463843.816965","464610.345647","465376.666565","475435.60598","Mapping"
"Mixed","Both","ball","8","m150ball.wav","None","730.854003923","128","473893.768069","466143.462064","466910.05289","467676.643098","468443.245055","469226.672887","469993.873405","470760.178245","474660.101353","475426.653224","476193.510558","476959.931648","463059.639385","463843.816965","464610.345647","465376.666565","476203.216462","Mapping"
"Mixed","Both","ball","8","m160done.wav","space","413.650595525","128","473893.768069","466143.462064","466910.05289","467676.643098","468443.245055","469226.672887","469993.873405","470760.178245","474660.101353","475426.653224","476193.510558","476959.931648","477726.143117","463843.816965","464610.345647","465376.666565","476969.05414","Mapping"
"Mixed","Both","ball","8","m160done.wav","None","735.773892258","128","473893.768069","466143.462064","466910.05289","467676.643098","468443.245055","469226.672887","469993.873405","470760.178245","474660.101353","475426.653224","476193.510558","476959.931648","477726.143117","478509.826328","464610.345647","465376.666565","477735.412159","Mapping"
"Mixed","Both","ball","8","m160park.wav","None","721.276097815","128","473893.768069","466143.462064","466910.05289","467676.643098","468443.245055","469226.672887","469993.873405","470760.178245","474660.101353","475426.653224","476193.510558","476959.931648","477726.143117","478509.826328","479276.790945","465376.666565","478519.123813","Mapping"
"Mixed","Both","ball","8","m150ball.wav","None","722.764771315","128","473893.768069","466143.462064","466910.05289","467676.643098","468443.245055","469226.672887","469993.873405","470760.178245","474660.101353","475426.653224","476193.510558","476959.931648","477726.143117","478509.826328","479276.790945","480043.267377","479286.548173","Mapping"
"Mixed","Both","ball","8","m150bluff.wav","space","329.78123147","128","473893.768069","480810.127185","466910.05289","467676.643098","468443.245055","469226.672887","469993.873405","470760.178245","474660.101353","475426.653224","476193.510558","476959.931648","477726.143117","478509.826328","479276.790945","480043.267377","480052.830134","Mapping"
"Mixed","Both","ball","8","m160ball.wav","None","726.451363997","128","473893.768069","480810.127185","481576.349166","467676.643098","468443.245055","469226.672887","469993.873405","470760.178245","474660.101353","475426.653224","476193.510558","476959.931648","477726.143117","478509.826328","479276.790945","480043.267377","480819.528862","Mapping"
"Mixed","Both","ball","8","m150jaw.wav","space","413.087589375","128","473893.768069","480810.127185","481576.349166","482342.915568","468443.245055","469226.672887","469993.873405","470760.178245","474660.101353","475426.653224","476193.510558","476959.931648","477726.143117","478509.826328","479276.790945","480043.267377","481585.524837","Mapping"
"Mixed","Both","ball","8","m150cave.wav","None","730.548539839","128","473893.768069","480810.127185","481576.349166","482342.915568","483109.617079","469226.672887","469993.873405","470760.178245","474660.101353","475426.653224","476193.510558","476959.931648","477726.143117","478509.826328","479276.790945","480043.267377","482352.200995","Mapping"
"Mixed","Both","ball","8","m160lash.wav","None","732.882186363","128","473893.768069","480810.127185","481576.349166","482342.915568","483109.617079","483876.265411","469993.873405","470760.178245","474660.101353","475426.653224","476193.510558","476959.931648","477726.143117","478509.826328","479276.790945","480043.267377","483118.989075","Mapping"
"Mixed","Both","ball","8","m160ball.wav","None","734.800302889","128","473893.768069","480810.127185","481576.349166","482342.915568","483109.617079","483876.265411","484659.849995","470760.178245","474660.101353","475426.653224","476193.510558","476959.931648","477726.143117","478509.826328","479276.790945","480043.267377","483885.956166","Mapping"
"Mixed","Both","ball","8","m150gnash.wav","space","385.364870366","128","473893.768069","480810.127185","481576.349166","482342.915568","483109.617079","483876.265411","484659.849995","485426.65446","474660.101353","475426.653224","476193.510558","476959.931648","477726.143117","478509.826328","479276.790945","480043.267377","484669.175924","Mapping"
"Mixed","Both","tile","31","m150knife.wav","None","721.120273985","128","488559.831228","480810.127185","481576.349166","482342.915568","483109.617079","483876.265411","484659.849995","485426.65446","474660.101353","475426.653224","476193.510558","476959.931648","477726.143117","478509.826328","479276.790945","480043.267377","485436.6615","Mapping"
"Mixed","Both","tile","31","m150greet.wav","None","724.950632663","128","488559.831228","480810.127185","481576.349166","482342.915568","483109.617079","483876.265411","484659.849995","485426.65446","489326.284472","475426.653224","476193.510558","476959.931648","477726.143117","478509.826328","479276.790945","480043.267377","488569.221465","Mapping"
"Mixed","Both","tile","31","m160ball.wav","None","728.643099545","128","488559.831228","480810.127185","481576.349166","482342.915568","483109.617079","483876.265411","484659.849995","485426.65446","489326.284472","490093.036996","476193.510558","476959.931648","477726.143117","478509.826328","479276.790945","480043.267377","489335.400781","Mapping"
"Mixed","Both","tile","31","m160knife.wav","None","730.730643438","128","488559.831228","480810.127185","481576.349166","482342.915568","483109.617079","483876.265411","484659.849995","485426.65446","489326.284472","490093.036996","490859.757675","476959.931648","477726.143117","478509.826328","479276.790945","480043.267377","490102.395389","Mapping"
"Mixed","Both","tile","31","m160tile.wav","None","733.415202645","128","488559.831228","480810.127185","481576.349166","482342.915568","483109.617079","483876.265411","484659.849995","485426.65446","489326.284472","490093.036996","490859.757675","491625.883504","477726.143117","478509.826328","479276.790945","480043.267377","490868.84214","Mapping"
"Mixed","Both","tile","31","m150romp.wav","space","371.233447222","128","488559.831228","480810.127185","481576.349166","482342.915568","483109.617079","483876.265411","484659.849995","485426.65446","489326.284472","490093.036996","490859.757675","491625.883504","492410.168058","478509.826328","479276.790945","480043.267377","491635.198921","Mapping"
"Mixed","Both","tile","31","m160romp.wav","None","719.10136682","128","488559.831228","480810.127185","481576.349166","482342.915568","483109.617079","483876.265411","484659.849995","485426.65446","489326.284472","490093.036996","490859.757675","491625.883504","492410.168058","493176.562558","479276.790945","480043.267377","492420.304332","Mapping"
"Mixed","Both","tile","31","m150tile.wav","None","721.666275524","128","488559.831228","480810.127185","481576.349166","482342.915568","483109.617079","483876.265411","484659.849995","485426.65446","489326.284472","490093.036996","490859.757675","491625.883504","492410.168058","493176.562558","493943.017348","480043.267377","493186.75974","Mapping"
"Mixed","Both","tile","31","m160depth.wav","space","414.119921857","128","488559.831228","480810.127185","481576.349166","482342.915568","483109.617079","483876.265411","484659.849995","485426.65446","489326.284472","490093.036996","490859.757675","491625.883504","492410.168058","493176.562558","493943.017348","494709.427617","493952.304321","Mapping"
"Mixed","Both","tile","31","m150depth.wav","None","727.177304914","128","488559.831228","495476.300101","481576.349166","482342.915568","483109.617079","483876.265411","484659.849995","485426.65446","489326.284472","490093.036996","490859.757675","491625.883504","492410.168058","493176.562558","493943.017348","494709.427617","494718.238771","Mapping"
"Mixed","Both","tile","31","m160tile.wav","None","728.680200409","128","488559.831228","495476.300101","496242.696456","482342.915568","483109.617079","483876.265411","484659.849995","485426.65446","489326.284472","490093.036996","490859.757675","491625.883504","492410.168058","493176.562558","493943.017348","494709.427617","495485.749081","Mapping"
"Mixed","Both","tile","31","m150jolt.wav","space","402.673057921","128","488559.831228","495476.300101","496242.696456","497009.70745","483109.617079","483876.265411","484659.849995","485426.65446","489326.284472","490093.036996","490859.757675","491625.883504","492410.168058","493176.562558","493943.017348","494709.427617","496251.67982","Mapping"
"Mixed","Both","tile","31","m150tile.wav","None","732.441613218","128","488559.831228","495476.300101","496242.696456","497009.70745","497776.228712","483876.265411","484659.849995","485426.65446","489326.284472","490093.036996","490859.757675","491625.883504","492410.168058","493176.562558","493943.017348","494709.427617","497019.082847","Mapping"
"Mixed","Both","tile","31","m150cling.wav","space","610.09057879","128","488559.831228","495476.300101","496242.696456","497009.70745","497776.228712","498559.822262","484659.849995","485426.65446","489326.284472","490093.036996","490859.757675","491625.883504","492410.168058","493176.562558","493943.017348","494709.427617","497780.264053","Mapping"
"Mixed","Both","tile","31","m160jaw.wav","None","719.9590159","128","488559.831228","495476.300101","496242.696456","497009.70745","497776.228712","498559.822262","499326.619926","485426.65446","489326.284472","490093.036996","490859.757675","491625.883504","492410.168058","493176.562558","493943.017348","494709.427617","498569.368014","Mapping"
"Mixed","Both","tile","31","m160ball.wav","None","722.363154113","128","488559.831228","495476.300101","496242.696456","497009.70745","497776.228712","498559.822262","499326.619926","500092.625485","489326.284472","490093.036996","490859.757675","491625.883504","492410.168058","493176.562558","493943.017348","494709.427617","499336.488456","Mapping"
"Mixed","Both","ball","12","m150knife.wav","None","726.293994288","128","503226.192431","495476.300101","496242.696456","497009.70745","497776.228712","498559.822262","499326.619926","500092.625485","489326.284472","490093.036996","490859.757675","491625.883504","492410.168058","493176.562558","493943.017348","494709.427617","500101.373259","Mapping"
"Mixed","Both","ball","12","m160ball.wav","None","725.429234153","128","503226.192431","495476.300101","496242.696456","497009.70745","497776.228712","498559.822262","499326.619926","500092.625485","503992.574255","490093.036996","490859.757675","491625.883504","492410.168058","493176.562558","493943.017348","494709.427617","503235.423753","Mapping"
"Mixed","Both","ball","12","m150tile.wav","space","348.790186108","128","503226.192431","495476.300101","496242.696456","497009.70745","497776.228712","498559.822262","499326.619926","500092.625485","503992.574255","504759.41273","490859.757675","491625.883504","492410.168058","493176.562558","493943.017348","494709.427617","504001.424056","Mapping"
"Mixed","Both","ball","12","m160depth.wav","None","729.195284599","128","503226.192431","495476.300101","496242.696456","497009.70745","497776.228712","498559.822262","499326.619926","500092.625485","503992.574255","504759.41273","505525.839385","491625.883504","492410.168058","493176.562558","493943.017348","494709.427617","504768.427939","Mapping"
"Mixed","Both","ball","12","m160gnash.wav","None","731.604678847","128","503226.192431","495476.300101","496242.696456","497009.70745","497776.228712","498559.822262","499326.619926","500092.625485","503992.574255","504759.41273","505525.839385","506292.775868","492410.168058","493176.562558","493943.017348","494709.427617","505535.167169","Mapping"
"Mixed","Both","ball","12","m160lash.wav","None","733.96769684","128","503226.192431","495476.300101","496242.696456","497009.70745","497776.228712","498559.822262","499326.619926","500092.625485","503992.574255","504759.41273","505525.839385","506292.775868","507059.612796","493176.562558","493943.017348","494709.427617","506302.126222","Mapping"
"Mixed","Both","ball","12","m160tile.wav","None","736.399351619","128","503226.192431","495476.300101","496242.696456","497009.70745","497776.228712","498559.822262","499326.619926","500092.625485","503992.574255","504759.41273","505525.839385","506292.775868","507059.612796","507842.933036","493943.017348","494709.427617","507068.672527","Mapping"
"Mixed","Both","ball","12","m150park.wav","None","722.070675401","128","503226.192431","495476.300101","496242.696456","497009.70745","497776.228712","498559.822262","499326.619926","500092.625485","503992.574255","504759.41273","505525.839385","506292.775868","507059.612796","507842.933036","508610.040493","494709.427617","507852.164358","Mapping"
"Mixed","Both","ball","12","m150dime.wav","None","723.657047958","128","503226.192431","495476.300101","496242.696456","497009.70745","497776.228712","498559.822262","499326.619926","500092.625485","503992.574255","504759.41273","505525.839385","506292.775868","507059.612796","507842.933036","508610.040493","509375.988546","508619.627056","Mapping"
"Mixed","Both","ball","12","m160ball.wav","None","728.049794328","128","503226.192431","510142.818364","496242.696456","497009.70745","497776.228712","498559.822262","499326.619926","500092.625485","503992.574255","504759.41273","505525.839385","506292.775868","507059.612796","507842.933036","508610.040493","509375.988546","509384.925843","Mapping"
"Mixed","Both","ball","12","m160park.wav","space","325.702915201","128","503226.192431","510142.818364","510909.168343","497009.70745","497776.228712","498559.822262","499326.619926","500092.625485","503992.574255","504759.41273","505525.839385","506292.775868","507059.612796","507842.933036","508610.040493","509375.988546","510152.500152","Mapping"
"Mixed","Both","ball","12","m150ball.wav","None","732.107086806","128","503226.192431","510142.818364","510909.168343","511675.983939","497776.228712","498559.822262","499326.619926","500092.625485","503992.574255","504759.41273","505525.839385","506292.775868","507059.612796","507842.933036","508610.040493","509375.988546","510918.060192","Mapping"
"Mixed","Both","ball","12","m160greet.wav","space","392.862343579","128","503226.192431","510142.818364","510909.168343","511675.983939","512442.38957","498559.822262","499326.619926","500092.625485","503992.574255","504759.41273","505525.839385","506292.775868","507059.612796","507842.933036","508610.040493","509375.988546","511685.275241","Mapping"
"Mixed","Both","ball","12","m150jolt.wav","None","735.96929037","128","503226.192431","510142.818364","510909.168343","511675.983939","512442.38957","513226.766258","499326.619926","500092.625485","503992.574255","504759.41273","505525.839385","506292.775868","507059.612796","507842.933036","508610.040493","509375.988546","512451.447754","Mapping"
"Mixed","Both","ball","12","m150ball.wav","None","725.564961671","128","503226.192431","510142.818364","510909.168343","511675.983939","512442.38957","513226.766258","513993.079137","500092.625485","503992.574255","504759.41273","505525.839385","506292.775868","507059.612796","507842.933036","508610.040493","509375.988546","513230.921868","Mapping"
"Mixed","Both","ball","12","m150dime.wav","space","434.749876556","128","503226.192431","510142.818364","510909.168343","511675.983939","512442.38957","513226.766258","513993.079137","514759.039247","503992.574255","504759.41273","505525.839385","506292.775868","507059.612796","507842.933036","508610.040493","509375.988546","514003.350829","Mapping"
"Mixed","Both","tile","33","m150priest.wav","None","726.428175927","128","517893.184658","510142.818364","510909.168343","511675.983939","512442.38957","513226.766258","513993.079137","514759.039247","503992.574255","504759.41273","505525.839385","506292.775868","507059.612796","507842.933036","508610.040493","509375.988546","514767.964796","Mapping"
"Mixed","Both","tile","33","m150tile.wav","None","723.613763577","128","517893.184658","510142.818364","510909.168343","511675.983939","512442.38957","513226.766258","513993.079137","514759.039247","518659.371702","504759.41273","505525.839385","506292.775868","507059.612796","507842.933036","508610.040493","509375.988546","517902.907876","Mapping"
"Mixed","Both","tile","33","m150park.wav","space","449.098339945","128","517893.184658","510142.818364","510909.168343","511675.983939","512442.38957","513226.766258","513993.079137","514759.039247","518659.371702","519425.865139","505525.839385","506292.775868","507059.612796","507842.933036","508610.040493","509375.988546","518668.951464","Mapping"
"Mixed","Both","tile","33","m160tile.wav","None","729.479724832","128","517893.184658","510142.818364","510909.168343","511675.983939","512442.38957","513226.766258","513993.079137","514759.039247","518659.371702","519425.865139","520192.625393","506292.775868","507059.612796","507842.933036","508610.040493","509375.988546","519434.937236","Mapping"
"Mixed","Both","tile","33","m160gnash.wav","space","452.095165034","128","517893.184658","510142.818364","510909.168343","511675.983939","512442.38957","513226.766258","513993.079137","514759.039247","518659.371702","519425.865139","520192.625393","520959.003198","507059.612796","507842.933036","508610.040493","509375.988546","520201.917931","Mapping"
"Mixed","Both","tile","33","m160tile.wav","None","733.882983157","128","517893.184658","510142.818364","510909.168343","511675.983939","512442.38957","513226.766258","513993.079137","514759.039247","518659.371702","519425.865139","520192.625393","520959.003198","521725.438509","507842.933036","508610.040493","509375.988546","520967.929674","Mapping"
"Mixed","Both","tile","33","m160knife.wav","space","415.195538779","128","517893.184658","510142.818364","510909.168343","511675.983939","512442.38957","513226.766258","513993.079137","514759.039247","518659.371702","519425.865139","520192.625393","520959.003198","521725.438509","522509.346798","508610.040493","509375.988546","521734.788245","Mapping"
"Mixed","Both","tile","33","m150dime.wav","None","720.115148812","128","517893.184658","510142.818364","510909.168343","511675.983939","512442.38957","513226.766258","513993.079137","514759.039247","518659.371702","519425.865139","520192.625393","520959.003198","521725.438509","522509.346798","523276.147863","509375.988546","522518.682003","Mapping"
"Mixed","Both","tile","33","m150cad.wav","None","721.978850663","128","517893.184658","510142.818364","510909.168343","511675.983939","512442.38957","513226.766258","513993.079137","514759.039247","518659.371702","519425.865139","520192.625393","520959.003198","521725.438509","522509.346798","523276.147863","524042.282658","523286.000934","Mapping"
"Mixed","Both","tile","33","m160cad.wav","None","726.074171544","128","517893.184658","524809.313439","510909.168343","511675.983939","512442.38957","513226.766258","513993.079137","514759.039247","518659.371702","519425.865139","520192.625393","520959.003198","521725.438509","522509.346798","523276.147863","524042.282658","524051.121328","Mapping"
"Mixed","Both","tile","33","m160cling.wav","None","727.490498335","128","517893.184658","524809.313439","525575.580559","511675.983939","512442.38957","513226.766258","513993.079137","514759.039247","518659.371702","519425.865139","520192.625393","520959.003198","521725.438509","522509.346798","523276.147863","524042.282658","524818.833838","Mapping"
"Mixed","Both","tile","33","m150bluff.wav","None","731.151429529","128","517893.184658","524809.313439","525575.580559","526342.487362","512442.38957","513226.766258","513993.079137","514759.039247","518659.371702","519425.865139","520192.625393","520959.003198","521725.438509","522509.346798","523276.147863","524042.282658","525584.855784","Mapping"
"Mixed","Both","tile","33","m160priest.wav","None","733.353676973","128","517893.184658","524809.313439","525575.580559","526342.487362","527109.164448","513226.766258","513993.079137","514759.039247","518659.371702","519425.865139","520192.625393","520959.003198","521725.438509","522509.346798","523276.147863","524042.282658","526351.851629","Mapping"
"Mixed","Both","tile","33","m150tile.wav","None","735.819959256","128","517893.184658","524809.313439","525575.580559","526342.487362","527109.164448","527892.586406","513993.079137","514759.039247","518659.371702","519425.865139","520192.625393","520959.003198","521725.438509","522509.346798","523276.147863","524042.282658","527118.540463","Mapping"
"Mixed","Both","tile","33","m150jolt.wav","space","432.161161327","128","517893.184658","524809.313439","525575.580559","526342.487362","527109.164448","527892.586406","528659.379432","514759.039247","518659.371702","519425.865139","520192.625393","520959.003198","521725.438509","522509.346798","523276.147863","524042.282658","527901.747854","Mapping"
"Mixed","Both","tile","33","m160bluff.wav","None","723.106408783","128","517893.184658","524809.313439","525575.580559","526342.487362","527109.164448","527892.586406","528659.379432","529425.852154","518659.371702","519425.865139","520192.625393","520959.003198","521725.438509","522509.346798","523276.147863","524042.282658","528668.965377","Mapping"
"Mixed","Both","cave","22","m160romp.wav","None","726.157339348","128","532559.178561","524809.313439","525575.580559","526342.487362","527109.164448","527892.586406","528659.379432","529425.852154","518659.371702","519425.865139","520192.625393","520959.003198","521725.438509","522509.346798","523276.147863","524042.282658","529435.250429","Mapping"
"Mixed","Both","cave","22","m160dime.wav","None","724.655989616","128","532559.178561","524809.313439","525575.580559","526342.487362","527109.164448","527892.586406","528659.379432","529425.852154","533325.680036","519425.865139","520192.625393","520959.003198","521725.438509","522509.346798","523276.147863","524042.282658","532568.765124","Mapping"
"Mixed","Both","cave","22","m150cave.wav","None","727.637974371","128","532559.178561","524809.313439","525575.580559","526342.487362","527109.164448","527892.586406","528659.379432","529425.852154","533325.680036","534092.458222","520192.625393","520959.003198","521725.438509","522509.346798","523276.147863","524042.282658","533334.867146","Mapping"
"Mixed","Both","cave","22","m160jolt.wav","space","367.84242501","128","532559.178561","524809.313439","525575.580559","526342.487362","527109.164448","527892.586406","528659.379432","529425.852154","533325.680036","534092.458222","534859.13067","520959.003198","521725.438509","522509.346798","523276.147863","524042.282658","534101.932555","Mapping"
"Mixed","Both","cave","22","m160romp.wav","None","731.19873309","128","532559.178561","524809.313439","525575.580559","526342.487362","527109.164448","527892.586406","528659.379432","529425.852154","533325.680036","534092.458222","534859.13067","535625.393463","521725.438509","522509.346798","523276.147863","524042.282658","534868.395383","Mapping"
"Mixed","Both","cave","22","m150jaw.wav","None","734.288001317","128","532559.178561","524809.313439","525575.580559","526342.487362","527109.164448","527892.586406","528659.379432","529425.852154","533325.680036","534092.458222","534859.13067","535625.393463","536409.62051","522509.346798","523276.147863","524042.282658","535634.786174","Mapping"
"Mixed","Both","cave","22","m150cad.wav","None","719.204940135","128","532559.178561","524809.313439","525575.580559","526342.487362","527109.164448","527892.586406","528659.379432","529425.852154","533325.680036","534092.458222","534859.13067","535625.393463","536409.62051","537175.802608","523276.147863","524042.282658","536419.406182","Mapping"
"Mixed","Both","cave","22","m150done.wav","space","315.856645815","128","532559.178561","524809.313439","525575.580559","526342.487362","527109.164448","527892.586406","528659.379432","529425.852154","533325.680036","534092.458222","534859.13067","535625.393463","536409.62051","537175.802608","537942.920577","524042.282658","537185.906729","Mapping"
"Mixed","Both","cave","22","m160cave.wav","None","723.354366433","128","532559.178561","524809.313439","525575.580559","526342.487362","527109.164448","527892.586406","528659.379432","529425.852154","533325.680036","534092.458222","534859.13067","535625.393463","536409.62051","537175.802608","537942.920577","538708.697347","537952.669147","Mapping"
"Mixed","Both","cave","22","m150tile.wav","space","447.673356277","128","532559.178561","539475.510779","525575.580559","526342.487362","527109.164448","527892.586406","528659.379432","529425.852154","533325.680036","534092.458222","534859.13067","535625.393463","536409.62051","537175.802608","537942.920577","538708.697347","538718.078928","Mapping"
"Mixed","Both","cave","22","m160romp.wav","None","728.565806057","128","532559.178561","539475.510779","540242.368113","526342.487362","527109.164448","527892.586406","528659.379432","529425.852154","533325.680036","534092.458222","534859.13067","535625.393463","536409.62051","537175.802608","537942.920577","538708.697347","539484.57391","Mapping"
"Mixed","Both","cave","22","m160cave.wav","None","730.866989295","128","532559.178561","539475.510779","540242.368113","541008.713455","527109.164448","527892.586406","528659.379432","529425.852154","533325.680036","534092.458222","534859.13067","535625.393463","536409.62051","537175.802608","537942.920577","538708.697347","540251.510084","Mapping"
"Mixed","Both","cave","22","m160jolt.wav","space","620.134410332","128","532559.178561","539475.510779","540242.368113","541008.713455","541775.459796","527892.586406","528659.379432","529425.852154","533325.680036","534092.458222","534859.13067","535625.393463","536409.62051","537175.802608","537942.920577","538708.697347","541017.553363","Mapping"
"Mixed","Both","cave","22","m150dime.wav","None","734.944378026","128","532559.178561","539475.510779","540242.368113","541008.713455","541775.459796","542558.878972","528659.379432","529425.852154","533325.680036","534092.458222","534859.13067","535625.393463","536409.62051","537175.802608","537942.920577","538708.697347","541784.643814","Mapping"
"Mixed","Both","cave","22","m150cave.wav","None","720.414120238","128","532559.178561","539475.510779","540242.368113","541008.713455","541775.459796","542558.878972","543325.765677","529425.852154","533325.680036","534092.458222","534859.13067","535625.393463","536409.62051","537175.802608","537942.920577","538708.697347","542568.45966","Mapping"
"Mixed","Both","cave","22","m150knife.wav","space","646.314968704","128","532559.178561","539475.510779","540242.368113","541008.713455","541775.459796","542558.878972","543325.765677","544091.972509","533325.680036","534092.458222","534859.13067","535625.393463","536409.62051","537175.802608","537942.920577","538708.697347","543335.351313","Mapping"
"Mixed","Both","cave","18","m160bluff.wav","None","725.536826823","128","547225.491842","539475.510779","540242.368113","541008.713455","541775.459796","542558.878972","543325.765677","544091.972509","533325.680036","534092.458222","534859.13067","535625.393463","536409.62051","537175.802608","537942.920577","538708.697347","544100.766041","Mapping"
"Mixed","Both","cave","18","m160bluff.wav","None","725.231671939","128","547225.491842","539475.510779","540242.368113","541008.713455","541775.459796","542558.878972","543325.765677","544091.972509","547991.964255","534092.458222","534859.13067","535625.393463","536409.62051","537175.802608","537942.920577","538708.697347","547234.858891","Mapping"
"Mixed","Both","cave","18","m160bluff.wav","None","728.479546437","128","547225.491842","539475.510779","540242.368113","541008.713455","541775.459796","542558.878972","543325.765677","544091.972509","547991.964255","548758.560028","534859.13067","535625.393463","536409.62051","537175.802608","537942.920577","538708.697347","548000.908354","Mapping"
"Mixed","Both","cave","18","m160jolt.wav","None","731.658475066","128","547225.491842","539475.510779","540242.368113","541008.713455","541775.459796","542558.878972","543325.765677","544091.972509","547991.964255","548758.560028","549525.408396","535625.393463","536409.62051","537175.802608","537942.920577","538708.697347","548767.386641","Mapping"
"Mixed","Both","cave","18","m150cave.wav","None","732.835501141","128","547225.491842","539475.510779","540242.368113","541008.713455","541775.459796","542558.878972","543325.765677","544091.972509","547991.964255","548758.560028","549525.408396","550292.246871","536409.62051","537175.802608","537942.920577","538708.697347","549535.411107","Mapping"
"Mixed","Both","cave","18","m150knife.wav","space","640.35965607","128","547225.491842","539475.510779","540242.368113","541008.713455","541775.459796","542558.878972","543325.765677","544091.972509","547991.964255","548758.560028","549525.408396","550292.246871","551075.840111","537175.802608","537942.920577","538708.697347","550301.213539","Mapping"
"Mixed","Both","cave","18","m160gnash.wav","None","720.047130482","128","547225.491842","539475.510779","540242.368113","541008.713455","541775.459796","542558.878972","543325.765677","544091.972509","547991.964255","548758.560028","549525.408396","550292.246871","551075.840111","551842.139695","537942.920577","538708.697347","551085.464393","Mapping"
"Mixed","Both","cave","18","m160cave.wav","None","723.687656166","128","547225.491842","539475.510779","540242.368113","541008.713455","541775.459796","542558.878972","543325.765677","544091.972509","547991.964255","548758.560028","549525.408396","550292.246871","551075.840111","551842.139695","552608.597268","538708.697347","551851.743263","Mapping"
"Mixed","Both","cave","18","m160greet.wav","space","387.723559979","128","547225.491842","539475.510779","540242.368113","541008.713455","541775.459796","542558.878972","543325.765677","544091.972509","547991.964255","548758.560028","549525.408396","550292.246871","551075.840111","551842.139695","552608.597268","553375.412863","552617.810348","Mapping"
"Mixed","Both","cave","18","m160cave.wav","None","727.468546946","128","547225.491842","554142.088713","540242.368113","541008.713455","541775.459796","542558.878972","543325.765677","544091.972509","547991.964255","548758.560028","549525.408396","550292.246871","551075.840111","551842.139695","552608.597268","553375.412863","553384.741575","Mapping"
"Mixed","Both","cave","18","m150depth.wav","space","366.121252533","128","547225.491842","554142.088713","554908.970781","541008.713455","541775.459796","542558.878972","543325.765677","544091.972509","547991.964255","548758.560028","549525.408396","550292.246871","551075.840111","551842.139695","552608.597268","553375.412863","554151.394236","Mapping"
"Mixed","Both","cave","18","m150lash.wav","None","731.089285517","128","547225.491842","554142.088713","554908.970781","555675.320142","541775.459796","542558.878972","543325.765677","544091.972509","547991.964255","548758.560028","549525.408396","550292.246871","551075.840111","551842.139695","552608.597268","553375.412863","554918.221272","Mapping"
"Mixed","Both","cave","18","m150done.wav","None","733.750656596","128","547225.491842","554142.088713","554908.970781","555675.320142","556459.182673","542558.878972","543325.765677","544091.972509","547991.964255","548758.560028","549525.408396","550292.246871","551075.840111","551842.139695","552608.597268","553375.412863","555684.848271","Mapping"
"Mixed","Both","cave","18","m150done.wav","None","719.196592399","128","547225.491842","554142.088713","554908.970781","555675.320142","556459.182673","557225.839972","543325.765677","544091.972509","547991.964255","548758.560028","549525.408396","550292.246871","551075.840111","551842.139695","552608.597268","553375.412863","556469.283702","Mapping"
"Mixed","Both","cave","18","m150cave.wav","None","721.822717693","128","547225.491842","554142.088713","554908.970781","555675.320142","556459.182673","557225.839972","557991.804721","544091.972509","547991.964255","548758.560028","549525.408396","550292.246871","551075.840111","551842.139695","552608.597268","553375.412863","557235.830935","Mapping"
"Mixed","Both","cave","18","m150dime.wav","space","412.468931871","128","547225.491842","554142.088713","554908.970781","555675.320142","556459.182673","557225.839972","557991.804721","558758.735329","547991.964255","548758.560028","549525.408396","550292.246871","551075.840111","551842.139695","552608.597268","553375.412863","558000.973589","Mapping"
"Mixed","Both","done","37","m160dime.wav","None","726.733639953","128","561891.977951","554142.088713","554908.970781","555675.320142","556459.182673","557225.839972","557991.804721","558758.735329","547991.964255","548758.560028","549525.408396","550292.246871","551075.840111","551842.139695","552608.597268","553375.412863","558768.323129","Mapping"
"Mixed","Both","done","37","m160done.wav","None","725.552903896","128","561891.977951","554142.088713","554908.970781","555675.320142","556459.182673","557225.839972","557991.804721","558758.735329","562658.739132","548758.560028","549525.408396","550292.246871","551075.840111","551842.139695","552608.597268","553375.412863","561901.408381","Mapping"
"Mixed","Both","done","37","m160ball.wav","space","400.791423977","128","561891.977951","554142.088713","554908.970781","555675.320142","556459.182673","557225.839972","557991.804721","558758.735329","562658.739132","563425.276162","549525.408396","550292.246871","551075.840111","551842.139695","552608.597268","553375.412863","562668.598078","Mapping"
"Mixed","Both","done","37","m150jaw.wav","None","730.327789555","128","561891.977951","554142.088713","554908.970781","555675.320142","556459.182673","557225.839972","557991.804721","558758.735329","562658.739132","563425.276162","564192.205843","550292.246871","551075.840111","551842.139695","552608.597268","553375.412863","563434.305902","Mapping"
"Mixed","Both","done","37","m150cad.wav","None","732.77428461","128","561891.977951","554142.088713","554908.970781","555675.320142","556459.182673","557225.839972","557991.804721","558758.735329","562658.739132","563425.276162","564192.205843","564958.636826","551075.840111","551842.139695","552608.597268","553375.412863","564201.277013","Mapping"
"Mixed","Both","done","37","m150dime.wav","None","735.824906034","128","561891.977951","554142.088713","554908.970781","555675.320142","556459.182673","557225.839972","557991.804721","558758.735329","562658.739132","563425.276162","564192.205843","564958.636826","565742.151228","551842.139695","552608.597268","553375.412863","564967.707996","Mapping"
"Mixed","Both","done","37","m150done.wav","space","405.056172283","128","561891.977951","554142.088713","554908.970781","555675.320142","556459.182673","557225.839972","557991.804721","558758.735329","562658.739132","563425.276162","564192.205843","564958.636826","565742.151228","566508.729687","552608.597268","553375.412863","565752.290285","Mapping"
"Mixed","Both","done","37","m160park.wav","space","599.073466903","128","561891.977951","554142.088713","554908.970781","555675.320142","556459.182673","557225.839972","557991.804721","558758.735329","562658.739132","563425.276162","564192.205843","564958.636826","565742.151228","566508.729687","567275.703889","553375.412863","566518.255652","Mapping"
"Mixed","Both","done","37","m150done.wav","None","723.064361082","128","561891.977951","554142.088713","554908.970781","555675.320142","556459.182673","557225.839972","557991.804721","558758.735329","562658.739132","563425.276162","564192.205843","564958.636826","565742.151228","566508.729687","567275.703889","568041.884441","567285.739373","Mapping"
"Mixed","Both","done","37","m160park.wav","space","530.097640294","128","561891.977951","568808.687979","554908.970781","555675.320142","556459.182673","557225.839972","557991.804721","558758.735329","562658.739132","563425.276162","564192.205843","564958.636826","565742.151228","566508.729687","567275.703889","568041.884441","568051.212535","Mapping"
"Mixed","Both","done","37","m150reek.wav","None","727.987031976","128","561891.977951","568808.687979","569574.973341","555675.320142","556459.182673","557225.839972","557991.804721","558758.735329","562658.739132","563425.276162","564192.205843","564958.636826","565742.151228","566508.729687","567275.703889","568041.884441","568818.204978","Mapping"
"Mixed","Both","done","37","m160romp.wav","None","736.854146817","128","561891.977951","568808.687979","569574.973341","570341.765749","556459.182673","557225.839972","557991.804721","558758.735329","562658.739132","563425.276162","564192.205843","564958.636826","565742.151228","566508.729687","567275.703889","568041.884441","569578.645712","Mapping"
"Mixed","Both","done","37","m150dime.wav","None","733.677691489","128","561891.977951","568808.687979","569574.973341","570341.765749","571125.240267","557225.839972","557991.804721","558758.735329","562658.739132","563425.276162","564192.205843","564958.636826","565742.151228","566508.729687","567275.703889","568041.884441","570351.170518","Mapping"
"Mixed","Both","done","37","m160jaw.wav","None","719.479177613","128","561891.977951","568808.687979","569574.973341","570341.765749","571125.240267","571892.275686","557991.804721","558758.735329","562658.739132","563425.276162","564192.205843","564958.636826","565742.151228","566508.729687","567275.703889","568041.884441","571135.299866","Mapping"
