"Condition","Talker","Target","Trial","current_stimulus","response_response","response_time_response","subject_nr","time_Audio1","time_Audio10","time_Audio11","time_Audio12","time_Audio13","time_Audio14","time_Audio15","time_Audio16","time_Audio2","time_Audio3","time_Audio4","time_Audio5","time_Audio6","time_Audio7","time_Audio8","time_Audio9","time_response","title"
"Mixed","Both","ball","11","m150lash.wav","NA","NA","184","246443.304283","NA","NA","NA","NA","NA","NA","NA","NA","NA","NA","NA","NA","NA","NA","NA","NA","Mapping"
"Mixed","Both","ball","11","m150reek.wav","None","724.339011125","184","246443.304283","NA","NA","NA","NA","NA","NA","NA","247210.081643","NA","NA","NA","NA","NA","NA","NA","246452.16364","Mapping"
"Mixed","Both","ball","11","m160ball.wav","None","723.281020299","184","246443.304283","NA","NA","NA","NA","NA","NA","NA","247210.081643","247975.516574","NA","NA","NA","NA","NA","NA","247219.80545","Mapping"
"Mixed","Both","ball","11","m160tile.wav","space","384.11276415","184","246443.304283","NA","NA","NA","NA","NA","NA","NA","247210.081643","247975.516574","248742.833752","NA","NA","NA","NA","NA","247984.427564","Mapping"
"Mixed","Both","ball","11","m160jolt.wav","None","723.633786663","184","246443.304283","NA","NA","NA","NA","NA","NA","NA","247210.081643","247975.516574","248742.833752","249508.954738","NA","NA","NA","NA","248752.635779","Mapping"
"Mixed","Both","ball","11","m160ball.wav","None","725.154300686","184","246443.304283","NA","NA","NA","NA","NA","NA","NA","247210.081643","247975.516574","248742.833752","249508.954738","250275.758688","NA","NA","NA","249517.840066","Mapping"
"Mixed","Both","ball","11","m150park.wav","space","315.707266331","184","246443.304283","NA","NA","NA","NA","NA","NA","NA","247210.081643","247975.516574","248742.833752","249508.954738","250275.758688","251043.346083","NA","NA","250284.786545","Mapping"
"Mixed","Both","ball","11","m150ball.wav","None","719.93762115","184","246443.304283","NA","NA","NA","NA","NA","NA","NA","247210.081643","247975.516574","248742.833752","249508.954738","250275.758688","251043.346083","251809.443262","NA","251052.78916","Mapping"
"Mixed","Both","ball","11","m160greet.wav","space","469.50300131","184","246443.304283","NA","NA","NA","NA","NA","NA","NA","247210.081643","247975.516574","248742.833752","249508.954738","250275.758688","251043.346083","251809.443262","252576.136529","251818.96858","Mapping"
"Mixed","Both","ball","11","m160reek.wav","None","720.316358376","184","246443.304283","253342.642126","NA","NA","NA","NA","NA","NA","247210.081643","247975.516574","248742.833752","249508.954738","250275.758688","251043.346083","251809.443262","252576.136529","252585.426256","Mapping"
"Mixed","Both","ball","11","m150ball.wav","None","720.221132971","184","246443.304283","253342.642126","254091.941926","NA","NA","NA","NA","NA","247210.081643","247975.516574","248742.833752","249508.954738","250275.758688","251043.346083","251809.443262","252576.136529","253352.115502","Mapping"
"Mixed","Both","ball","11","m150knife.wav","space","363.458139356","184","246443.304283","253342.642126","254091.941926","254858.562846","NA","NA","NA","NA","247210.081643","247975.516574","248742.833752","249508.954738","250275.758688","251043.346083","251809.443262","252576.136529","254100.992972","Mapping"
"Mixed","Both","ball","11","m150tile.wav","None","734.896966256","184","246443.304283","253342.642126","254091.941926","254858.562846","255625.461712","NA","NA","NA","247210.081643","247975.516574","248742.833752","249508.954738","250275.758688","251043.346083","251809.443262","252576.136529","254867.3749","Mapping"
"Mixed","Both","ball","11","m150cave.wav","None","734.856155701","184","246443.304283","253342.642126","254091.941926","254858.562846","255625.461712","256391.843949","NA","NA","247210.081643","247975.516574","248742.833752","249508.954738","250275.758688","251043.346083","251809.443262","252576.136529","255634.514303","Mapping"
"Mixed","Both","ball","11","m160priest.wav","None","735.591060482","184","246443.304283","253342.642126","254091.941926","254858.562846","255625.461712","256391.843949","257158.764457","NA","247210.081643","247975.516574","248742.833752","249508.954738","250275.758688","251043.346083","251809.443262","252576.136529","256400.513166","Mapping"
"Mixed","Both","ball","11","m160dime.wav","None","734.233790077","184","246443.304283","253342.642126","254091.941926","254858.562846","255625.461712","256391.843949","257158.764457","257925.470708","247210.081643","247975.516574","248742.833752","249508.954738","250275.758688","251043.346083","251809.443262","252576.136529","257168.455182","Mapping"
"Mixed","Both","cave","19","m150depth.wav","None","735.028983559","184","261091.981191","253342.642126","254091.941926","254858.562846","255625.461712","256391.843949","257158.764457","257925.470708","247210.081643","247975.516574","248742.833752","249508.954738","250275.758688","251043.346083","251809.443262","252576.136529","257934.340888","Mapping"
"Mixed","Both","cave","19","m150cling.wav","None","724.850073922","184","261091.981191","253342.642126","254091.941926","254858.562846","255625.461712","256391.843949","257158.764457","257925.470708","261858.641685","247975.516574","248742.833752","249508.954738","250275.758688","251043.346083","251809.443262","252576.136529","261100.760783","Mapping"
"Mixed","Both","cave","19","m160done.wav","None","724.687449168","184","261091.981191","253342.642126","254091.941926","254858.562846","255625.461712","256391.843949","257158.764457","257925.470708","261858.641685","262625.340825","248742.833752","249508.954738","250275.758688","251043.346083","251809.443262","252576.136529","261867.615127","Mapping"
"Mixed","Both","cave","19","m160cave.wav","None","724.802152254","184","261091.981191","253342.642126","254091.941926","254858.562846","255625.461712","256391.843949","257158.764457","257925.470708","261858.641685","262625.340825","263393.088371","249508.954738","250275.758688","251043.346083","251809.443262","252576.136529","262634.174212","Mapping"
"Mixed","Both","cave","19","m150done.wav","space","413.676523603","184","261091.981191","253342.642126","254091.941926","254858.562846","255625.461712","256391.843949","257158.764457","257925.470708","261858.641685","262625.340825","263393.088371","264159.157726","250275.758688","251043.346083","251809.443262","252576.136529","263402.572569","Mapping"
"Mixed","Both","cave","19","m150cave.wav","None","723.673361354","184","261091.981191","253342.642126","254091.941926","254858.562846","255625.461712","256391.843949","257158.764457","257925.470708","261858.641685","262625.340825","263393.088371","264159.157726","264925.189052","251043.346083","251809.443262","252576.136529","264168.737457","Mapping"
"Mixed","Both","cave","19","m160greet.wav","space","442.019977141","184","261091.981191","253342.642126","254091.941926","254858.562846","255625.461712","256391.843949","257158.764457","257925.470708","261858.641685","262625.340825","263393.088371","264159.157726","264925.189052","265674.90438","251809.443262","252576.136529","264934.223402","Mapping"
"Mixed","Both","cave","19","m150cave.wav","None","735.378967132","184","261091.981191","253342.642126","254091.941926","254858.562846","255625.461712","256391.843949","257158.764457","257925.470708","261858.641685","262625.340825","263393.088371","264159.157726","264925.189052","265674.90438","266441.738938","252576.136529","265683.713962","Mapping"
"Mixed","Both","cave","19","m150gnash.wav","space","541.527371388","184","261091.981191","253342.642126","254091.941926","254858.562846","255625.461712","256391.843949","257158.764457","257925.470708","261858.641685","262625.340825","263393.088371","264159.157726","264925.189052","265674.90438","266441.738938","267208.751889","266450.618702","Mapping"
"Mixed","Both","cave","19","m160gnash.wav","None","730.674897321","184","261091.981191","267975.234299","254091.941926","254858.562846","255625.461712","256391.843949","257158.764457","257925.470708","261858.641685","262625.340825","263393.088371","264159.157726","264925.189052","265674.90438","266441.738938","267208.751889","267218.211353","Mapping"
"Mixed","Both","cave","19","m160cave.wav","None","731.859649066","184","261091.981191","267975.234299","268741.706506","254858.562846","255625.461712","256391.843949","257158.764457","257925.470708","261858.641685","262625.340825","263393.088371","264159.157726","264925.189052","265674.90438","266441.738938","267208.751889","267984.550306","Mapping"
"Mixed","Both","cave","19","m150knife.wav","space","417.652800679","184","261091.981191","267975.234299","268741.706506","269508.74852","255625.461712","256391.843949","257158.764457","257925.470708","261858.641685","262625.340825","263393.088371","264159.157726","264925.189052","265674.90438","266441.738938","267208.751889","268750.54886","Mapping"
"Mixed","Both","cave","19","m160romp.wav","None","724.940971471","184","261091.981191","267975.234299","268741.706506","269508.74852","270275.226601","256391.843949","257158.764457","257925.470708","261858.641685","262625.340825","263393.088371","264159.157726","264925.189052","265674.90438","266441.738938","267208.751889","269517.811932","Mapping"
"Mixed","Both","cave","19","m160jolt.wav","None","726.789826993","184","261091.981191","267975.234299","268741.706506","269508.74852","270275.226601","271042.344671","257158.764457","257925.470708","261858.641685","262625.340825","263393.088371","264159.157726","264925.189052","265674.90438","266441.738938","267208.751889","270284.359886","Mapping"
"Mixed","Both","cave","19","m150lash.wav","None","720.20691121","184","261091.981191","267975.234299","268741.706506","269508.74852","270275.226601","271042.344671","271809.018459","257925.470708","261858.641685","262625.340825","263393.088371","264159.157726","264925.189052","265674.90438","266441.738938","267208.751889","271054.242274","Mapping"
"Mixed","Both","cave","19","m160bluff.wav","None","719.419137575","184","261091.981191","267975.234299","268741.706506","269508.74852","270275.226601","271042.344671","271809.018459","272575.02536","261858.641685","262625.340825","263393.088371","264159.157726","264925.189052","265674.90438","266441.738938","267208.751889","271818.366311","Mapping"
"Mixed","Both","cave","20","m160dime.wav","None","721.203994472","184","275692.280533","267975.234299","268741.706506","269508.74852","270275.226601","271042.344671","271809.018459","272575.02536","261858.641685","262625.340825","263393.088371","264159.157726","264925.189052","265674.90438","266441.738938","267208.751889","272583.931403","Mapping"
"Mixed","Both","cave","20","m150jolt.wav","None","720.341710374","184","275692.280533","267975.234299","268741.706506","269508.74852","270275.226601","271042.344671","271809.018459","272575.02536","276458.397191","262625.340825","263393.088371","264159.157726","264925.189052","265674.90438","266441.738938","267208.751889","275701.74958","Mapping"
"Mixed","Both","cave","20","m160cave.wav","None","721.590151545","184","275692.280533","267975.234299","268741.706506","269508.74852","270275.226601","271042.344671","271809.018459","272575.02536","276458.397191","277208.515063","263393.088371","264159.157726","264925.189052","265674.90438","266441.738938","267208.751889","276467.345591","Mapping"
"Mixed","Both","cave","20","m150dime.wav","space","510.340761393","184","275692.280533","267975.234299","268741.706506","269508.74852","270275.226601","271042.344671","271809.018459","272575.02536","276458.397191","277208.515063","277975.056216","264159.157726","264925.189052","265674.90438","266441.738938","267208.751889","277217.689159","Mapping"
"Mixed","Both","cave","20","m150reek.wav","None","734.953545034","184","275692.280533","267975.234299","268741.706506","269508.74852","270275.226601","271042.344671","271809.018459","272575.02536","276458.397191","277208.515063","277975.056216","278741.469061","264925.189052","265674.90438","266441.738938","267208.751889","277984.080054","Mapping"
"Mixed","Both","cave","20","m160cave.wav","None","732.086891308","184","275692.280533","267975.234299","268741.706506","269508.74852","270275.226601","271042.344671","271809.018459","272575.02536","276458.397191","277208.515063","277975.056216","278741.469061","279508.345667","265674.90438","266441.738938","267208.751889","278750.322854","Mapping"
"Mixed","Both","cave","20","m160tile.wav","space","386.699306779","184","275692.280533","267975.234299","268741.706506","269508.74852","270275.226601","271042.344671","271809.018459","272575.02536","276458.397191","277208.515063","277975.056216","278741.469061","279508.345667","280275.020073","266441.738938","267208.751889","279517.315709","Mapping"
"Mixed","Both","cave","20","m160knife.wav","None","727.399825584","184","275692.280533","267975.234299","268741.706506","269508.74852","270275.226601","271042.344671","271809.018459","272575.02536","276458.397191","277208.515063","277975.056216","278741.469061","279508.345667","280275.020073","281041.844119","267208.751889","280283.927353","Mapping"
"Mixed","Both","cave","20","m160dime.wav","None","727.221432608","184","275692.280533","267975.234299","268741.706506","269508.74852","270275.226601","271042.344671","271809.018459","272575.02536","276458.397191","277208.515063","277975.056216","278741.469061","279508.345667","280275.020073","281041.844119","281808.910866","281050.866412","Mapping"
"Mixed","Both","cave","20","m160tile.wav","None","722.928253468","184","275692.280533","282575.222612","268741.706506","269508.74852","270275.226601","271042.344671","271809.018459","272575.02536","276458.397191","277208.515063","277975.056216","278741.469061","279508.345667","280275.020073","281041.844119","281808.910866","281818.469265","Mapping"
"Mixed","Both","cave","20","m150cave.wav","None","720.291624777","184","275692.280533","282575.222612","283324.9197","269508.74852","270275.226601","271042.344671","271809.018459","272575.02536","276458.397191","277208.515063","277975.056216","278741.469061","279508.345667","280275.020073","281041.844119","281808.910866","282584.496881","Mapping"
"Mixed","Both","cave","20","m150bluff.wav","space","457.941469271","184","275692.280533","282575.222612","283324.9197","284091.381395","270275.226601","271042.344671","271809.018459","272575.02536","276458.397191","277208.515063","277975.056216","278741.469061","279508.345667","280275.020073","281041.844119","281808.910866","283333.954359","Mapping"
"Mixed","Both","cave","20","m150cave.wav","None","734.354058281","184","275692.280533","282575.222612","283324.9197","284091.381395","284858.365593","271042.344671","271809.018459","272575.02536","276458.397191","277208.515063","277975.056216","278741.469061","279508.345667","280275.020073","281041.844119","281808.910866","284100.254666","Mapping"
"Mixed","Both","cave","20","m150greet.wav","space","435.876705218","184","275692.280533","282575.222612","283324.9197","284091.381395","284858.365593","285624.917567","271809.018459","272575.02536","276458.397191","277208.515063","277975.056216","278741.469061","279508.345667","280275.020073","281041.844119","281808.910866","284868.042096","Mapping"
"Mixed","Both","cave","20","m160done.wav","None","731.181632262","184","275692.280533","282575.222612","283324.9197","284091.381395","284858.365593","285624.917567","286391.460883","272575.02536","276458.397191","277208.515063","277975.056216","278741.469061","279508.345667","280275.020073","281041.844119","281808.910866","285633.916362","Mapping"
"Mixed","Both","cave","20","m150tile.wav","None","728.139058687","184","275692.280533","282575.222612","283324.9197","284091.381395","284858.365593","285624.917567","286391.460883","287159.219251","276458.397191","277208.515063","277975.056216","278741.469061","279508.345667","280275.020073","281041.844119","281808.910866","286400.371565","Mapping"
"Mixed","Both","done","44","m160greet.wav","None","720.815055072","184","290275.288436","282575.222612","283324.9197","284091.381395","284858.365593","285624.917567","286391.460883","287159.219251","276458.397191","277208.515063","277975.056216","278741.469061","279508.345667","280275.020073","281041.844119","281808.910866","287170.960722","Mapping"
"Mixed","Both","done","44","m150done.wav","None","720.185269136","184","290275.288436","282575.222612","283324.9197","284091.381395","284858.365593","285624.917567","286391.460883","287159.219251","291024.800637","277208.515063","277975.056216","278741.469061","279508.345667","280275.020073","281041.844119","281808.910866","290284.658238","Mapping"
"Mixed","Both","done","44","m160cad.wav","space","517.96126226","184","290275.288436","282575.222612","283324.9197","284091.381395","284858.365593","285624.917567","286391.460883","287159.219251","291024.800637","291791.720836","277975.056216","278741.469061","279508.345667","280275.020073","281041.844119","281808.910866","291033.849828","Mapping"
"Mixed","Both","done","44","m150cling.wav","None","733.067588415","184","290275.288436","282575.222612","283324.9197","284091.381395","284858.365593","285624.917567","286391.460883","287159.219251","291024.800637","291791.720836","292557.930246","278741.469061","279508.345667","280275.020073","281041.844119","281808.910866","291801.401359","Mapping"
"Mixed","Both","done","44","m160priest.wav","None","731.314267498","184","290275.288436","282575.222612","283324.9197","284091.381395","284858.365593","285624.917567","286391.460883","287159.219251","291024.800637","291791.720836","292557.930246","293324.8152","279508.345667","280275.020073","281041.844119","281808.910866","292566.65295","Mapping"
"Mixed","Both","done","44","m150cling.wav","None","727.088797372","184","290275.288436","282575.222612","283324.9197","284091.381395","284858.365593","285624.917567","286391.460883","287159.219251","291024.800637","291791.720836","292557.930246","293324.8152","294092.016746","280275.020073","281041.844119","281808.910866","293334.248692","Mapping"
"Mixed","Both","done","44","m150cad.wav","None","723.576280754","184","290275.288436","282575.222612","283324.9197","284091.381395","284858.365593","285624.917567","286391.460883","287159.219251","291024.800637","291791.720836","292557.930246","293324.8152","294092.016746","294857.876172","281041.844119","281808.910866","294101.617192","Mapping"
"Mixed","Both","done","44","m160knife.wav","None","725.527781993","184","290275.288436","282575.222612","283324.9197","284091.381395","284858.365593","285624.917567","286391.460883","287159.219251","291024.800637","291791.720836","292557.930246","293324.8152","294092.016746","294857.876172","295625.098124","281808.910866","294866.587436","Mapping"
"Mixed","Both","done","44","m150park.wav","None","721.229656134","184","290275.288436","282575.222612","283324.9197","284091.381395","284858.365593","285624.917567","286391.460883","287159.219251","291024.800637","291791.720836","292557.930246","293324.8152","294092.016746","294857.876172","295625.098124","296374.626712","295634.384759","Mapping"
"Mixed","Both","done","44","m150done.wav","None","735.225308686","184","290275.288436","297141.594214","283324.9197","284091.381395","284858.365593","285624.917567","286391.460883","287159.219251","291024.800637","291791.720836","292557.930246","293324.8152","294092.016746","294857.876172","295625.098124","296374.626712","296383.973327","Mapping"
"Mixed","Both","done","44","m150jolt.wav","space","425.098000094","184","290275.288436","297141.594214","297907.832996","284091.381395","284858.365593","285624.917567","286391.460883","287159.219251","291024.800637","291791.720836","292557.930246","293324.8152","294092.016746","294857.876172","295625.098124","296374.626712","297150.601976","Mapping"
"Mixed","Both","done","44","m160cad.wav","None","728.982483037","184","290275.288436","297141.594214","297907.832996","298674.442785","284858.365593","285624.917567","286391.460883","287159.219251","291024.800637","291791.720836","292557.930246","293324.8152","294092.016746","294857.876172","295625.098124","296374.626712","297916.954533","Mapping"
"Mixed","Both","done","44","m160done.wav","None","726.224658079","184","290275.288436","297141.594214","297907.832996","298674.442785","299442.017504","285624.917567","286391.460883","287159.219251","291024.800637","291791.720836","292557.930246","293324.8152","294092.016746","294857.876172","295625.098124","296374.626712","298683.183111","Mapping"
"Mixed","Both","done","44","m150knife.wav","space","396.099409088","184","290275.288436","297141.594214","297907.832996","298674.442785","299442.017504","300190.971648","286391.460883","287159.219251","291024.800637","291791.720836","292557.930246","293324.8152","294092.016746","294857.876172","295625.098124","296374.626712","299451.546222","Mapping"
"Mixed","Both","done","44","m160done.wav","None","736.445615068","184","290275.288436","297141.594214","297907.832996","298674.442785","299442.017504","300190.971648","300957.736024","287159.219251","291024.800637","291791.720836","292557.930246","293324.8152","294092.016746","294857.876172","295625.098124","296374.626712","300199.78092","Mapping"
"Mixed","Both","done","44","m160reek.wav","space","449.311826844","184","290275.288436","297141.594214","297907.832996","298674.442785","299442.017504","300190.971648","300957.736024","301724.358489","291024.800637","291791.720836","292557.930246","293324.8152","294092.016746","294857.876172","295625.098124","296374.626712","300966.31929","Mapping"
"Mixed","Both","ball","9","m160greet.wav","None","729.982967488","184","304858.379506","297141.594214","297907.832996","298674.442785","299442.017504","300190.971648","300957.736024","301724.358489","291024.800637","291791.720836","292557.930246","293324.8152","294092.016746","294857.876172","295625.098124","296374.626712","301732.998643","Mapping"
"Mixed","Both","ball","9","m160greet.wav","None","719.632467255","184","304858.379506","297141.594214","297907.832996","298674.442785","299442.017504","300190.971648","300957.736024","301724.358489","305607.937156","291791.720836","292557.930246","293324.8152","294092.016746","294857.876172","295625.098124","296374.626712","304868.004686","Mapping"
"Mixed","Both","ball","9","m160ball.wav","None","733.950278256","184","304858.379506","297141.594214","297907.832996","298674.442785","299442.017504","300190.971648","300957.736024","301724.358489","305607.937156","306374.45914","292557.930246","293324.8152","294092.016746","294857.876172","295625.098124","296374.626712","305617.231212","Mapping"
"Mixed","Both","ball","9","m150tile.wav","space","336.313041858","184","304858.379506","297141.594214","297907.832996","298674.442785","299442.017504","300190.971648","300957.736024","301724.358489","305607.937156","306374.45914","307140.97896","293324.8152","294092.016746","294857.876172","295625.098124","296374.626712","306383.222964","Mapping"
"Mixed","Both","ball","9","m150romp.wav","None","728.173376992","184","304858.379506","297141.594214","297907.832996","298674.442785","299442.017504","300190.971648","300957.736024","301724.358489","305607.937156","306374.45914","307140.97896","307907.666661","294092.016746","294857.876172","295625.098124","296374.626712","307149.833989","Mapping"
"Mixed","Both","ball","9","m150ball.wav","None","728.737927508","184","304858.379506","297141.594214","297907.832996","298674.442785","299442.017504","300190.971648","300957.736024","301724.358489","305607.937156","306374.45914","307140.97896","307907.666661","308674.304585","294857.876172","295625.098124","296374.626712","307916.313617","Mapping"
"Mixed","Both","ball","9","m160depth.wav","space","388.535795733","184","304858.379506","297141.594214","297907.832996","298674.442785","299442.017504","300190.971648","300957.736024","301724.358489","305607.937156","306374.45914","307140.97896","307907.666661","308674.304585","309441.033096","295625.098124","296374.626712","308682.92928","Mapping"
"Mixed","Both","ball","9","m160depth.wav","None","725.392363966","184","304858.379506","297141.594214","297907.832996","298674.442785","299442.017504","300190.971648","300957.736024","301724.358489","305607.937156","306374.45914","307140.97896","307907.666661","308674.304585","309441.033096","310208.146528","296374.626712","309449.75549","Mapping"
"Mixed","Both","ball","9","m150gnash.wav","None","720.907497685","184","304858.379506","297141.594214","297907.832996","298674.442785","299442.017504","300190.971648","300957.736024","301724.358489","305607.937156","306374.45914","307140.97896","307907.666661","308674.304585","309441.033096","310208.146528","310957.766632","310218.452817","Mapping"
"Mixed","Both","ball","9","m150ball.wav","None","736.781377345","184","304858.379506","311724.396826","297907.832996","298674.442785","299442.017504","300190.971648","300957.736024","301724.358489","305607.937156","306374.45914","307140.97896","307907.666661","308674.304585","309441.033096","310208.146528","310957.766632","310966.407713","Mapping"
"Mixed","Both","ball","9","m160depth.wav","space","330.198832322","184","304858.379506","311724.396826","312491.303731","298674.442785","299442.017504","300190.971648","300957.736024","301724.358489","305607.937156","306374.45914","307140.97896","307907.666661","308674.304585","309441.033096","310208.146528","310957.766632","311733.184456","Mapping"
"Mixed","Both","ball","9","m150greet.wav","None","729.005361907","184","304858.379506","311724.396826","312491.303731","313257.930215","299442.017504","300190.971648","300957.736024","301724.358489","305607.937156","306374.45914","307140.97896","307907.666661","308674.304585","309441.033096","310208.146528","310957.766632","312500.368071","Mapping"
"Mixed","Both","ball","9","m150gnash.wav","None","725.842520129","184","304858.379506","311724.396826","312491.303731","313257.930215","314024.999436","300190.971648","300957.736024","301724.358489","305607.937156","306374.45914","307140.97896","307907.666661","308674.304585","309441.033096","310208.146528","310957.766632","313267.326917","Mapping"
"Mixed","Both","ball","9","m160ball.wav","None","722.129968461","184","304858.379506","311724.396826","312491.303731","313257.930215","314024.999436","314791.018086","300957.736024","301724.358489","305607.937156","306374.45914","307140.97896","307907.666661","308674.304585","309441.033096","310208.146528","310957.766632","314034.653369","Mapping"
"Mixed","Both","ball","9","m150jaw.wav","space","359.410753008","184","304858.379506","311724.396826","312491.303731","313257.930215","314024.999436","314791.018086","315557.925918","301724.358489","305607.937156","306374.45914","307140.97896","307907.666661","308674.304585","309441.033096","310208.146528","310957.766632","314799.939279","Mapping"
"Mixed","Both","ball","9","m160lash.wav","None","719.603095669","184","304858.379506","311724.396826","312491.303731","313257.930215","314024.999436","314791.018086","315557.925918","316324.746872","305607.937156","306374.45914","307140.97896","307907.666661","308674.304585","309441.033096","310208.146528","310957.766632","315567.231413","Mapping"
"Mixed","Both","tile","31","m160depth.wav","None","719.54558976","184","319441.61496","311724.396826","312491.303731","313257.930215","314024.999436","314791.018086","315557.925918","316324.746872","305607.937156","306374.45914","307140.97896","307907.666661","308674.304585","309441.033096","310208.146528","310957.766632","316334.197988","Mapping"
"Mixed","Both","tile","31","m160romp.wav","None","720.552566927","184","319441.61496","311724.396826","312491.303731","313257.930215","314024.999436","314791.018086","315557.925918","316324.746872","320190.655055","306374.45914","307140.97896","307907.666661","308674.304585","309441.033096","310208.146528","310957.766632","319450.957247","Mapping"
"Mixed","Both","tile","31","m150tile.wav","None","735.715657007","184","319441.61496","311724.396826","312491.303731","313257.930215","314024.999436","314791.018086","315557.925918","316324.746872","320190.655055","320957.805897","307140.97896","307907.666661","308674.304585","309441.033096","310208.146528","310957.766632","320199.558315","Mapping"
"Mixed","Both","tile","31","m160jolt.wav","space","536.360468715","184","319441.61496","311724.396826","312491.303731","313257.930215","314024.999436","314791.018086","315557.925918","316324.746872","320190.655055","320957.805897","321724.33932","307907.666661","308674.304585","309441.033096","310208.146528","310957.766632","320966.851686","Mapping"
"Mixed","Both","tile","31","m150tile.wav","None","728.458744008","184","319441.61496","311724.396826","312491.303731","313257.930215","314024.999436","314791.018086","315557.925918","316324.746872","320190.655055","320957.805897","321724.33932","322490.812764","308674.304585","309441.033096","310208.146528","310957.766632","321733.77003","Mapping"
"Mixed","Both","tile","31","m150jaw.wav","space","419.494545087","184","319441.61496","311724.396826","312491.303731","313257.930215","314024.999436","314791.018086","315557.925918","316324.746872","320190.655055","320957.805897","321724.33932","322490.812764","323258.108608","309441.033096","310208.146528","310957.766632","322499.715406","Mapping"
"Mixed","Both","tile","31","m150knife.wav","None","720.8533925","184","319441.61496","311724.396826","312491.303731","313257.930215","314024.999436","314791.018086","315557.925918","316324.746872","320190.655055","320957.805897","321724.33932","322490.812764","323258.108608","324007.648327","310208.146528","310957.766632","323268.034304","Mapping"
"Mixed","Both","tile","31","m150cave.wav","None","735.668662935","184","319441.61496","311724.396826","312491.303731","313257.930215","314024.999436","314791.018086","315557.925918","316324.746872","320190.655055","320957.805897","321724.33932","322490.812764","323258.108608","324007.648327","324773.900711","310957.766632","324017.066979","Mapping"
"Mixed","Both","tile","31","m150ball.wav","None","733.783943113","184","319441.61496","311724.396826","312491.303731","313257.930215","314024.999436","314791.018086","315557.925918","316324.746872","320190.655055","320957.805897","321724.33932","322490.812764","323258.108608","324007.648327","324773.900711","325541.014762","324782.81232","Mapping"
"Mixed","Both","tile","31","m160depth.wav","None","729.965344537","184","319441.61496","326307.680203","312491.303731","313257.930215","314024.999436","314791.018086","315557.925918","316324.746872","320190.655055","320957.805897","321724.33932","322490.812764","323258.108608","324007.648327","324773.900711","325541.014762","325550.135063","Mapping"
"Mixed","Both","tile","31","m150cling.wav","None","726.60865169","184","319441.61496","326307.680203","327074.050691","313257.930215","314024.999436","314791.018086","315557.925918","316324.746872","320190.655055","320957.805897","321724.33932","322490.812764","323258.108608","324007.648327","324773.900711","325541.014762","326317.39968","Mapping"
"Mixed","Both","tile","31","m160jaw.wav","None","724.810808897","184","319441.61496","326307.680203","327074.050691","327841.551518","314024.999436","314791.018086","315557.925918","316324.746872","320190.655055","320957.805897","321724.33932","322490.812764","323258.108608","324007.648327","324773.900711","325541.014762","327082.809878","Mapping"
"Mixed","Both","tile","31","m160tile.wav","None","723.573807161","184","319441.61496","326307.680203","327074.050691","327841.551518","328607.944267","314791.018086","315557.925918","316324.746872","320190.655055","320957.805897","321724.33932","322490.812764","323258.108608","324007.648327","324773.900711","325541.014762","327851.2206","Mapping"
"Mixed","Both","tile","31","m150cling.wav","space","445.57948783","184","319441.61496","326307.680203","327074.050691","327841.551518","328607.944267","329357.572409","315557.925918","316324.746872","320190.655055","320957.805897","321724.33932","322490.812764","323258.108608","324007.648327","324773.900711","325541.014762","328617.469894","Mapping"
"Mixed","Both","tile","31","m160tile.wav","None","734.423622489","184","319441.61496","326307.680203","327074.050691","327841.551518","328607.944267","329357.572409","330124.123765","316324.746872","320190.655055","320957.805897","321724.33932","322490.812764","323258.108608","324007.648327","324773.900711","325541.014762","329367.161416","Mapping"
"Mixed","Both","tile","31","m160dime.wav","space","513.980039395","184","319441.61496","326307.680203","327074.050691","327841.551518","328607.944267","329357.572409","330124.123765","330890.995733","320190.655055","320957.805897","321724.33932","322490.812764","323258.108608","324007.648327","324773.900711","325541.014762","330133.077111","Mapping"
"Mixed","Both","tile","27","m150romp.wav","None","728.322398383","184","334024.550207","326307.680203","327074.050691","327841.551518","328607.944267","329357.572409","330124.123765","330890.995733","320190.655055","320957.805897","321724.33932","322490.812764","323258.108608","324007.648327","324773.900711","325541.014762","330900.112941","Mapping"
"Mixed","Both","tile","27","m160knife.wav","None","720.076749101","184","334024.550207","326307.680203","327074.050691","327841.551518","328607.944267","329357.572409","330124.123765","330890.995733","334773.652755","320957.805897","321724.33932","322490.812764","323258.108608","324007.648327","324773.900711","325541.014762","334034.027603","Mapping"
"Mixed","Both","tile","27","m160ball.wav","None","735.469864681","184","334024.550207","326307.680203","327074.050691","327841.551518","328607.944267","329357.572409","330124.123765","330890.995733","334773.652755","335540.4734","321724.33932","322490.812764","323258.108608","324007.648327","324773.900711","325541.014762","334782.458317","Mapping"
"Mixed","Both","tile","27","m150knife.wav","None","732.639383525","184","334024.550207","326307.680203","327074.050691","327841.551518","328607.944267","329357.572409","330124.123765","330890.995733","334773.652755","335540.4734","336307.532108","322490.812764","323258.108608","324007.648327","324773.900711","325541.014762","335549.121902","Mapping"
"Mixed","Both","tile","27","m160knife.wav","None","728.4253533","184","334024.550207","326307.680203","327074.050691","327841.551518","328607.944267","329357.572409","330124.123765","330890.995733","334773.652755","335540.4734","336307.532108","337073.987311","323258.108608","324007.648327","324773.900711","325541.014762","336317.10071","Mapping"
"Mixed","Both","tile","27","m160cave.wav","None","726.454064716","184","334024.550207","326307.680203","327074.050691","327841.551518","328607.944267","329357.572409","330124.123765","330890.995733","334773.652755","335540.4734","336307.532108","337073.987311","337840.613486","324007.648327","324773.900711","325541.014762","337082.92489","Mapping"
"Mixed","Both","tile","27","m150park.wav","None","723.652646411","184","334024.550207","326307.680203","327074.050691","327841.551518","328607.944267","329357.572409","330124.123765","330890.995733","334773.652755","335540.4734","336307.532108","337073.987311","337840.613486","338607.734957","324773.900711","325541.014762","337849.591567","Mapping"
"Mixed","Both","tile","27","m150tile.wav","None","719.508488663","184","334024.550207","326307.680203","327074.050691","327841.551518","328607.944267","329357.572409","330124.123765","330890.995733","334773.652755","335540.4734","336307.532108","337073.987311","337840.613486","338607.734957","339357.444102","325541.014762","338617.280371","Mapping"
"Mixed","Both","tile","27","m160priest.wav","space","472.040385008","184","334024.550207","326307.680203","327074.050691","327841.551518","328607.944267","329357.572409","330124.123765","330890.995733","334773.652755","335540.4734","336307.532108","337073.987311","337840.613486","338607.734957","339357.444102","340124.043689","339366.891817","Mapping"
"Mixed","Both","tile","27","m150tile.wav","None","730.313473847","184","334024.550207","340890.39099","327074.050691","327841.551518","328607.944267","329357.572409","330124.123765","330890.995733","334773.652755","335540.4734","336307.532108","337073.987311","337840.613486","338607.734957","339357.444102","340124.043689","340133.495423","Mapping"
"Mixed","Both","tile","27","m150priest.wav","space","507.744943257","184","334024.550207","340890.39099","341656.983774","327841.551518","328607.944267","329357.572409","330124.123765","330890.995733","334773.652755","335540.4734","336307.532108","337073.987311","337840.613486","338607.734957","339357.444102","340124.043689","340899.162233","Mapping"
"Mixed","Both","tile","27","m160tile.wav","None","729.841675144","184","334024.550207","340890.39099","341656.983774","342423.704866","328607.944267","329357.572409","330124.123765","330890.995733","334773.652755","335540.4734","336307.532108","337073.987311","337840.613486","338607.734957","339357.444102","340124.043689","341665.700913","Mapping"
"Mixed","Both","tile","27","m160ball.wav","space","438.510861248","184","334024.550207","340890.39099","341656.983774","342423.704866","343190.135025","329357.572409","330124.123765","330890.995733","334773.652755","335540.4734","336307.532108","337073.987311","337840.613486","338607.734957","339357.444102","340124.043689","342432.348421","Mapping"
"Mixed","Both","tile","27","m150knife.wav","None","732.748521958","184","334024.550207","340890.39099","341656.983774","342423.704866","343190.135025","343957.145194","330124.123765","330890.995733","334773.652755","335540.4734","336307.532108","337073.987311","337840.613486","338607.734957","339357.444102","340124.043689","343193.374542","Mapping"
"Mixed","Both","tile","27","m160tile.wav","None","723.889472894","184","334024.550207","340890.39099","341656.983774","342423.704866","343190.135025","343957.145194","344724.278722","330890.995733","334773.652755","335540.4734","336307.532108","337073.987311","337840.613486","338607.734957","339357.444102","340124.043689","343966.088029","Mapping"
"Mixed","Both","tile","27","m150park.wav","space","440.712173935","184","334024.550207","340890.39099","341656.983774","342423.704866","343190.135025","343957.145194","344724.278722","345473.906555","334773.652755","335540.4734","336307.532108","337073.987311","337840.613486","338607.734957","339357.444102","340124.043689","344734.113831","Mapping"
"Mixed","Both","tile","35","m150romp.wav","None","733.880404849","184","348607.670649","340890.39099","341656.983774","342423.704866","343190.135025","343957.145194","344724.278722","345473.906555","334773.652755","335540.4734","336307.532108","337073.987311","337840.613486","338607.734957","339357.444102","340124.043689","345482.912461","Mapping"
"Mixed","Both","tile","35","m150tile.wav","None","719.436760992","184","348607.670649","340890.39099","341656.983774","342423.704866","343190.135025","343957.145194","344724.278722","345473.906555","349357.198","335540.4734","336307.532108","337073.987311","337840.613486","338607.734957","339357.444102","340124.043689","348617.421044","Mapping"
"Mixed","Both","tile","35","m150dime.wav","space","392.10643759","184","348607.670649","340890.39099","341656.983774","342423.704866","343190.135025","343957.145194","344724.278722","345473.906555","349357.198","350123.772235","336307.532108","337073.987311","337840.613486","338607.734957","339357.444102","340124.043689","349366.63644","Mapping"
"Mixed","Both","tile","35","m160bluff.wav","None","731.20172834","184","348607.670649","340890.39099","341656.983774","342423.704866","343190.135025","343957.145194","344724.278722","345473.906555","349357.198","350123.772235","350890.197138","337073.987311","337840.613486","338607.734957","339357.444102","340124.043689","350132.755571","Mapping"
"Mixed","Both","tile","35","m150cad.wav","None","728.733907919","184","348607.670649","340890.39099","341656.983774","342423.704866","343190.135025","343957.145194","344724.278722","345473.906555","349357.198","350123.772235","350890.197138","351657.208234","337840.613486","338607.734957","339357.444102","340124.043689","350899.228087","Mapping"
"Mixed","Both","tile","35","m150tile.wav","None","725.288790651","184","348607.670649","340890.39099","341656.983774","342423.704866","343190.135025","343957.145194","344724.278722","345473.906555","349357.198","350123.772235","350890.197138","351657.208234","352423.700228","338607.734957","339357.444102","340124.043689","351666.606481","Mapping"
"Mixed","Both","tile","35","m160jaw.wav","space","446.177119855","184","348607.670649","340890.39099","341656.983774","342423.704866","343190.135025","343957.145194","344724.278722","345473.906555","349357.198","350123.772235","350890.197138","351657.208234","352423.700228","353173.972069","339357.444102","340124.043689","352432.479201","Mapping"
"Mixed","Both","tile","35","m150depth.wav","None","735.8393264","184","348607.670649","340890.39099","341656.983774","342423.704866","343190.135025","343957.145194","344724.278722","345473.906555","349357.198","350123.772235","350890.197138","351657.208234","352423.700228","353173.972069","353940.493125","340124.043689","353183.101953","Mapping"
"Mixed","Both","tile","35","m160romp.wav","None","733.0363621","184","348607.670649","340890.39099","341656.983774","342423.704866","343190.135025","343957.145194","344724.278722","345473.906555","349357.198","350123.772235","350890.197138","351657.208234","352423.700228","353173.972069","353940.493125","354707.1193","353949.94455","Mapping"
"Mixed","Both","tile","35","m160ball.wav","None","730.387057178","184","348607.670649","355473.490408","341656.983774","342423.704866","343190.135025","343957.145194","344724.278722","345473.906555","349357.198","350123.772235","350890.197138","351657.208234","352423.700228","353173.972069","353940.493125","354707.1193","354716.520021","Mapping"
"Mixed","Both","tile","35","m160tile.wav","None","728.498626966","184","348607.670649","355473.490408","356240.108854","342423.704866","343190.135025","343957.145194","344724.278722","345473.906555","349357.198","350123.772235","350890.197138","351657.208234","352423.700228","353173.972069","353940.493125","354707.1193","355482.403562","Mapping"
"Mixed","Both","tile","35","m150cling.wav","space","493.569660932","184","348607.670649","355473.490408","356240.108854","357007.323695","343190.135025","343957.145194","344724.278722","345473.906555","349357.198","350123.772235","350890.197138","351657.208234","352423.700228","353173.972069","353940.493125","354707.1193","356249.012733","Mapping"
"Mixed","Both","tile","35","m160greet.wav","None","721.069504041","184","348607.670649","355473.490408","356240.108854","357007.323695","357757.005014","343957.145194","344724.278722","345473.906555","349357.198","350123.772235","350890.197138","351657.208234","352423.700228","353173.972069","353940.493125","354707.1193","357017.043482","Mapping"
"Mixed","Both","tile","35","m160bluff.wav","None","735.508202109","184","348607.670649","355473.490408","356240.108854","357007.323695","357757.005014","358523.614804","344724.278722","345473.906555","349357.198","350123.772235","350890.197138","351657.208234","352423.700228","353173.972069","353940.493125","354707.1193","357766.468497","Mapping"
"Mixed","Both","tile","35","m160tile.wav","None","733.466731384","184","348607.670649","355473.490408","356240.108854","357007.323695","357757.005014","358523.614804","359290.468839","345473.906555","349357.198","350123.772235","350890.197138","351657.208234","352423.700228","353173.972069","353940.493125","354707.1193","358532.581445","Mapping"
"Mixed","Both","tile","35","m150cling.wav","space","474.40803377","184","348607.670649","355473.490408","356240.108854","357007.323695","357757.005014","358523.614804","359290.468839","360056.65939","349357.198","350123.772235","350890.197138","351657.208234","352423.700228","353173.972069","353940.493125","354707.1193","359300.134521","Mapping"
"Mixed","Both","ball","10","m160jaw.wav","None","727.884300053","184","363174.054927","355473.490408","356240.108854","357007.323695","357757.005014","358523.614804","359290.468839","360056.65939","349357.198","350123.772235","350890.197138","351657.208234","352423.700228","353173.972069","353940.493125","354707.1193","360065.327988","Mapping"
"Mixed","Both","ball","10","m160priest.wav","None","719.994509127","184","363174.054927","355473.490408","356240.108854","357007.323695","357757.005014","358523.614804","359290.468839","360056.65939","363923.479942","350123.772235","350890.197138","351657.208234","352423.700228","353173.972069","353940.493125","354707.1193","363183.404325","Mapping"
"Mixed","Both","ball","10","m150jaw.wav","None","734.808233567","184","363174.054927","355473.490408","356240.108854","357007.323695","357757.005014","358523.614804","359290.468839","360056.65939","363923.479942","364690.075818","350890.197138","351657.208234","352423.700228","353173.972069","353940.493125","354707.1193","363932.529751","Mapping"
"Mixed","Both","ball","10","m150park.wav","None","733.373669907","184","363174.054927","355473.490408","356240.108854","357007.323695","357757.005014","358523.614804","359290.468839","360056.65939","363923.479942","364690.075818","365457.020133","351657.208234","352423.700228","353173.972069","353940.493125","354707.1193","364698.984644","Mapping"
"Mixed","Both","ball","10","m160cad.wav","None","730.248547625","184","363174.054927","355473.490408","356240.108854","357007.323695","357757.005014","358523.614804","359290.468839","360056.65939","363923.479942","364690.075818","365457.020133","366223.166781","352423.700228","353173.972069","353940.493125","354707.1193","365466.061594","Mapping"
"Mixed","Both","ball","10","m160cad.wav","None","728.209550027","184","363174.054927","355473.490408","356240.108854","357007.323695","357757.005014","358523.614804","359290.468839","360056.65939","363923.479942","364690.075818","365457.020133","366223.166781","366989.896529","353173.972069","353940.493125","354707.1193","366232.005424","Mapping"
"Mixed","Both","ball","10","m160dime.wav","None","725.924450904","184","363174.054927","355473.490408","356240.108854","357007.323695","357757.005014","358523.614804","359290.468839","360056.65939","363923.479942","364690.075818","365457.020133","366223.166781","366989.896529","367757.221745","353940.493125","354707.1193","366998.616141","Mapping"
"Mixed","Both","ball","10","m150ball.wav","None","721.836871933","184","363174.054927","355473.490408","356240.108854","357007.323695","357757.005014","358523.614804","359290.468839","360056.65939","363923.479942","364690.075818","365457.020133","366223.166781","366989.896529","367757.221745","368506.884824","354707.1193","367766.721401","Mapping"
"Mixed","Both","ball","10","m150depth.wav","space","362.681187224","184","363174.054927","355473.490408","356240.108854","357007.323695","357757.005014","358523.614804","359290.468839","360056.65939","363923.479942","364690.075818","365457.020133","366223.166781","366989.896529","367757.221745","368506.884824","369273.098871","368515.704916","Mapping"
"Mixed","Both","ball","10","m150cling.wav","None","733.681606594","184","363174.054927","370039.797393","356240.108854","357007.323695","357757.005014","358523.614804","359290.468839","360056.65939","363923.479942","364690.075818","365457.020133","366223.166781","366989.896529","367757.221745","368506.884824","369273.098871","369281.927312","Mapping"
"Mixed","Both","ball","10","m150ball.wav","None","731.026736088","184","363174.054927","370039.797393","370806.487567","357007.323695","357757.005014","358523.614804","359290.468839","360056.65939","363923.479942","364690.075818","365457.020133","366223.166781","366989.896529","367757.221745","368506.884824","369273.098871","370048.749503","Mapping"
"Mixed","Both","ball","10","m150lash.wav","space","399.046447594","184","363174.054927","370039.797393","370806.487567","371573.323671","357757.005014","358523.614804","359290.468839","360056.65939","363923.479942","364690.075818","365457.020133","366223.166781","366989.896529","367757.221745","368506.884824","369273.098871","370815.297148","Mapping"
"Mixed","Both","ball","10","m160ball.wav","None","724.834306166","184","363174.054927","370039.797393","370806.487567","371573.323671","372340.082791","358523.614804","359290.468839","360056.65939","363923.479942","364690.075818","365457.020133","366223.166781","366989.896529","367757.221745","368506.884824","369273.098871","371582.14129","Mapping"
"Mixed","Both","ball","10","m160gnash.wav","space","425.244857091","184","363174.054927","370039.797393","370806.487567","371573.323671","372340.082791","373090.198499","359290.468839","360056.65939","363923.479942","364690.075818","365457.020133","366223.166781","366989.896529","367757.221745","368506.884824","369273.098871","372349.022225","Mapping"
"Mixed","Both","ball","10","m160ball.wav","None","734.714863356","184","363174.054927","370039.797393","370806.487567","371573.323671","372340.082791","373090.198499","373856.443154","360056.65939","363923.479942","364690.075818","365457.020133","366223.166781","366989.896529","367757.221745","368506.884824","369273.098871","373099.499665","Mapping"
"Mixed","Both","ball","10","m150romp.wav","space","357.148532756","184","363174.054927","370039.797393","370806.487567","371573.323671","372340.082791","373090.198499","373856.443154","374622.979051","363923.479942","364690.075818","365457.020133","366223.166781","366989.896529","367757.221745","368506.884824","369273.098871","373865.175442","Mapping"
"Mixed","Both","done","45","m150jolt.wav","None","729.408523999","184","377757.294091","370039.797393","370806.487567","371573.323671","372340.082791","373090.198499","373856.443154","374622.979051","363923.479942","364690.075818","365457.020133","366223.166781","366989.896529","367757.221745","368506.884824","369273.098871","374631.932707","Mapping"
"Mixed","Both","done","45","m160done.wav","None","718.690725975","184","377757.294091","370039.797393","370806.487567","371573.323671","372340.082791","373090.198499","373856.443154","374622.979051","378506.655417","364690.075818","365457.020133","366223.166781","366989.896529","367757.221745","368506.884824","369273.098871","377767.535144","Mapping"
"Mixed","Both","done","45","m160park.wav","space","442.025850993","184","377757.294091","370039.797393","370806.487567","371573.323671","372340.082791","373090.198499","373856.443154","374622.979051","378506.655417","379273.242018","365457.020133","366223.166781","366989.896529","367757.221745","368506.884824","369273.098871","378516.136522","Mapping"
"Mixed","Both","done","45","m160done.wav","None","735.011979006","184","377757.294091","370039.797393","370806.487567","371573.323671","372340.082791","373090.198499","373856.443154","374622.979051","378506.655417","379273.242018","380040.045349","366223.166781","366989.896529","367757.221745","368506.884824","369273.098871","379282.282243","Mapping"
"Mixed","Both","done","45","m160romp.wav","space","437.006114982","184","377757.294091","370039.797393","370806.487567","371573.323671","372340.082791","373090.198499","373856.443154","374622.979051","378506.655417","379273.242018","380040.045349","380806.339473","366989.896529","367757.221745","368506.884824","369273.098871","380049.145863","Mapping"
"Mixed","Both","done","45","m150knife.wav","None","729.441295844","184","377757.294091","370039.797393","370806.487567","371573.323671","372340.082791","373090.198499","373856.443154","374622.979051","378506.655417","379273.242018","380040.045349","380806.339473","381573.249469","367757.221745","368506.884824","369273.098871","380815.112881","Mapping"
"Mixed","Both","done","45","m160depth.wav","None","726.354510989","184","377757.294091","370039.797393","370806.487567","371573.323671","372340.082791","373090.198499","373856.443154","374622.979051","378506.655417","379273.242018","380040.045349","380806.339473","381573.249469","382339.864514","368506.884824","369273.098871","381582.199724","Mapping"
"Mixed","Both","done","45","m150done.wav","None","724.011287559","184","377757.294091","370039.797393","370806.487567","371573.323671","372340.082791","373090.198499","373856.443154","374622.979051","378506.655417","379273.242018","380040.045349","380806.339473","381573.249469","382339.864514","383106.44184","369273.098871","382348.629265","Mapping"
"Mixed","Both","done","45","m150priest.wav","space","322.720860131","184","377757.294091","370039.797393","370806.487567","371573.323671","372340.082791","373090.198499","373856.443154","374622.979051","378506.655417","379273.242018","380040.045349","380806.339473","381573.249469","382339.864514","383106.44184","383856.232916","383115.43136","Mapping"
"Mixed","Both","done","45","m150romp.wav","None","734.720737673","184","377757.294091","384623.02048","370806.487567","371573.323671","372340.082791","373090.198499","373856.443154","374622.979051","378506.655417","379273.242018","380040.045349","380806.339473","381573.249469","382339.864514","383106.44184","383856.232916","383864.891621","Mapping"
"Mixed","Both","done","45","m150romp.wav","None","731.958275195","184","377757.294091","384623.02048","385389.930476","371573.323671","372340.082791","373090.198499","373856.443154","374622.979051","378506.655417","379273.242018","380040.045349","380806.339473","381573.249469","382339.864514","383106.44184","383856.232916","384631.877674","Mapping"
"Mixed","Both","done","45","m160lash.wav","None","728.758641519","184","377757.294091","384623.02048","385389.930476","386157.002479","372340.082791","373090.198499","373856.443154","374622.979051","378506.655417","379273.242018","380040.045349","380806.339473","381573.249469","382339.864514","383106.44184","383856.232916","385399.026352","Mapping"
"Mixed","Both","done","45","m150priest.wav","None","725.682368502","184","377757.294091","384623.02048","385389.930476","386157.002479","386923.50313","373090.198499","373856.443154","374622.979051","378506.655417","379273.242018","380040.045349","380806.339473","381573.249469","382339.864514","383106.44184","383856.232916","386166.110103","Mapping"
"Mixed","Both","done","45","m150done.wav","None","723.034609109","184","377757.294091","384623.02048","385389.930476","386157.002479","386923.50313","387690.52783","373856.443154","374622.979051","378506.655417","379273.242018","380040.045349","380806.339473","381573.249469","382339.864514","383106.44184","383856.232916","386932.911271","Mapping"
"Mixed","Both","done","45","m160dime.wav","space","362.064695917","184","377757.294091","384623.02048","385389.930476","386157.002479","386923.50313","387690.52783","388439.808461","374622.979051","378506.655417","379273.242018","380040.045349","380806.339473","381573.249469","382339.864514","383106.44184","383856.232916","387699.955139","Mapping"
"Mixed","Both","done","45","m160dime.wav","None","734.421767294","184","377757.294091","384623.02048","385389.930476","386157.002479","386923.50313","387690.52783","388439.808461","389206.155144","378506.655417","379273.242018","380040.045349","380806.339473","381573.249469","382339.864514","383106.44184","383856.232916","388448.708012","Mapping"
"Mixed","Both","ball","3","m160tile.wav","space","375.1640548","184","392340.356718","384623.02048","385389.930476","386157.002479","386923.50313","387690.52783","388439.808461","389206.155144","378506.655417","379273.242018","380040.045349","380806.339473","381573.249469","382339.864514","383106.44184","383856.232916","389214.863625","Mapping"
"Mixed","Both","ball","3","m160cad.wav","None","719.751807861","184","392340.356718","384623.02048","385389.930476","386157.002479","386923.50313","387690.52783","388439.808461","389206.155144","393089.660228","379273.242018","380040.045349","380806.339473","381573.249469","382339.864514","383106.44184","383856.232916","392350.238821","Mapping"
"Mixed","Both","ball","3","m150ball.wav","None","735.127300955","184","392340.356718","384623.02048","385389.930476","386157.002479","386923.50313","387690.52783","388439.808461","389206.155144","393089.660228","393856.59063","380040.045349","380806.339473","381573.249469","382339.864514","383106.44184","383856.232916","393098.834015","Mapping"
"Mixed","Both","ball","3","m150greet.wav","space","380.190283526","184","392340.356718","384623.02048","385389.930476","386157.002479","386923.50313","387690.52783","388439.808461","389206.155144","393089.660228","393856.59063","394622.718727","380806.339473","381573.249469","382339.864514","383106.44184","383856.232916","393865.732881","Mapping"
"Mixed","Both","ball","3","m150jolt.wav","None","729.794681072","184","392340.356718","384623.02048","385389.930476","386157.002479","386923.50313","387690.52783","388439.808461","389206.155144","393089.660228","393856.59063","394622.718727","395389.781455","381573.249469","382339.864514","383106.44184","383856.232916","394631.477913","Mapping"
"Mixed","Both","ball","3","m160park.wav","None","725.53025512","184","392340.356718","384623.02048","385389.930476","386157.002479","386923.50313","387690.52783","388439.808461","389206.155144","393089.660228","393856.59063","394622.718727","395389.781455","396156.722677","382339.864514","383106.44184","383856.232916","395399.596776","Mapping"
"Mixed","Both","ball","3","m160cave.wav","None","722.398330923","184","392340.356718","384623.02048","385389.930476","386157.002479","386923.50313","387690.52783","388439.808461","389206.155144","393089.660228","393856.59063","394622.718727","395389.781455","396156.722677","396923.206324","383106.44184","383856.232916","396166.904369","Mapping"
"Mixed","Both","ball","3","m150jaw.wav","None","720.213713124","184","392340.356718","384623.02048","385389.930476","386157.002479","386923.50313","387690.52783","388439.808461","389206.155144","393089.660228","393856.59063","394622.718727","395389.781455","396156.722677","396923.206324","397672.755936","383856.232916","396933.203439","Mapping"
"Mixed","Both","ball","3","m160ball.wav","None","735.932078212","184","392340.356718","384623.02048","385389.930476","386157.002479","386923.50313","387690.52783","388439.808461","389206.155144","393089.660228","393856.59063","394622.718727","395389.781455","396156.722677","396923.206324","397672.755936","398439.708289","397681.761224","Mapping"
"Mixed","Both","ball","3","m150cad.wav","space","396.509063896","184","392340.356718","399205.955109","385389.930476","386157.002479","386923.50313","387690.52783","388439.808461","389206.155144","393089.660228","393856.59063","394622.718727","395389.781455","396156.722677","396923.206324","397672.755936","398439.708289","398449.361295","Mapping"
"Mixed","Both","ball","3","m160ball.wav","None","730.462186038","184","392340.356718","399205.955109","399972.916428","386157.002479","386923.50313","387690.52783","388439.808461","389206.155144","393089.660228","393856.59063","394622.718727","395389.781455","396156.722677","396923.206324","397672.755936","398439.708289","399214.639784","Mapping"
"Mixed","Both","ball","3","m150cad.wav","space","535.918660462","184","392340.356718","399205.955109","399972.916428","400739.487261","386923.50313","387690.52783","388439.808461","389206.155144","393089.660228","393856.59063","394622.718727","395389.781455","396156.722677","396923.206324","397672.755936","398439.708289","399981.909349","Mapping"
"Mixed","Both","ball","3","m160gnash.wav","None","724.308711942","184","392340.356718","399205.955109","399972.916428","400739.487261","401506.117765","387690.52783","388439.808461","389206.155144","393089.660228","393856.59063","394622.718727","395389.781455","396156.722677","396923.206324","397672.755936","398439.708289","400748.31632","Mapping"
"Mixed","Both","ball","3","m150bluff.wav","None","721.762052272","184","392340.356718","399205.955109","399972.916428","400739.487261","401506.117765","402255.839895","388439.808461","389206.155144","393089.660228","393856.59063","394622.718727","395389.781455","396156.722677","396923.206324","397672.755936","398439.708289","401515.097391","Mapping"
"Mixed","Both","ball","3","m150ball.wav","None","736.631119158","184","392340.356718","399205.955109","399972.916428","400739.487261","401506.117765","402255.839895","403022.828112","389206.155144","393089.660228","393856.59063","394622.718727","395389.781455","396156.722677","396923.206324","397672.755936","398439.708289","402264.425944","Mapping"
"Mixed","Both","ball","3","m160depth.wav","space","406.032216735","184","392340.356718","399205.955109","399972.916428","400739.487261","401506.117765","402255.839895","403022.828112","403789.641647","393089.660228","393856.59063","394622.718727","395389.781455","396156.722677","396923.206324","397672.755936","398439.708289","403031.734465","Mapping"
"Mixed","Both","ball","1","m150cling.wav","None","729.751706123","184","406922.41515","399205.955109","399972.916428","400739.487261","401506.117765","402255.839895","403022.828112","403789.641647","393089.660228","393856.59063","394622.718727","395389.781455","396156.722677","396923.206324","397672.755936","398439.708289","403798.622819","Mapping"
"Mixed","Both","ball","1","m150jaw.wav","None","725.465638097","184","406922.41515","399205.955109","399972.916428","400739.487261","401506.117765","402255.839895","403022.828112","403789.641647","407689.381106","393856.59063","394622.718727","395389.781455","396156.722677","396923.206324","397672.755936","398439.708289","406930.961625","Mapping"
"Mixed","Both","ball","1","m150jolt.wav","None","722.476860508","184","406922.41515","399205.955109","399972.916428","400739.487261","401506.117765","402255.839895","403022.828112","403789.641647","407689.381106","408440.039104","394622.718727","395389.781455","396156.722677","396923.206324","397672.755936","398439.708289","407698.290551","Mapping"
"Mixed","Both","ball","1","m160done.wav","None","735.745028593","184","406922.41515","399205.955109","399972.916428","400739.487261","401506.117765","402255.839895","403022.828112","403789.641647","407689.381106","408440.039104","409206.068575","395389.781455","396156.722677","396923.206324","397672.755936","398439.708289","408449.122304","Mapping"
"Mixed","Both","ball","1","m160ball.wav","None","733.796928078","184","406922.41515","399205.955109","399972.916428","400739.487261","401506.117765","402255.839895","403022.828112","403789.641647","407689.381106","408440.039104","409206.068575","409972.347858","396156.722677","396923.206324","397672.755936","398439.708289","409215.236797","Mapping"
"Mixed","Both","ball","1","m150cling.wav","space","408.53157267","184","406922.41515","399205.955109","399972.916428","400739.487261","401506.117765","402255.839895","403022.828112","403789.641647","407689.381106","408440.039104","409206.068575","409972.347858","410739.101722","396923.206324","397672.755936","398439.708289","409981.11972","Mapping"
"Mixed","Both","ball","1","m150ball.wav","None","728.741019033","184","406922.41515","399205.955109","399972.916428","400739.487261","401506.117765","402255.839895","403022.828112","403789.641647","407689.381106","408440.039104","409206.068575","409972.347858","410739.101722","411506.175271","397672.755936","398439.708289","410747.93882","Mapping"
"Mixed","Both","ball","1","m160tile.wav","space","570.285425987","184","406922.41515","399205.955109","399972.916428","400739.487261","401506.117765","402255.839895","403022.828112","403789.641647","407689.381106","408440.039104","409206.068575","409972.347858","410739.101722","411506.175271","412273.080939","398439.708289","411515.326488","Mapping"
"Mixed","Both","ball","1","m150bluff.wav","None","720.831131563","184","406922.41515","399205.955109","399972.916428","400739.487261","401506.117765","402255.839895","403022.828112","403789.641647","407689.381106","408440.039104","409206.068575","409972.347858","410739.101722","411506.175271","412273.080939","413022.260161","412282.927796","Mapping"
"Mixed","Both","ball","1","m150ball.wav","None","736.915558111","184","406922.41515","413789.090082","399972.916428","400739.487261","401506.117765","402255.839895","403022.828112","403789.641647","407689.381106","408440.039104","409206.068575","409972.347858","410739.101722","411506.175271","412273.080939","413022.260161","413031.087675","Mapping"
"Mixed","Both","ball","1","m160knife.wav","space","407.760803588","184","406922.41515","413789.090082","414555.701108","400739.487261","401506.117765","402255.839895","403022.828112","403789.641647","407689.381106","408440.039104","409206.068575","409972.347858","410739.101722","411506.175271","412273.080939","413022.260161","413797.788979","Mapping"
"Mixed","Both","ball","1","m160romp.wav","None","730.891009327","184","406922.41515","413789.090082","414555.701108","415322.690252","401506.117765","402255.839895","403022.828112","403789.641647","407689.381106","408440.039104","409206.068575","409972.347858","410739.101722","411506.175271","412273.080939","413022.260161","414564.653836","Mapping"
"Mixed","Both","ball","1","m160ball.wav","None","727.916144766","184","406922.41515","413789.090082","414555.701108","415322.690252","416089.407634","402255.839895","403022.828112","403789.641647","407689.381106","408440.039104","409206.068575","409972.347858","410739.101722","411506.175271","412273.080939","413022.260161","415331.761084","Mapping"
"Mixed","Both","ball","1","m150depth.wav","space","354.735745117","184","406922.41515","413789.090082","414555.701108","415322.690252","416089.407634","416855.769775","403022.828112","403789.641647","407689.381106","408440.039104","409206.068575","409972.347858","410739.101722","411506.175271","412273.080939","413022.260161","416098.790112","Mapping"
"Mixed","Both","ball","1","m160greet.wav","None","722.385036293","184","406922.41515","413789.090082","414555.701108","415322.690252","416089.407634","416855.769775","417605.884555","403789.641647","407689.381106","408440.039104","409206.068575","409972.347858","410739.101722","411506.175271","412273.080939","413022.260161","416864.658813","Mapping"
"Mixed","Both","ball","1","m160jaw.wav","None","736.07584415","184","406922.41515","413789.090082","414555.701108","415322.690252","416089.407634","416855.769775","417605.884555","418372.189809","407689.381106","408440.039104","409206.068575","409972.347858","410739.101722","411506.175271","412273.080939","413022.260161","417615.196852","Mapping"
"Mixed","Both","done","42","m160tile.wav","None","734.559040051","184","421506.367886","413789.090082","414555.701108","415322.690252","416089.407634","416855.769775","417605.884555","418372.189809","407689.381106","408440.039104","409206.068575","409972.347858","410739.101722","411506.175271","412273.080939","413022.260161","418381.073283","Mapping"
"Mixed","Both","done","42","m150done.wav","None","719.58825551","184","421506.367886","413789.090082","414555.701108","415322.690252","416089.407634","416855.769775","417605.884555","418372.189809","422255.548036","408440.039104","409206.068575","409972.347858","410739.101722","411506.175271","412273.080939","413022.260161","421515.878672","Mapping"
"Mixed","Both","done","42","m150dime.wav","space","349.106010515","184","421506.367886","413789.090082","414555.701108","415322.690252","416089.407634","416855.769775","417605.884555","418372.189809","422255.548036","423022.285514","409206.068575","409972.347858","410739.101722","411506.175271","412273.080939","413022.260161","422264.275995","Mapping"
"Mixed","Both","done","42","m160park.wav","None","732.146561611","184","421506.367886","413789.090082","414555.701108","415322.690252","416089.407634","416855.769775","417605.884555","418372.189809","422255.548036","423022.285514","423788.839033","409972.347858","410739.101722","411506.175271","412273.080939","413022.260161","423031.160021","Mapping"
"Mixed","Both","done","42","m160cad.wav","None","730.073555373","184","421506.367886","413789.090082","414555.701108","415322.690252","416089.407634","416855.769775","417605.884555","418372.189809","422255.548036","423022.285514","423788.839033","424555.521787","410739.101722","411506.175271","412273.080939","413022.260161","423797.507631","Mapping"
"Mixed","Both","done","42","m150greet.wav","None","727.687356528","184","421506.367886","413789.090082","414555.701108","415322.690252","416089.407634","416855.769775","417605.884555","418372.189809","422255.548036","423022.285514","423788.839033","424555.521787","425322.810211","411506.175271","412273.080939","413022.260161","424564.262423","Mapping"
"Mixed","Both","done","42","m160cling.wav","None","724.003867246","184","421506.367886","413789.090082","414555.701108","415322.690252","416089.407634","416855.769775","417605.884555","418372.189809","422255.548036","423022.285514","423788.839033","424555.521787","425322.810211","426089.160295","412273.080939","413022.260161","425332.319761","Mapping"
"Mixed","Both","done","42","m160knife.wav","None","727.586875204","184","421506.367886","413789.090082","414555.701108","415322.690252","416089.407634","416855.769775","417605.884555","418372.189809","422255.548036","423022.285514","423788.839033","424555.521787","425322.810211","426089.160295","426856.031335","413022.260161","426098.458061","Mapping"
"Mixed","Both","done","42","m150done.wav","None","725.232830271","184","421506.367886","413789.090082","414555.701108","415322.690252","416089.407634","416855.769775","417605.884555","418372.189809","422255.548036","423022.285514","423788.839033","424555.521787","425322.810211","426089.160295","426856.031335","427622.742842","426865.10155","Mapping"
"Mixed","Both","done","42","m150greet.wav","space","437.124219257","184","421506.367886","428372.197538","414555.701108","415322.690252","416089.407634","416855.769775","417605.884555","418372.189809","422255.548036","423022.285514","423788.839033","424555.521787","425322.810211","426089.160295","426856.031335","427622.742842","427632.242189","Mapping"
"Mixed","Both","done","42","m150reek.wav","None","736.049254891","184","421506.367886","428372.197538","429138.76528","415322.690252","416089.407634","416855.769775","417605.884555","418372.189809","422255.548036","423022.285514","423788.839033","424555.521787","425322.810211","426089.160295","426856.031335","427622.742842","428381.282902","Mapping"
"Mixed","Both","done","42","m160done.wav","None","733.97686705","184","421506.367886","428372.197538","429138.76528","429905.734019","416089.407634","416855.769775","417605.884555","418372.189809","422255.548036","423022.285514","423788.839033","424555.521787","425322.810211","426089.160295","426856.031335","427622.742842","429147.737795","Mapping"
"Mixed","Both","done","42","m160knife.wav","space","562.512502074","184","421506.367886","428372.197538","429138.76528","429905.734019","430672.003408","416855.769775","417605.884555","418372.189809","422255.548036","423022.285514","423788.839033","424555.521787","425322.810211","426089.160295","426856.031335","427622.742842","429914.763731","Mapping"
"Mixed","Both","done","42","m160done.wav","None","728.396908846","184","421506.367886","428372.197538","429138.76528","429905.734019","430672.003408","431438.750471","417605.884555","418372.189809","422255.548036","423022.285514","423788.839033","424555.521787","425322.810211","426089.160295","426856.031335","427622.742842","430680.87266","Mapping"
"Mixed","Both","done","42","m150gnash.wav","space","421.42533185","184","421506.367886","428372.197538","429138.76528","429905.734019","430672.003408","431438.750471","432205.921409","418372.189809","422255.548036","423022.285514","423788.839033","424555.521787","425322.810211","426089.160295","426856.031335","427622.742842","431447.821612","Mapping"
"Mixed","Both","done","42","m150cave.wav","None","722.029487137","184","421506.367886","428372.197538","429138.76528","429905.734019","430672.003408","431438.750471","432205.921409","432955.418152","422255.548036","423022.285514","423788.839033","424555.521787","425322.810211","426089.160295","426856.031335","427622.742842","432214.861461","Mapping"
"Mixed","Both","tile","29","m150lash.wav","None","737.126105465","184","436089.466685","428372.197538","429138.76528","429905.734019","430672.003408","431438.750471","432205.921409","432955.418152","422255.548036","423022.285514","423788.839033","424555.521787","425322.810211","426089.160295","426856.031335","427622.742842","432964.0682","Mapping"
"Mixed","Both","tile","29","m160bluff.wav","None","720.481456723","184","436089.466685","428372.197538","429138.76528","429905.734019","430672.003408","431438.750471","432205.921409","432955.418152","436838.417429","423022.285514","423788.839033","424555.521787","425322.810211","426089.160295","426856.031335","427622.742842","436098.902961","Mapping"
"Mixed","Both","tile","29","m150greet.wav","None","736.522908323","184","436089.466685","428372.197538","429138.76528","429905.734019","430672.003408","431438.750471","432205.921409","432955.418152","436838.417429","437605.572909","423788.839033","424555.521787","425322.810211","426089.160295","426856.031335","427622.742842","436847.161465","Mapping"
"Mixed","Both","tile","29","m160tile.wav","None","733.519908972","184","436089.466685","428372.197538","429138.76528","429905.734019","430672.003408","431438.750471","432205.921409","432955.418152","436838.417429","437605.572909","438372.152399","424555.521787","425322.810211","426089.160295","426856.031335","427622.742842","437614.672495","Mapping"
"Mixed","Both","tile","29","m150dime.wav","space","335.961821023","184","436089.466685","428372.197538","429138.76528","429905.734019","430672.003408","431438.750471","432205.921409","432955.418152","436838.417429","437605.572909","438372.152399","439138.556588","425322.810211","426089.160295","426856.031335","427622.742842","438381.119967","Mapping"
"Mixed","Both","tile","29","m150tile.wav","None","728.514085524","184","436089.466685","428372.197538","429138.76528","429905.734019","430672.003408","431438.750471","432205.921409","432955.418152","436838.417429","437605.572909","438372.152399","439138.556588","439905.575722","426089.160295","426856.031335","427622.742842","439147.325049","Mapping"
"Mixed","Both","tile","29","m160gnash.wav","space","449.975312687","184","436089.466685","428372.197538","429138.76528","429905.734019","430672.003408","431438.750471","432205.921409","432955.418152","436838.417429","437605.572909","438372.152399","439138.556588","439905.575722","440672.585272","426856.031335","427622.742842","439915.123918","Mapping"
"Mixed","Both","tile","29","m150tile.wav","None","721.459989902","184","436089.466685","428372.197538","429138.76528","429905.734019","430672.003408","431438.750471","432205.921409","432955.418152","436838.417429","437605.572909","438372.152399","439138.556588","439905.575722","440672.585272","441439.174347","427622.742842","440681.882729","Mapping"
"Mixed","Both","tile","29","m160gnash.wav","space","468.401726335","184","436089.466685","428372.197538","429138.76528","429905.734019","430672.003408","431438.750471","432205.921409","432955.418152","436838.417429","437605.572909","438372.152399","439138.556588","439905.575722","440672.585272","441439.174347","442188.51032","441448.694717","Mapping"
"Mixed","Both","tile","29","m160jolt.wav","None","733.715306502","184","436089.466685","442955.665181","429138.76528","429905.734019","430672.003408","431438.750471","432205.921409","432955.418152","436838.417429","437605.572909","438372.152399","439138.556588","439905.575722","440672.585272","441439.174347","442188.51032","442197.454392","Mapping"
"Mixed","Both","tile","29","m160priest.wav","None","730.829793029","184","436089.466685","442955.665181","443722.070298","429905.734019","430672.003408","431438.750471","432205.921409","432955.418152","436838.417429","437605.572909","438372.152399","439138.556588","439905.575722","440672.585272","441439.174347","442188.51032","442964.586065","Mapping"
"Mixed","Both","tile","29","m160tile.wav","None","728.857268114","184","436089.466685","442955.665181","443722.070298","444488.548379","430672.003408","431438.750471","432205.921409","432955.418152","436838.417429","437605.572909","438372.152399","439138.556588","439905.575722","440672.585272","441439.174347","442188.51032","443731.087334","Mapping"
"Mixed","Both","tile","29","m150cad.wav","space","579.554128926","184","436089.466685","442955.665181","443722.070298","444488.548379","445255.648208","431438.750471","432205.921409","432955.418152","436838.417429","437605.572909","438372.152399","439138.556588","439905.575722","440672.585272","441439.174347","442188.51032","444497.417322","Mapping"
"Mixed","Both","tile","29","m150knife.wav","None","722.129968461","184","436089.466685","442955.665181","443722.070298","444488.548379","445255.648208","446022.341165","432205.921409","432955.418152","436838.417429","437605.572909","438372.152399","439138.556588","439905.575722","440672.585272","441439.174347","442188.51032","445265.871329","Mapping"
"Mixed","Both","tile","29","m160reek.wav","None","720.606672112","184","436089.466685","442955.665181","443722.070298","444488.548379","445255.648208","446022.341165","446771.466591","432955.418152","436838.417429","437605.572909","438372.152399","439138.556588","439905.575722","440672.585272","441439.174347","442188.51032","446031.983658","Mapping"
"Mixed","Both","tile","29","m150cling.wav","None","736.700064503","184","436089.466685","442955.665181","443722.070298","444488.548379","445255.648208","446022.341165","446771.466591","447538.757489","436838.417429","437605.572909","438372.152399","439138.556588","439905.575722","440672.585272","441439.174347","442188.51032","446780.472188","Mapping"
"Mixed","Both","cave","14","m150knife.wav","None","733.761373442","184","450672.266206","442955.665181","443722.070298","444488.548379","445255.648208","446022.341165","446771.466591","447538.757489","436838.417429","437605.572909","438372.152399","439138.556588","439905.575722","440672.585272","441439.174347","442188.51032","447547.887064","Mapping"
"Mixed","Both","cave","14","m160cave.wav","None","720.214022323","184","450672.266206","442955.665181","443722.070298","444488.548379","445255.648208","446022.341165","446771.466591","447538.757489","451421.853537","437605.572909","438372.152399","439138.556588","439905.575722","440672.585272","441439.174347","442188.51032","450681.686094","Mapping"
"Mixed","Both","cave","14","m150jaw.wav","space","578.813350294","184","450672.266206","442955.665181","443722.070298","444488.548379","445255.648208","446022.341165","446771.466591","447538.757489","451421.853537","452188.82444","438372.152399","439138.556588","439905.575722","440672.585272","441439.174347","442188.51032","451426.070041","Mapping"
"Mixed","Both","cave","14","m160cave.wav","None","731.486476958","184","450672.266206","442955.665181","443722.070298","444488.548379","445255.648208","446022.341165","446771.466591","447538.757489","451421.853537","452188.82444","452955.020246","439138.556588","439905.575722","440672.585272","441439.174347","442188.51032","452197.879505","Mapping"
"Mixed","Both","cave","14","m150bluff.wav","space","361.169021111","184","450672.266206","442955.665181","443722.070298","444488.548379","445255.648208","446022.341165","446771.466591","447538.757489","451421.853537","452188.82444","452955.020246","453721.579022","439905.575722","440672.585272","441439.174347","442188.51032","452963.726873","Mapping"
"Mixed","Both","cave","14","m160ball.wav","None","726.454373915","184","450672.266206","442955.665181","443722.070298","444488.548379","445255.648208","446022.341165","446771.466591","447538.757489","451421.853537","452188.82444","452955.020246","453721.579022","454488.564147","440672.585272","441439.174347","442188.51032","453730.285339","Mapping"
"Mixed","Both","cave","14","m160jolt.wav","None","723.754982464","184","450672.266206","442955.665181","443722.070298","444488.548379","445255.648208","446022.341165","446771.466591","447538.757489","451421.853537","452188.82444","452955.020246","453721.579022","454488.564147","455255.122614","441439.174347","442188.51032","454497.499871","Mapping"
"Mixed","Both","cave","14","m160greet.wav","None","721.934570931","184","450672.266206","442955.665181","443722.070298","444488.548379","445255.648208","446022.341165","446771.466591","447538.757489","451421.853537","452188.82444","452955.020246","453721.579022","454488.564147","455255.122614","456004.944607","442188.51032","455264.073487","Mapping"
"Mixed","Both","cave","14","m150bluff.wav","None","736.858979333","184","450672.266206","442955.665181","443722.070298","444488.548379","445255.648208","446022.341165","446771.466591","447538.757489","451421.853537","452188.82444","452955.020246","453721.579022","454488.564147","455255.122614","456004.944607","456771.90067","456013.690499","Mapping"
"Mixed","Both","cave","14","m160greet.wav","None","733.970683534","184","450672.266206","457538.508913","443722.070298","444488.548379","445255.648208","446022.341165","446771.466591","447538.757489","451421.853537","452188.82444","452955.020246","453721.579022","454488.564147","455255.122614","456004.944607","456771.90067","456780.943368","Mapping"
"Mixed","Both","cave","14","m150gnash.wav","None","731.552639976","184","450672.266206","457538.508913","458305.32523","444488.548379","445255.648208","446022.341165","446771.466591","447538.757489","451421.853537","452188.82444","452955.020246","453721.579022","454488.564147","455255.122614","456004.944607","456771.90067","457547.897267","Mapping"
"Mixed","Both","cave","14","m150cave.wav","None","729.419035837","184","450672.266206","457538.508913","458305.32523","459071.468786","445255.648208","446022.341165","446771.466591","447538.757489","451421.853537","452188.82444","452955.020246","453721.579022","454488.564147","455255.122614","456004.944607","456771.90067","458314.514476","Mapping"
"Mixed","Both","cave","14","m160priest.wav","space","508.507982828","184","450672.266206","457538.508913","458305.32523","459071.468786","459839.146769","446022.341165","446771.466591","447538.757489","451421.853537","452188.82444","452955.020246","453721.579022","454488.564147","455255.122614","456004.944607","456771.90067","459080.28486","Mapping"
"Mixed","Both","cave","14","m160lash.wav","None","722.985759843","184","450672.266206","457538.508913","458305.32523","459071.468786","459839.146769","460605.541373","446771.466591","447538.757489","451421.853537","452188.82444","452955.020246","453721.579022","454488.564147","455255.122614","456004.944607","456771.90067","459848.547489","Mapping"
"Mixed","Both","cave","14","m150cave.wav","None","720.559059177","184","450672.266206","457538.508913","458305.32523","459071.468786","459839.146769","460605.541373","461354.929597","447538.757489","451421.853537","452188.82444","452955.020246","453721.579022","454488.564147","455255.122614","456004.944607","456771.90067","460615.355458","Mapping"
"Mixed","Both","cave","14","m150depth.wav","space","448.073897511","184","450672.266206","457538.508913","458305.32523","459071.468786","459839.146769","460605.541373","461354.929597","462121.78456","451421.853537","452188.82444","452955.020246","453721.579022","454488.564147","455255.122614","456004.944607","456771.90067","461364.619394","Mapping"
"Mixed","Both","cave","16","m150done.wav","None","732.53271915","184","465255.534432","457538.508913","458305.32523","459071.468786","459839.146769","460605.541373","461354.929597","462121.78456","451421.853537","452188.82444","452955.020246","453721.579022","454488.564147","455255.122614","456004.944607","456771.90067","462130.778409","Mapping"
"Mixed","Both","cave","16","m150park.wav","None","719.263933133","184","465255.534432","457538.508913","458305.32523","459071.468786","459839.146769","460605.541373","461354.929597","462121.78456","466004.983872","452188.82444","452955.020246","453721.579022","454488.564147","455255.122614","456004.944607","456771.90067","465265.404477","Mapping"
"Mixed","Both","cave","16","m150knife.wav","None","735.19284511","184","465255.534432","457538.508913","458305.32523","459071.468786","459839.146769","460605.541373","461354.929597","462121.78456","466004.983872","466771.335811","452955.020246","453721.579022","454488.564147","455255.122614","456004.944607","456771.90067","466014.055941","Mapping"
"Mixed","Both","cave","16","m160dime.wav","None","739.65823371","184","465255.534432","457538.508913","458305.32523","459071.468786","459839.146769","460605.541373","461354.929597","462121.78456","466004.983872","466771.335811","467538.352472","453721.579022","454488.564147","455255.122614","456004.944607","456771.90067","466774.576255","Mapping"
"Mixed","Both","cave","16","m150cave.wav","None","731.223370414","184","465255.534432","457538.508913","458305.32523","459071.468786","459839.146769","460605.541373","461354.929597","462121.78456","466004.983872","466771.335811","467538.352472","468305.061506","454488.564147","455255.122614","456004.944607","456771.90067","467547.435671","Mapping"
"Mixed","Both","cave","16","m160romp.wav","None","728.249124251","184","465255.534432","457538.508913","458305.32523","459071.468786","459839.146769","460605.541373","461354.929597","462121.78456","466004.983872","466771.335811","467538.352472","468305.061506","469071.666039","455255.122614","456004.944607","456771.90067","468314.753776","Mapping"
"Mixed","Both","cave","16","m160cave.wav","space","691.87891623","184","465255.534432","457538.508913","458305.32523","459071.468786","459839.146769","460605.541373","461354.929597","462121.78456","466004.983872","466771.335811","467538.352472","468305.061506","469071.666039","469838.848725","456004.944607","456771.90067","469080.653085","Mapping"
"Mixed","Both","cave","16","m160dime.wav","space","484.275914729","184","465255.534432","457538.508913","458305.32523","459071.468786","459839.146769","460605.541373","461354.929597","462121.78456","466004.983872","466771.335811","467538.352472","468305.061506","469071.666039","469838.848725","470604.943123","456771.90067","469848.263049","Mapping"
"Mixed","Both","cave","16","m150lash.wav","None","721.974763554","184","465255.534432","457538.508913","458305.32523","459071.468786","459839.146769","460605.541373","461354.929597","462121.78456","466004.983872","466771.335811","467538.352472","468305.061506","469071.666039","469838.848725","470604.943123","471354.725852","470613.642329","Mapping"
"Mixed","Both","cave","16","m160knife.wav","None","736.674094107","184","465255.534432","472121.223101","458305.32523","459071.468786","459839.146769","460605.541373","461354.929597","462121.78456","466004.983872","466771.335811","467538.352472","468305.061506","469071.666039","469838.848725","470604.943123","471354.725852","471363.473289","Mapping"
"Mixed","Both","cave","16","m150jolt.wav","None","734.961583745","184","465255.534432","472121.223101","472887.968","459071.468786","459839.146769","460605.541373","461354.929597","462121.78456","466004.983872","466771.335811","467538.352472","468305.061506","469071.666039","469838.848725","470604.943123","471354.725852","472129.99991","Mapping"
"Mixed","Both","cave","16","m160cave.wav","None","732.852094807","184","465255.534432","472121.223101","472887.968","473655.116059","459839.146769","460605.541373","461354.929597","462121.78456","466004.983872","466771.335811","467538.352472","468305.061506","469071.666039","469838.848725","470604.943123","471354.725852","472896.616192","Mapping"
"Mixed","Both","cave","16","m160jolt.wav","space","379.688804969","184","465255.534432","472121.223101","472887.968","473655.116059","474421.572807","460605.541373","461354.929597","462121.78456","466004.983872","466771.335811","467538.352472","468305.061506","469071.666039","469838.848725","470604.943123","471354.725852","473664.813276","Mapping"
"Mixed","Both","cave","16","m150cave.wav","None","726.221875753","184","465255.534432","472121.223101","472887.968","473655.116059","474421.572807","475188.669235","461354.929597","462121.78456","466004.983872","466771.335811","467538.352472","468305.061506","469071.666039","469838.848725","470604.943123","471354.725852","474430.572221","Mapping"
"Mixed","Both","cave","16","m160reek.wav","space","390.331164934","184","465255.534432","472121.223101","472887.968","473655.116059","474421.572807","475188.669235","475955.399293","462121.78456","466004.983872","466771.335811","467538.352472","468305.061506","469071.666039","469838.848725","470604.943123","471354.725852","475198.194552","Mapping"
"Mixed","Both","cave","16","m150depth.wav","None","719.7375861","184","465255.534432","472121.223101","472887.968","473655.116059","474421.572807","475188.669235","475955.399293","476704.52812","466004.983872","466771.335811","467538.352472","468305.061506","469071.666039","469838.848725","470604.943123","471354.725852","475964.813617","Mapping"
"Mixed","Both","tile","30","m160reek.wav","None","735.731424764","184","479838.477718","472121.223101","472887.968","473655.116059","474421.572807","475188.669235","475955.399293","476704.52812","466004.983872","466771.335811","467538.352472","468305.061506","469071.666039","469838.848725","470604.943123","471354.725852","476713.407883","Mapping"
"Mixed","Both","tile","30","m150ball.wav","None","719.467677642","184","479838.477718","472121.223101","472887.968","473655.116059","474421.572807","475188.669235","475955.399293","476704.52812","480587.712282","466771.335811","467538.352472","468305.061506","469071.666039","469838.848725","470604.943123","471354.725852","479848.076309","Mapping"
"Mixed","Both","tile","30","m160cling.wav","None","735.790477134","184","479838.477718","472121.223101","472887.968","473655.116059","474421.572807","475188.669235","475955.399293","476704.52812","480587.712282","481354.534782","467538.352472","468305.061506","469071.666039","469838.848725","470604.943123","471354.725852","480596.416435","Mapping"
"Mixed","Both","tile","30","m160tile.wav","None","733.563502319","184","479838.477718","472121.223101","472887.968","473655.116059","474421.572807","475188.669235","475955.399293","476704.52812","480587.712282","481354.534782","482121.071607","468305.061506","469071.666039","469838.848725","470604.943123","471354.725852","481363.354567","Mapping"
"Mixed","Both","tile","30","m160reek.wav","space","410.466378555","184","479838.477718","472121.223101","472887.968","473655.116059","474421.572807","475188.669235","475955.399293","476704.52812","480587.712282","481354.534782","482121.071607","482887.81836","469071.666039","469838.848725","470604.943123","471354.725852","482129.913651","Mapping"
"Mixed","Both","tile","30","m150depth.wav","None","728.347750846","184","479838.477718","472121.223101","472887.968","473655.116059","474421.572807","475188.669235","475955.399293","476704.52812","480587.712282","481354.534782","482121.071607","482887.81836","483654.832238","469838.848725","470604.943123","471354.725852","482896.604753","Mapping"
"Mixed","Both","tile","30","m150tile.wav","None","725.207478739","184","479838.477718","472121.223101","472887.968","473655.116059","474421.572807","475188.669235","475955.399293","476704.52812","480587.712282","481354.534782","482121.071607","482887.81836","483654.832238","484421.236427","470604.943123","471354.725852","483664.205751","Mapping"
"Mixed","Both","tile","30","m150reek.wav","space","566.185170319","184","479838.477718","472121.223101","472887.968","473655.116059","474421.572807","475188.669235","475955.399293","476704.52812","480587.712282","481354.534782","482121.071607","482887.81836","483654.832238","484421.236427","485187.97545","471354.725852","484430.143707","Mapping"
"Mixed","Both","tile","30","m150tile.wav","None","720.516393427","184","479838.477718","472121.223101","472887.968","473655.116059","474421.572807","475188.669235","475955.399293","476704.52812","480587.712282","481354.534782","482121.071607","482887.81836","483654.832238","484421.236427","485187.97545","485937.74303","485196.790906","Mapping"
"Mixed","Both","tile","30","m160greet.wav","space","417.846033815","184","479838.477718","486704.7263","472887.968","473655.116059","474421.572807","475188.669235","475955.399293","476704.52812","480587.712282","481354.534782","482121.071607","482887.81836","483654.832238","484421.236427","485187.97545","485937.74303","485946.436361","Mapping"
"Mixed","Both","tile","30","m150reek.wav","None","731.75483942","184","479838.477718","486704.7263","487471.342891","473655.116059","474421.572807","475188.669235","475955.399293","476704.52812","480587.712282","481354.534782","482121.071607","482887.81836","483654.832238","484421.236427","485187.97545","485937.74303","486714.007061","Mapping"
"Mixed","Both","tile","30","m160cad.wav","None","729.977402836","184","479838.477718","486704.7263","487471.342891","488238.085933","474421.572807","475188.669235","475955.399293","476704.52812","480587.712282","481354.534782","482121.071607","482887.81836","483654.832238","484421.236427","485187.97545","485937.74303","487480.312005","Mapping"
"Mixed","Both","tile","30","m160tile.wav","None","728.041978553","184","479838.477718","486704.7263","487471.342891","488238.085933","489004.38253","475188.669235","475955.399293","476704.52812","480587.712282","481354.534782","482121.071607","482887.81836","483654.832238","484421.236427","485187.97545","485937.74303","488247.219528","Mapping"
"Mixed","Both","tile","30","m150park.wav","space","423.034268897","184","479838.477718","486704.7263","487471.342891","488238.085933","489004.38253","489771.642202","475955.399293","476704.52812","480587.712282","481354.534782","482121.071607","482887.81836","483654.832238","484421.236427","485187.97545","485937.74303","489013.205715","Mapping"
"Mixed","Both","tile","30","m150knife.wav","None","722.111108713","184","479838.477718","486704.7263","487471.342891","488238.085933","489004.38253","489771.642202","490538.499638","476704.52812","480587.712282","481354.534782","482121.071607","482887.81836","483654.832238","484421.236427","485187.97545","485937.74303","489781.120215","Mapping"
"Mixed","Both","tile","30","m160greet.wav","None","719.797566067","184","479838.477718","486704.7263","487471.342891","488238.085933","489004.38253","489771.642202","490538.499638","491287.889407","480587.712282","481354.534782","482121.071607","482887.81836","483654.832238","484421.236427","485187.97545","485937.74303","490548.0905","Mapping"
"Mixed","Both","ball","8","m150depth.wav","None","735.640528146","184","494421.552711","486704.7263","487471.342891","488238.085933","489004.38253","489771.642202","490538.499638","491287.889407","480587.712282","481354.534782","482121.071607","482887.81836","483654.832238","484421.236427","485187.97545","485937.74303","491296.99765","Mapping"
"Mixed","Both","ball","8","m150done.wav","None","721.310041379","184","494421.552711","486704.7263","487471.342891","488238.085933","489004.38253","489771.642202","490538.499638","491287.889407","495170.693905","481354.534782","482121.071607","482887.81836","483654.832238","484421.236427","485187.97545","485937.74303","494429.946145","Mapping"
"Mixed","Both","ball","8","m160ball.wav","None","736.50064785","184","494421.552711","486704.7263","487471.342891","488238.085933","489004.38253","489771.642202","490538.499638","491287.889407","495170.693905","495937.700673","482121.071607","482887.81836","483654.832238","484421.236427","485187.97545","485937.74303","495179.546461","Mapping"
"Mixed","Both","ball","8","m150park.wav","space","505.537755787","184","494421.552711","486704.7263","487471.342891","488238.085933","489004.38253","489771.642202","490538.499638","491287.889407","495170.693905","495937.700673","496704.634166","482887.81836","483654.832238","484421.236427","485187.97545","485937.74303","495946.535606","Mapping"
"Mixed","Both","ball","8","m150ball.wav","None","733.465494588","184","494421.552711","486704.7263","487471.342891","488238.085933","489004.38253","489771.642202","490538.499638","491287.889407","495170.693905","495937.700673","496704.634166","497471.147184","483654.832238","484421.236427","485187.97545","485937.74303","496710.504129","Mapping"
"Mixed","Both","ball","8","m150gnash.wav","space","721.200284548","184","494421.552711","486704.7263","487471.342891","488238.085933","489004.38253","489771.642202","490538.499638","491287.889407","495170.693905","495937.700673","496704.634166","497471.147184","498237.915579","484421.236427","485187.97545","485937.74303","497474.828819","Mapping"
"Mixed","Both","ball","8","m150lash.wav","None","725.065258797","184","494421.552711","486704.7263","487471.342891","488238.085933","489004.38253","489771.642202","490538.499638","491287.889407","495170.693905","495937.700673","496704.634166","497471.147184","498237.915579","499004.358724","485187.97545","485937.74303","498246.964769","Mapping"
"Mixed","Both","ball","8","m160gnash.wav","None","723.340381403","184","494421.552711","486704.7263","487471.342891","488238.085933","489004.38253","489771.642202","490538.499638","491287.889407","495170.693905","495937.700673","496704.634166","497471.147184","498237.915579","499004.358724","499771.557797","485937.74303","499013.32351","Mapping"
"Mixed","Both","ball","8","m150ball.wav","None","720.206910744","184","494421.552711","486704.7263","487471.342891","488238.085933","489004.38253","489771.642202","490538.499638","491287.889407","495170.693905","495937.700673","496704.634166","497471.147184","498237.915579","499004.358724","499771.557797","500520.934581","499781.14835","Mapping"
"Mixed","Both","ball","8","m160cad.wav","space","466.008725576","184","494421.552711","501287.942276","487471.342891","488238.085933","489004.38253","489771.642202","490538.499638","491287.889407","495170.693905","495937.700673","496704.634166","497471.147184","498237.915579","499004.358724","499771.557797","500520.934581","500530.011288","Mapping"
"Mixed","Both","ball","8","m160ball.wav","None","732.036186848","184","494421.552711","501287.942276","502054.55763","488238.085933","489004.38253","489771.642202","490538.499638","491287.889407","495170.693905","495937.700673","496704.634166","497471.147184","498237.915579","499004.358724","499771.557797","500520.934581","501297.00538","Mapping"
"Mixed","Both","ball","8","m160done.wav","space","396.205146331","184","494421.552711","501287.942276","502054.55763","502820.704587","489004.38253","489771.642202","490538.499638","491287.889407","495170.693905","495937.700673","496704.634166","497471.147184","498237.915579","499004.358724","499771.557797","500520.934581","502063.719978","Mapping"
"Mixed","Both","ball","8","m160cad.wav","None","727.06993809","184","494421.552711","501287.942276","502054.55763","502820.704587","503588.424927","489771.642202","490538.499638","491287.889407","495170.693905","495937.700673","496704.634166","497471.147184","498237.915579","499004.358724","499771.557797","500520.934581","502829.647731","Mapping"
"Mixed","Both","ball","8","m150reek.wav","None","723.498059437","184","494421.552711","501287.942276","502054.55763","502820.704587","503588.424927","504354.832826","490538.499638","491287.889407","495170.693905","495937.700673","496704.634166","497471.147184","498237.915579","499004.358724","499771.557797","500520.934581","503597.837396","Mapping"
"Mixed","Both","ball","8","m160park.wav","None","721.800698899","184","494421.552711","501287.942276","502054.55763","502820.704587","503588.424927","504354.832826","505121.595037","491287.889407","495170.693905","495937.700673","496704.634166","497471.147184","498237.915579","499004.358724","499771.557797","500520.934581","504364.341447","Mapping"
