"Condition","Talker","Target","Trial","current_stimulus","response_response","response_time_response","subject_nr","time_Audio1","time_Audio10","time_Audio11","time_Audio12","time_Audio13","time_Audio14","time_Audio15","time_Audio16","time_Audio2","time_Audio3","time_Audio4","time_Audio5","time_Audio6","time_Audio7","time_Audio8","time_Audio9","time_response","title"
"Blocked","m160","ball","3","m160cling.wav","NA","NA","146","1148028.43506","NA","NA","NA","NA","NA","NA","NA","NA","NA","NA","NA","NA","NA","NA","NA","NA","Mapping"
"Blocked","m160","ball","3","m160knife.wav","None","507.441358059","146","1148028.43506","NA","NA","NA","NA","NA","NA","NA","1148778.16445","NA","NA","NA","NA","NA","NA","NA","1148250.88803","Mapping"
"Blocked","m160","ball","3","m160romp.wav","None","733.879891457","146","1148028.43506","NA","NA","NA","NA","NA","NA","NA","1148778.16445","1149544.4492","NA","NA","NA","NA","NA","NA","1148787.98104","Mapping"
"Blocked","m160","ball","3","m160priest.wav","None","725.185914082","146","1148028.43506","NA","NA","NA","NA","NA","NA","NA","1148778.16445","1149544.4492","1150311.12752","NA","NA","NA","NA","NA","1149560.23903","Mapping"
"Blocked","m160","ball","3","m160ball.wav","None","727.014679229","146","1148028.43506","NA","NA","NA","NA","NA","NA","NA","1148778.16445","1149544.4492","1150311.12752","1151077.78203","NA","NA","NA","NA","1150321.95727","Mapping"
"Blocked","m160","ball","3","m160tile.wav","space","411.234708619","146","1148028.43506","NA","NA","NA","NA","NA","NA","NA","1148778.16445","1149544.4492","1150311.12752","1151077.78203","1151845.07438","NA","NA","NA","1151086.70604","Mapping"
"Blocked","m160","ball","3","m160cad.wav","None","718.576079933","146","1148028.43506","NA","NA","NA","NA","NA","NA","NA","1148778.16445","1149544.4492","1150311.12752","1151077.78203","1151845.07438","1152594.25963","NA","NA","1151856.94883","Mapping"
"Blocked","m160","ball","3","m160ball.wav","None","735.297145671","146","1148028.43506","NA","NA","NA","NA","NA","NA","NA","1148778.16445","1149544.4492","1150311.12752","1151077.78203","1151845.07438","1152594.25963","1153361.15159","NA","1152603.70242","Mapping"
"Blocked","m160","ball","3","m160cling.wav","space","439.138912829","146","1148028.43506","NA","NA","NA","NA","NA","NA","NA","1148778.16445","1149544.4492","1150311.12752","1151077.78203","1151845.07438","1152594.25963","1153361.15159","1154127.70469","1153370.76845","Mapping"
"Blocked","m160","ball","3","m160lash.wav","None","728.213965776","146","1148028.43506","1154894.45567","NA","NA","NA","NA","NA","NA","1148778.16445","1149544.4492","1150311.12752","1151077.78203","1151845.07438","1152594.25963","1153361.15159","1154127.70469","1154138.4148","Mapping"
"Blocked","m160","ball","3","m160ball.wav","None","726.584308897","146","1148028.43506","1154894.45567","1155661.9768","NA","NA","NA","NA","NA","1148778.16445","1149544.4492","1150311.12752","1151077.78203","1151845.07438","1152594.25963","1153361.15159","1154127.70469","1154903.63258","Mapping"
"Blocked","m160","ball","3","m160cling.wav","space","384.59069829","146","1148028.43506","1154894.45567","1155661.9768","1156428.80415","NA","NA","NA","NA","1148778.16445","1149544.4492","1150311.12752","1151077.78203","1151845.07438","1152594.25963","1153361.15159","1154127.70469","1155673.26661","Mapping"
"Blocked","m160","ball","3","m160bluff.wav","None","719.510094961","146","1148028.43506","1154894.45567","1155661.9768","1156428.80415","1157178.14831","NA","NA","NA","1148778.16445","1149544.4492","1150311.12752","1151077.78203","1151845.07438","1152594.25963","1153361.15159","1154127.70469","1156438.0466","Mapping"
"Blocked","m160","ball","3","m160ball.wav","None","733.136018389","146","1148028.43506","1154894.45567","1155661.9768","1156428.80415","1157178.14831","1157944.5357","NA","NA","1148778.16445","1149544.4492","1150311.12752","1151077.78203","1151845.07438","1152594.25963","1153361.15159","1154127.70469","1157187.99458","Mapping"
"Blocked","m160","ball","3","m160gnash.wav","space","406.584111042","146","1148028.43506","1154894.45567","1155661.9768","1156428.80415","1157178.14831","1157944.5357","1158711.46198","NA","1148778.16445","1149544.4492","1150311.12752","1151077.78203","1151845.07438","1152594.25963","1153361.15159","1154127.70469","1157955.23777","Mapping"
"Blocked","m160","ball","3","m160jolt.wav","None","727.64508531","146","1148028.43506","1154894.45567","1155661.9768","1156428.80415","1157178.14831","1157944.5357","1158711.46198","1159478.33539","1148778.16445","1149544.4492","1150311.12752","1151077.78203","1151845.07438","1152594.25963","1153361.15159","1154127.70469","1158720.2382","Mapping"
"Blocked","m160","cave","8","m160depth.wav","None","724.243242177","146","1162644.90266","1154894.45567","1155661.9768","1156428.80415","1157178.14831","1157944.5357","1158711.46198","1159478.33539","1148778.16445","1149544.4492","1150311.12752","1151077.78203","1151845.07438","1152594.25963","1153361.15159","1154127.70469","1159487.06524","Mapping"
"Blocked","m160","cave","8","m160cad.wav","None","719.117443776","146","1162644.90266","1154894.45567","1155661.9768","1156428.80415","1157178.14831","1157944.5357","1158711.46198","1159478.33539","1163394.31763","1149544.4492","1150311.12752","1151077.78203","1151845.07438","1152594.25963","1153361.15159","1154127.70469","1162656.16649","Mapping"
"Blocked","m160","cave","8","m160done.wav","None","735.380313592","146","1162644.90266","1154894.45567","1155661.9768","1156428.80415","1157178.14831","1157944.5357","1158711.46198","1159478.33539","1163394.31763","1164161.38582","1150311.12752","1151077.78203","1151845.07438","1152594.25963","1153361.15159","1154127.70469","1163403.38756","Mapping"
"Blocked","m160","cave","8","m160ball.wav","None","731.549954973","146","1162644.90266","1154894.45567","1155661.9768","1156428.80415","1157178.14831","1157944.5357","1158711.46198","1159478.33539","1163394.31763","1164161.38582","1164928.75298","1151077.78203","1151845.07438","1152594.25963","1153361.15159","1154127.70469","1164170.6125","Mapping"
"Blocked","m160","cave","8","m160cave.wav","None","727.690224769","146","1162644.90266","1154894.45567","1155661.9768","1156428.80415","1157178.14831","1157944.5357","1158711.46198","1159478.33539","1163394.31763","1164161.38582","1164928.75298","1165695.27424","1151845.07438","1152594.25963","1153361.15159","1154127.70469","1164938.23164","Mapping"
"Blocked","m160","cave","8","m160dime.wav","space","448.827503365","146","1162644.90266","1154894.45567","1155661.9768","1156428.80415","1157178.14831","1157944.5357","1158711.46198","1159478.33539","1163394.31763","1164161.38582","1164928.75298","1165695.27424","1166461.94885","1152594.25963","1153361.15159","1154127.70469","1165704.87905","Mapping"
"Blocked","m160","cave","8","m160park.wav","None","720.949300681","146","1162644.90266","1154894.45567","1155661.9768","1156428.80415","1157178.14831","1157944.5357","1158711.46198","1159478.33539","1163394.31763","1164161.38582","1164928.75298","1165695.27424","1166461.94885","1167210.81071","1153361.15159","1154127.70469","1166471.86407","Mapping"
"Blocked","m160","cave","8","m160cave.wav","None","736.20178923","146","1162644.90266","1154894.45567","1155661.9768","1156428.80415","1157178.14831","1157944.5357","1158711.46198","1159478.33539","1163394.31763","1164161.38582","1164928.75298","1165695.27424","1166461.94885","1167210.81071","1167977.97258","1154127.70469","1167219.97989","Mapping"
"Blocked","m160","cave","8","m160depth.wav","space","549.771937658","146","1162644.90266","1154894.45567","1155661.9768","1156428.80415","1157178.14831","1157944.5357","1158711.46198","1159478.33539","1163394.31763","1164161.38582","1164928.75298","1165695.27424","1166461.94885","1167210.81071","1167977.97258","1168744.46849","1167987.92551","Mapping"
"Blocked","m160","cave","8","m160cad.wav","None","729.567530332","146","1162644.90266","1169511.29181","1155661.9768","1156428.80415","1157178.14831","1157944.5357","1158711.46198","1159478.33539","1163394.31763","1164161.38582","1164928.75298","1165695.27424","1166461.94885","1167210.81071","1167977.97258","1168744.46849","1168753.38816","Mapping"
"Blocked","m160","cave","8","m160cave.wav","None","725.996877998","146","1162644.90266","1169511.29181","1170278.36031","1156428.80415","1157178.14831","1157944.5357","1158711.46198","1159478.33539","1163394.31763","1164161.38582","1164928.75298","1165695.27424","1166461.94885","1167210.81071","1167977.97258","1168744.46849","1169520.48634","Mapping"
"Blocked","m160","cave","8","m160priest.wav","space","425.387464813","146","1162644.90266","1169511.29181","1170278.36031","1171028.23347","1157178.14831","1157944.5357","1158711.46198","1159478.33539","1163394.31763","1164161.38582","1164928.75298","1165695.27424","1166461.94885","1167210.81071","1167977.97258","1168744.46849","1170288.25327","Mapping"
"Blocked","m160","cave","8","m160priest.wav","None","735.756887705","146","1162644.90266","1169511.29181","1170278.36031","1171028.23347","1171794.30829","1157944.5357","1158711.46198","1159478.33539","1163394.31763","1164161.38582","1164928.75298","1165695.27424","1166461.94885","1167210.81071","1167977.97258","1168744.46849","1171037.69513","Mapping"
"Blocked","m160","cave","8","m160cave.wav","None","733.935542754","146","1162644.90266","1169511.29181","1170278.36031","1171028.23347","1171794.30829","1172561.23179","1158711.46198","1159478.33539","1163394.31763","1164161.38582","1164928.75298","1165695.27424","1166461.94885","1167210.81071","1167977.97258","1168744.46849","1171803.24157","Mapping"
"Blocked","m160","cave","8","m160jaw.wav","space","494.678958203","146","1162644.90266","1169511.29181","1170278.36031","1171028.23347","1171794.30829","1172561.23179","1173327.96143","1159478.33539","1163394.31763","1164161.38582","1164928.75298","1165695.27424","1166461.94885","1167210.81071","1167977.97258","1168744.46849","1172570.93955","Mapping"
"Blocked","m160","cave","8","m160romp.wav","None","726.392930024","146","1162644.90266","1169511.29181","1170278.36031","1171028.23347","1171794.30829","1172561.23179","1173327.96143","1174094.43292","1163394.31763","1164161.38582","1164928.75298","1165695.27424","1166461.94885","1167210.81071","1167977.97258","1168744.46849","1173337.54243","Mapping"
"Blocked","m160","ball","4","m160jolt.wav","None","724.14523398","146","1177211.72803","1169511.29181","1170278.36031","1171028.23347","1171794.30829","1172561.23179","1173327.96143","1174094.43292","1163394.31763","1164161.38582","1164928.75298","1165695.27424","1166461.94885","1167210.81071","1167977.97258","1168744.46849","1174103.77894","Mapping"
"Blocked","m160","ball","4","m160ball.wav","None","719.375294982","146","1177211.72803","1169511.29181","1170278.36031","1171028.23347","1171794.30829","1172561.23179","1173327.96143","1174094.43292","1177961.07868","1164161.38582","1164928.75298","1165695.27424","1166461.94885","1167210.81071","1167977.97258","1168744.46849","1177221.25863","Mapping"
"Blocked","m160","ball","4","m160park.wav","space","383.041426539","146","1177211.72803","1169511.29181","1170278.36031","1171028.23347","1171794.30829","1172561.23179","1173327.96143","1174094.43292","1177961.07868","1178727.949","1164928.75298","1165695.27424","1166461.94885","1167210.81071","1167977.97258","1168744.46849","1177970.50479","Mapping"
"Blocked","m160","ball","4","m160gnash.wav","None","730.210921611","146","1177211.72803","1169511.29181","1170278.36031","1171028.23347","1171794.30829","1172561.23179","1173327.96143","1174094.43292","1177961.07868","1178727.949","1179494.35742","1165695.27424","1166461.94885","1167210.81071","1167977.97258","1168744.46849","1178737.43416","Mapping"
"Blocked","m160","ball","4","m160ball.wav","None","727.782977046","146","1177211.72803","1169511.29181","1170278.36031","1171028.23347","1171794.30829","1172561.23179","1173327.96143","1174094.43292","1177961.07868","1178727.949","1179494.35742","1180261.8501","1166461.94885","1167210.81071","1167977.97258","1168744.46849","1179503.60172","Mapping"
"Blocked","m160","ball","4","m160dime.wav","space","417.937604245","146","1177211.72803","1169511.29181","1170278.36031","1171028.23347","1171794.30829","1172561.23179","1173327.96143","1174094.43292","1177961.07868","1178727.949","1179494.35742","1180261.8501","1181028.22482","1167210.81071","1167977.97258","1168744.46849","1180271.56621","Mapping"
"Blocked","m160","ball","4","m160jolt.wav","None","720.159979071","146","1177211.72803","1169511.29181","1170278.36031","1171028.23347","1171794.30829","1172561.23179","1173327.96143","1174094.43292","1177961.07868","1178727.949","1179494.35742","1180261.8501","1181028.22482","1181777.64442","1167977.97258","1168744.46849","1181037.92608","Mapping"
"Blocked","m160","ball","4","m160ball.wav","None","734.674159787","146","1177211.72803","1169511.29181","1170278.36031","1171028.23347","1171794.30829","1172561.23179","1173327.96143","1174094.43292","1177961.07868","1178727.949","1179494.35742","1180261.8501","1181028.22482","1181777.64442","1182544.30698","1168744.46849","1181787.0934","Mapping"
"Blocked","m160","ball","4","m160reek.wav","space","423.209641944","146","1177211.72803","1169511.29181","1170278.36031","1171028.23347","1171794.30829","1172561.23179","1173327.96143","1174094.43292","1177961.07868","1178727.949","1179494.35742","1180261.8501","1181028.22482","1181777.64442","1182544.30698","1183311.16029","1182554.2494","Mapping"
"Blocked","m160","ball","4","m160reek.wav","None","728.142237407","146","1177211.72803","1184077.72824","1170278.36031","1171028.23347","1171794.30829","1172561.23179","1173327.96143","1174094.43292","1177961.07868","1178727.949","1179494.35742","1180261.8501","1181028.22482","1181777.64442","1182544.30698","1183311.16029","1183320.41851","Mapping"
"Blocked","m160","ball","4","m160priest.wav","None","725.520749809","146","1177211.72803","1184077.72824","1184844.89351","1171028.23347","1171794.30829","1172561.23179","1173327.96143","1174094.43292","1177961.07868","1178727.949","1179494.35742","1180261.8501","1181028.22482","1181777.64442","1182544.30698","1183311.16029","1184087.19299","Mapping"
"Blocked","m160","ball","4","m160lash.wav","None","721.765520517","146","1177211.72803","1184077.72824","1184844.89351","1185611.12291","1171794.30829","1172561.23179","1173327.96143","1174094.43292","1177961.07868","1178727.949","1179494.35742","1180261.8501","1181028.22482","1181777.64442","1182544.30698","1183311.16029","1184854.626","Mapping"
"Blocked","m160","ball","4","m160ball.wav","None","719.634382986","146","1177211.72803","1184077.72824","1184844.89351","1185611.12291","1186360.71472","1172561.23179","1173327.96143","1174094.43292","1177961.07868","1178727.949","1179494.35742","1180261.8501","1181028.22482","1181777.64442","1182544.30698","1183311.16029","1185620.48996","Mapping"
"Blocked","m160","ball","4","m160cave.wav","space","407.24234283","146","1177211.72803","1184077.72824","1184844.89351","1185611.12291","1186360.71472","1187127.51022","1173327.96143","1174094.43292","1177961.07868","1178727.949","1179494.35742","1180261.8501","1181028.22482","1181777.64442","1182544.30698","1183311.16029","1186370.15598","Mapping"
"Blocked","m160","ball","4","m160cling.wav","None","730.31511344","146","1177211.72803","1184077.72824","1184844.89351","1185611.12291","1186360.71472","1187127.51022","1187894.18576","1174094.43292","1177961.07868","1178727.949","1179494.35742","1180261.8501","1181028.22482","1181777.64442","1182544.30698","1183311.16029","1187136.70846","Mapping"
"Blocked","m160","ball","4","m160reek.wav","None","727.3458048","146","1177211.72803","1184077.72824","1184844.89351","1185611.12291","1186360.71472","1187127.51022","1187894.18576","1188661.51892","1177961.07868","1178727.949","1179494.35742","1180261.8501","1181028.22482","1181777.64442","1182544.30698","1183311.16029","1187903.37009","Mapping"
"Blocked","m160","done","24","m160cave.wav","None","722.976555699","146","1191777.91773","1184077.72824","1184844.89351","1185611.12291","1186360.71472","1187127.51022","1187894.18576","1188661.51892","1177961.07868","1178727.949","1179494.35742","1180261.8501","1181028.22482","1181777.64442","1182544.30698","1183311.16029","1188671.23595","Mapping"
"Blocked","m160","done","24","m160done.wav","None","719.517515157","146","1191777.91773","1184077.72824","1184844.89351","1185611.12291","1186360.71472","1187127.51022","1187894.18576","1188661.51892","1192527.42607","1178727.949","1179494.35742","1180261.8501","1181028.22482","1181777.64442","1182544.30698","1183311.16029","1191787.89262","Mapping"
"Blocked","m160","done","24","m160cad.wav","space","440.107555478","146","1191777.91773","1184077.72824","1184844.89351","1185611.12291","1186360.71472","1187127.51022","1187894.18576","1188661.51892","1192527.42607","1193294.23888","1179494.35742","1180261.8501","1181028.22482","1181777.64442","1182544.30698","1183311.16029","1192537.22225","Mapping"
"Blocked","m160","done","24","m160greet.wav","None","730.707455426","146","1191777.91773","1184077.72824","1184844.89351","1185611.12291","1186360.71472","1187127.51022","1187894.18576","1188661.51892","1192527.42607","1193294.23888","1194060.60277","1180261.8501","1181028.22482","1181777.64442","1182544.30698","1183311.16029","1193303.68601","Mapping"
"Blocked","m160","done","24","m160romp.wav","None","728.316302528","146","1191777.91773","1184077.72824","1184844.89351","1185611.12291","1186360.71472","1187127.51022","1187894.18576","1188661.51892","1192527.42607","1193294.23888","1194060.60277","1194827.01644","1181028.22482","1181777.64442","1182544.30698","1183311.16029","1194069.80534","Mapping"
"Blocked","m160","done","24","m160tile.wav","None","727.88933292","146","1191777.91773","1184077.72824","1184844.89351","1185611.12291","1186360.71472","1187127.51022","1187894.18576","1188661.51892","1192527.42607","1193294.23888","1194060.60277","1194827.01644","1195594.54654","1181777.64442","1182544.30698","1183311.16029","1194835.69867","Mapping"
"Blocked","m160","done","24","m160done.wav","None","723.461340647","146","1191777.91773","1184077.72824","1184844.89351","1185611.12291","1186360.71472","1187127.51022","1187894.18576","1188661.51892","1192527.42607","1193294.23888","1194060.60277","1194827.01644","1195594.54654","1196361.13551","1182544.30698","1183311.16029","1195604.30748","Mapping"
"Blocked","m160","done","24","m160cave.wav","space","349.620009423","146","1191777.91773","1184077.72824","1184844.89351","1185611.12291","1186360.71472","1187127.51022","1187894.18576","1188661.51892","1192527.42607","1193294.23888","1194060.60277","1194827.01644","1195594.54654","1196361.13551","1197110.69981","1183311.16029","1196371.66073","Mapping"
"Blocked","m160","done","24","m160park.wav","None","734.623455326","146","1191777.91773","1184077.72824","1184844.89351","1185611.12291","1186360.71472","1187127.51022","1187894.18576","1188661.51892","1192527.42607","1193294.23888","1194060.60277","1194827.01644","1195594.54654","1196361.13551","1197110.69981","1197877.50149","1197120.21773","Mapping"
"Blocked","m160","done","24","m160done.wav","None","731.51130823","146","1191777.91773","1198644.09386","1184844.89351","1185611.12291","1186360.71472","1187127.51022","1187894.18576","1188661.51892","1192527.42607","1193294.23888","1194060.60277","1194827.01644","1195594.54654","1196361.13551","1197110.69981","1197877.50149","1197887.08712","Mapping"
"Blocked","m160","done","24","m160lash.wav","space","403.695806046","146","1191777.91773","1198644.09386","1199410.79908","1185611.12291","1186360.71472","1187127.51022","1187894.18576","1188661.51892","1192527.42607","1193294.23888","1194060.60277","1194827.01644","1195594.54654","1196361.13551","1197110.69981","1197877.50149","1198653.54964","Mapping"
"Blocked","m160","done","24","m160jaw.wav","None","726.013882435","146","1191777.91773","1198644.09386","1199410.79908","1200177.81966","1186360.71472","1187127.51022","1187894.18576","1188661.51892","1192527.42607","1193294.23888","1194060.60277","1194827.01644","1195594.54654","1196361.13551","1197110.69981","1197877.50149","1199420.44748","Mapping"
"Blocked","m160","done","24","m160bluff.wav","None","722.541856696","146","1191777.91773","1198644.09386","1199410.79908","1200177.81966","1200944.12481","1187127.51022","1187894.18576","1188661.51892","1192527.42607","1193294.23888","1194060.60277","1194827.01644","1195594.54654","1196361.13551","1197110.69981","1197877.50149","1200187.57256","Mapping"
"Blocked","m160","done","24","m160cad.wav","None","720.469153137","146","1191777.91773","1198644.09386","1199410.79908","1200177.81966","1200944.12481","1201694.03322","1187894.18576","1188661.51892","1192527.42607","1193294.23888","1194060.60277","1194827.01644","1195594.54654","1196361.13551","1197110.69981","1197877.50149","1200953.42786","Mapping"
"Blocked","m160","done","24","m160done.wav","None","734.043135308","146","1191777.91773","1198644.09386","1199410.79908","1200177.81966","1200944.12481","1201694.03322","1202460.8213","1188661.51892","1192527.42607","1193294.23888","1194060.60277","1194827.01644","1195594.54654","1196361.13551","1197110.69981","1197877.50149","1201703.54589","Mapping"
"Blocked","m160","done","24","m160jolt.wav","space","426.977856667","146","1191777.91773","1198644.09386","1199410.79908","1200177.81966","1200944.12481","1201694.03322","1202460.8213","1203227.50487","1192527.42607","1193294.23888","1194060.60277","1194827.01644","1195594.54654","1196361.13551","1197110.69981","1197877.50149","1202470.1732","Mapping"
"Blocked","m160","done","20","m160priest.wav","None","727.109595784","146","1206361.01957","1198644.09386","1199410.79908","1200177.81966","1200944.12481","1201694.03322","1202460.8213","1203227.50487","1192527.42607","1193294.23888","1194060.60277","1194827.01644","1195594.54654","1196361.13551","1197110.69981","1197877.50149","1203237.37124","Mapping"
"Blocked","m160","done","20","m160done.wav","None","720.192751614","146","1206361.01957","1198644.09386","1199410.79908","1200177.81966","1200944.12481","1201694.03322","1202460.8213","1203227.50487","1207110.56253","1193294.23888","1194060.60277","1194827.01644","1195594.54654","1196361.13551","1197110.69981","1197877.50149","1206370.87604","Mapping"
"Blocked","m160","done","20","m160priest.wav","space","473.093964509","146","1206361.01957","1198644.09386","1199410.79908","1200177.81966","1200944.12481","1201694.03322","1202460.8213","1203227.50487","1207110.56253","1207877.13852","1194060.60277","1194827.01644","1195594.54654","1196361.13551","1197110.69981","1197877.50149","1207119.99915","Mapping"
"Blocked","m160","done","20","m160done.wav","None","731.793893385","146","1206361.01957","1198644.09386","1199410.79908","1200177.81966","1200944.12481","1201694.03322","1202460.8213","1203227.50487","1207110.56253","1207877.13852","1208643.88548","1194827.01644","1195594.54654","1196361.13551","1197110.69981","1197877.50149","1207886.36026","Mapping"
"Blocked","m160","done","20","m160bluff.wav","space","499.453225522","146","1206361.01957","1198644.09386","1199410.79908","1200177.81966","1200944.12481","1201694.03322","1202460.8213","1203227.50487","1207110.56253","1207877.13852","1208643.88548","1209410.40056","1195594.54654","1196361.13551","1197110.69981","1197877.50149","1208653.60901","Mapping"
"Blocked","m160","done","20","m160done.wav","None","725.237855338","146","1206361.01957","1198644.09386","1199410.79908","1200177.81966","1200944.12481","1201694.03322","1202460.8213","1203227.50487","1207110.56253","1207877.13852","1208643.88548","1209410.40056","1210177.73618","1196361.13551","1197110.69981","1197877.50149","1209419.8381","Mapping"
"Blocked","m160","done","20","m160cave.wav","space","477.355621057","146","1206361.01957","1198644.09386","1199410.79908","1200177.81966","1200944.12481","1201694.03322","1202460.8213","1203227.50487","1207110.56253","1207877.13852","1208643.88548","1209410.40056","1210177.73618","1210927.38643","1197110.69981","1197877.50149","1210187.66407","Mapping"
"Blocked","m160","done","20","m160dime.wav","None","736.301034223","146","1206361.01957","1198644.09386","1199410.79908","1200177.81966","1200944.12481","1201694.03322","1202460.8213","1203227.50487","1207110.56253","1207877.13852","1208643.88548","1209410.40056","1210177.73618","1210927.38643","1211693.26925","1197877.50149","1210936.50212","Mapping"
"Blocked","m160","done","20","m160reek.wav","space","376.522798673","146","1206361.01957","1198644.09386","1199410.79908","1200177.81966","1200944.12481","1201694.03322","1202460.8213","1203227.50487","1207110.56253","1207877.13852","1208643.88548","1209410.40056","1210177.73618","1210927.38643","1211693.26925","1212460.02054","1211696.46178","Mapping"
"Blocked","m160","done","20","m160lash.wav","None","732.725125854","146","1206361.01957","1213227.16509","1199410.79908","1200177.81966","1200944.12481","1201694.03322","1202460.8213","1203227.50487","1207110.56253","1207877.13852","1208643.88548","1209410.40056","1210177.73618","1210927.38643","1211693.26925","1212460.02054","1212468.92784","Mapping"
"Blocked","m160","done","20","m160jolt.wav","None","730.455169221","146","1206361.01957","1213227.16509","1213993.78003","1200177.81966","1200944.12481","1201694.03322","1202460.8213","1203227.50487","1207110.56253","1207877.13852","1208643.88548","1209410.40056","1210177.73618","1210927.38643","1211693.26925","1212460.02054","1213235.82351","Mapping"
"Blocked","m160","done","20","m160cave.wav","None","727.597472607","146","1206361.01957","1213227.16509","1213993.78003","1214760.61975","1200944.12481","1201694.03322","1202460.8213","1203227.50487","1207110.56253","1207877.13852","1208643.88548","1209410.40056","1210177.73618","1210927.38643","1211693.26925","1212460.02054","1214002.77731","Mapping"
"Blocked","m160","done","20","m160done.wav","None","724.297038396","146","1206361.01957","1213227.16509","1213993.78003","1214760.61975","1215527.55994","1201694.03322","1202460.8213","1203227.50487","1207110.56253","1207877.13852","1208643.88548","1209410.40056","1210177.73618","1210927.38643","1211693.26925","1212460.02054","1214769.88662","Mapping"
"Blocked","m160","done","20","m160dime.wav","space","495.765086962","146","1206361.01957","1213227.16509","1213993.78003","1214760.61975","1215527.55994","1216277.18669","1202460.8213","1203227.50487","1207110.56253","1207877.13852","1208643.88548","1209410.40056","1210177.73618","1210927.38643","1211693.26925","1212460.02054","1215537.23183","Mapping"
"Blocked","m160","done","20","m160lash.wav","None","734.744960675","146","1206361.01957","1213227.16509","1213993.78003","1214760.61975","1215527.55994","1216277.18669","1217043.81214","1203227.50487","1207110.56253","1207877.13852","1208643.88548","1209410.40056","1210177.73618","1210927.38643","1211693.26925","1212460.02054","1216286.69348","Mapping"
"Blocked","m160","done","20","m160romp.wav","None","732.132748351","146","1206361.01957","1213227.16509","1213993.78003","1214760.61975","1215527.55994","1216277.18669","1217043.81214","1217810.55292","1207110.56253","1207877.13852","1208643.88548","1209410.40056","1210177.73618","1210927.38643","1211693.26925","1212460.02054","1217053.14147","Mapping"
"Blocked","m160","tile","13","m160priest.wav","None","729.454681743","146","1220944.14181","1213227.16509","1213993.78003","1214760.61975","1215527.55994","1216277.18669","1217043.81214","1217810.55292","1207110.56253","1207877.13852","1208643.88548","1209410.40056","1210177.73618","1210927.38643","1211693.26925","1212460.02054","1217819.81207","Mapping"
"Blocked","m160","tile","13","m160jaw.wav","None","720.373000018","146","1220944.14181","1213227.16509","1213993.78003","1214760.61975","1215527.55994","1216277.18669","1217043.81214","1217810.55292","1221693.38086","1207877.13852","1208643.88548","1209410.40056","1210177.73618","1210927.38643","1211693.26925","1212460.02054","1220953.87493","Mapping"
"Blocked","m160","tile","13","m160ball.wav","None","735.68237666","146","1220944.14181","1213227.16509","1213993.78003","1214760.61975","1215527.55994","1216277.18669","1217043.81214","1217810.55292","1221693.38086","1222460.07681","1208643.88548","1209410.40056","1210177.73618","1210927.38643","1211693.26925","1212460.02054","1221702.46069","Mapping"
"Blocked","m160","tile","13","m160jaw.wav","None","733.291223762","146","1220944.14181","1213227.16509","1213993.78003","1214760.61975","1215527.55994","1216277.18669","1217043.81214","1217810.55292","1221693.38086","1222460.07681","1223227.17715","1209410.40056","1210177.73618","1210927.38643","1211693.26925","1212460.02054","1222468.77171","Mapping"
"Blocked","m160","tile","13","m160greet.wav","None","729.278761661","146","1220944.14181","1213227.16509","1213993.78003","1214760.61975","1215527.55994","1216277.18669","1217043.81214","1217810.55292","1221693.38086","1222460.07681","1223227.17715","1223993.72686","1210177.73618","1210927.38643","1211693.26925","1212460.02054","1223236.70064","Mapping"
"Blocked","m160","tile","13","m160cave.wav","None","726.892864681","146","1220944.14181","1213227.16509","1213993.78003","1214760.61975","1215527.55994","1216277.18669","1217043.81214","1217810.55292","1221693.38086","1222460.07681","1223227.17715","1223993.72686","1224760.91284","1210927.38643","1211693.26925","1212460.02054","1224003.09638","Mapping"
"Blocked","m160","tile","13","m160tile.wav","None","722.591633792","146","1220944.14181","1213227.16509","1213993.78003","1214760.61975","1215527.55994","1216277.18669","1217043.81214","1217810.55292","1221693.38086","1222460.07681","1223227.17715","1223993.72686","1224760.91284","1225527.4069","1211693.26925","1212460.02054","1224771.16722","Mapping"
"Blocked","m160","tile","13","m160jaw.wav","space","543.677496724","146","1220944.14181","1213227.16509","1213993.78003","1214760.61975","1215527.55994","1216277.18669","1217043.81214","1217810.55292","1221693.38086","1222460.07681","1223227.17715","1223993.72686","1224760.91284","1225527.4069","1226276.64502","1212460.02054","1225537.12919","Mapping"
"Blocked","m160","tile","13","m160tile.wav","None","735.497799818","146","1220944.14181","1213227.16509","1213993.78003","1214760.61975","1215527.55994","1216277.18669","1217043.81214","1217810.55292","1221693.38086","1222460.07681","1223227.17715","1223993.72686","1224760.91284","1225527.4069","1226276.64502","1227043.6625","1226285.84789","Mapping"
"Blocked","m160","tile","13","m160jaw.wav","space","556.087747333","146","1220944.14181","1227810.40668","1213993.78003","1214760.61975","1215527.55994","1216277.18669","1217043.81214","1217810.55292","1221693.38086","1222460.07681","1223227.17715","1223993.72686","1224760.91284","1225527.4069","1226276.64502","1227043.6625","1227052.72038","Mapping"
"Blocked","m160","tile","13","m160depth.wav","None","728.928776458","146","1220944.14181","1227810.40668","1228576.79314","1214760.61975","1215527.55994","1216277.18669","1217043.81214","1217810.55292","1221693.38086","1222460.07681","1223227.17715","1223993.72686","1224760.91284","1225527.4069","1226276.64502","1227043.6625","1227819.70293","Mapping"
"Blocked","m160","tile","13","m160tile.wav","None","726.535459398","146","1220944.14181","1227810.40668","1228576.79314","1229343.94635","1215527.55994","1216277.18669","1217043.81214","1217810.55292","1221693.38086","1222460.07681","1223227.17715","1223993.72686","1224760.91284","1225527.4069","1226276.64502","1227043.6625","1228586.15524","Mapping"
"Blocked","m160","tile","13","m160dime.wav","space","542.53849911","146","1220944.14181","1227810.40668","1228576.79314","1229343.94635","1230110.77463","1216277.18669","1217043.81214","1217810.55292","1221693.38086","1222460.07681","1223227.17715","1223993.72686","1224760.91284","1225527.4069","1226276.64502","1227043.6625","1229354.2233","Mapping"
"Blocked","m160","tile","13","m160priest.wav","None","719.699618756","146","1220944.14181","1227810.40668","1228576.79314","1229343.94635","1230110.77463","1230860.27461","1217043.81214","1217810.55292","1221693.38086","1222460.07681","1223227.17715","1223993.72686","1224760.91284","1225527.4069","1226276.64502","1227043.6625","1230120.30647","Mapping"
"Blocked","m160","tile","13","m160tile.wav","None","734.351381892","146","1220944.14181","1227810.40668","1228576.79314","1229343.94635","1230110.77463","1230860.27461","1231627.08434","1217810.55292","1221693.38086","1222460.07681","1223227.17715","1223993.72686","1224760.91284","1225527.4069","1226276.64502","1227043.6625","1230869.67505","Mapping"
"Blocked","m160","tile","13","m160depth.wav","space","540.368405753","146","1220944.14181","1227810.40668","1228576.79314","1229343.94635","1230110.77463","1230860.27461","1231627.08434","1232393.55366","1221693.38086","1222460.07681","1223227.17715","1223993.72686","1224760.91284","1225527.4069","1226276.64502","1227043.6625","1231636.37626","Mapping"
"Blocked","m160","tile","16","m160cad.wav","None","728.970824159","146","1235527.34692","1227810.40668","1228576.79314","1229343.94635","1230110.77463","1230860.27461","1231627.08434","1232393.55366","1221693.38086","1222460.07681","1223227.17715","1223993.72686","1224760.91284","1225527.4069","1226276.64502","1227043.6625","1232402.61493","Mapping"
"Blocked","m160","tile","16","m160reek.wav","None","720.257987268","146","1235527.34692","1227810.40668","1228576.79314","1229343.94635","1230110.77463","1230860.27461","1231627.08434","1232393.55366","1236276.85278","1222460.07681","1223227.17715","1223993.72686","1224760.91284","1225527.4069","1226276.64502","1227043.6625","1235536.73252","Mapping"
"Blocked","m160","tile","16","m160lash.wav","None","734.6874543","146","1235527.34692","1227810.40668","1228576.79314","1229343.94635","1230110.77463","1230860.27461","1231627.08434","1232393.55366","1236276.85278","1237043.55831","1223227.17715","1223993.72686","1224760.91284","1225527.4069","1226276.64502","1227043.6625","1236286.46191","Mapping"
"Blocked","m160","tile","16","m160tile.wav","None","732.534674695","146","1235527.34692","1227810.40668","1228576.79314","1229343.94635","1230110.77463","1230860.27461","1231627.08434","1232393.55366","1236276.85278","1237043.55831","1237810.23942","1223993.72686","1224760.91284","1225527.4069","1226276.64502","1227043.6625","1237052.57197","Mapping"
"Blocked","m160","tile","16","m160reek.wav","space","437.154942309","146","1235527.34692","1227810.40668","1228576.79314","1229343.94635","1230110.77463","1230860.27461","1231627.08434","1232393.55366","1236276.85278","1237043.55831","1237810.23942","1238577.11994","1224760.91284","1225527.4069","1226276.64502","1227043.6625","1237819.51619","Mapping"
"Blocked","m160","tile","16","m160gnash.wav","None","725.747065269","146","1235527.34692","1227810.40668","1228576.79314","1229343.94635","1230110.77463","1230860.27461","1231627.08434","1232393.55366","1236276.85278","1237043.55831","1237810.23942","1238577.11994","1239343.84587","1225527.4069","1226276.64502","1227043.6625","1238586.90746","Mapping"
"Blocked","m160","tile","16","m160romp.wav","None","723.161750939","146","1235527.34692","1227810.40668","1228576.79314","1229343.94635","1230110.77463","1230860.27461","1231627.08434","1232393.55366","1236276.85278","1237043.55831","1237810.23942","1238577.11994","1239343.84587","1240110.42248","1226276.64502","1227043.6625","1239353.64082","Mapping"
"Blocked","m160","tile","16","m160park.wav","None","720.551084378","146","1235527.34692","1227810.40668","1228576.79314","1229343.94635","1230110.77463","1230860.27461","1231627.08434","1232393.55366","1236276.85278","1237043.55831","1237810.23942","1238577.11994","1239343.84587","1240110.42248","1240860.34078","1227043.6625","1240120.30894","Mapping"
"Blocked","m160","tile","16","m160tile.wav","None","735.424216371","146","1235527.34692","1227810.40668","1228576.79314","1229343.94635","1230110.77463","1230860.27461","1231627.08434","1232393.55366","1236276.85278","1237043.55831","1237810.23942","1238577.11994","1239343.84587","1240110.42248","1240860.34078","1241626.94459","1240869.4846","Mapping"
"Blocked","m160","tile","16","m160ball.wav","space","468.196336646","146","1235527.34692","1242393.3428","1228576.79314","1229343.94635","1230110.77463","1230860.27461","1231627.08434","1232393.55366","1236276.85278","1237043.55831","1237810.23942","1238577.11994","1239343.84587","1240110.42248","1240860.34078","1241626.94459","1241636.38028","Mapping"
"Blocked","m160","tile","16","m160tile.wav","None","730.287287734","146","1235527.34692","1242393.3428","1243160.14325","1229343.94635","1230110.77463","1230860.27461","1231627.08434","1232393.55366","1236276.85278","1237043.55831","1237810.23942","1238577.11994","1239343.84587","1240110.42248","1240860.34078","1241626.94459","1242402.37872","Mapping"
"Blocked","m160","tile","16","m160reek.wav","space","487.009584089","146","1235527.34692","1242393.3428","1243160.14325","1243926.93967","1230110.77463","1230860.27461","1231627.08434","1232393.55366","1236276.85278","1237043.55831","1237810.23942","1238577.11994","1239343.84587","1240110.42248","1240860.34078","1241626.94459","1243169.54709","Mapping"
"Blocked","m160","tile","16","m160tile.wav","None","723.738360801","146","1235527.34692","1242393.3428","1243160.14325","1243926.93967","1244693.66901","1230860.27461","1231627.08434","1232393.55366","1236276.85278","1237043.55831","1237810.23942","1238577.11994","1239343.84587","1240110.42248","1240860.34078","1241626.94459","1243936.38525","Mapping"
"Blocked","m160","tile","16","m160park.wav","space","561.11831998","146","1235527.34692","1242393.3428","1243160.14325","1243926.93967","1244693.66901","1245443.11427","1231627.08434","1232393.55366","1236276.85278","1237043.55831","1237810.23942","1238577.11994","1239343.84587","1240110.42248","1240860.34078","1241626.94459","1244703.40459","Mapping"
"Blocked","m160","tile","16","m160cad.wav","None","735.360526363","146","1235527.34692","1242393.3428","1243160.14325","1243926.93967","1244693.66901","1245443.11427","1246210.09899","1232393.55366","1236276.85278","1237043.55831","1237810.23942","1238577.11994","1239343.84587","1240110.42248","1240860.34078","1241626.94459","1245452.36105","Mapping"
"Blocked","m160","tile","16","m160dime.wav","None","732.297538081","146","1235527.34692","1242393.3428","1243160.14325","1243926.93967","1244693.66901","1245443.11427","1246210.09899","1246976.52997","1236276.85278","1237043.55831","1237810.23942","1238577.11994","1239343.84587","1240110.42248","1240860.34078","1241626.94459","1246219.50963","Mapping"
"Blocked","m160","cave","10","m160depth.wav","None","730.326862074","146","1250110.32972","1242393.3428","1243160.14325","1243926.93967","1244693.66901","1245443.11427","1246210.09899","1246976.52997","1236276.85278","1237043.55831","1237810.23942","1238577.11994","1239343.84587","1240110.42248","1240860.34078","1241626.94459","1246985.5155","Mapping"
"Blocked","m160","cave","10","m160done.wav","None","719.53359223","146","1250110.32972","1242393.3428","1243160.14325","1243926.93967","1244693.66901","1245443.11427","1246210.09899","1246976.52997","1250859.80714","1237043.55831","1237810.23942","1238577.11994","1239343.84587","1240110.42248","1240860.34078","1241626.94459","1250120.17414","Mapping"
"Blocked","m160","cave","10","m160knife.wav","None","735.042386223","146","1250110.32972","1242393.3428","1243160.14325","1243926.93967","1244693.66901","1245443.11427","1246210.09899","1246976.52997","1250859.80714","1251626.36427","1237810.23942","1238577.11994","1239343.84587","1240110.42248","1240860.34078","1241626.94459","1250868.53451","Mapping"
"Blocked","m160","cave","10","m160cad.wav","None","733.149312902","146","1250110.32972","1242393.3428","1243160.14325","1243926.93967","1244693.66901","1245443.11427","1246210.09899","1246976.52997","1250859.80714","1251626.36427","1252393.27014","1238577.11994","1239343.84587","1240110.42248","1240860.34078","1241626.94459","1251635.21964","Mapping"
"Blocked","m160","cave","10","m160lash.wav","None","730.31882348","146","1250110.32972","1242393.3428","1243160.14325","1243926.93967","1244693.66901","1245443.11427","1246210.09899","1246976.52997","1250859.80714","1251626.36427","1252393.27014","1253160.04771","1239343.84587","1240110.42248","1240860.34078","1241626.94459","1252402.04482","Mapping"
"Blocked","m160","cave","10","m160gnash.wav","None","727.832754026","146","1250110.32972","1242393.3428","1243160.14325","1243926.93967","1244693.66901","1245443.11427","1246210.09899","1246976.52997","1250859.80714","1251626.36427","1252393.27014","1253160.04771","1253926.40882","1240110.42248","1240860.34078","1241626.94459","1253169.39652","Mapping"
"Blocked","m160","cave","10","m160cave.wav","None","725.779837696","146","1250110.32972","1242393.3428","1243160.14325","1243926.93967","1244693.66901","1245443.11427","1246210.09899","1246976.52997","1250859.80714","1251626.36427","1252393.27014","1253160.04771","1253926.40882","1254693.56729","1240860.34078","1241626.94459","1253935.258","Mapping"
"Blocked","m160","cave","10","m160cling.wav","space","448.973742779","146","1250110.32972","1242393.3428","1243160.14325","1243926.93967","1244693.66901","1245443.11427","1246210.09899","1246976.52997","1250859.80714","1251626.36427","1252393.27014","1253160.04771","1253926.40882","1254693.56729","1255443.39902","1241626.94459","1254703.38945","Mapping"
"Blocked","m160","cave","10","m160cave.wav","None","735.136375064","146","1250110.32972","1242393.3428","1243160.14325","1243926.93967","1244693.66901","1245443.11427","1246210.09899","1246976.52997","1250859.80714","1251626.36427","1252393.27014","1253160.04771","1253926.40882","1254693.56729","1255443.39902","1256209.92832","1255453.26477","Mapping"
"Blocked","m160","cave","10","m160romp.wav","space","541.060646647","146","1250110.32972","1256976.68549","1243160.14325","1243926.93967","1244693.66901","1245443.11427","1246210.09899","1246976.52997","1250859.80714","1251626.36427","1252393.27014","1253160.04771","1253926.40882","1254693.56729","1255443.39902","1256209.92832","1256219.29166","Mapping"
"Blocked","m160","cave","10","m160lash.wav","None","729.587626643","146","1250110.32972","1256976.68549","1257743.1749","1243926.93967","1244693.66901","1245443.11427","1246210.09899","1246976.52997","1250859.80714","1251626.36427","1252393.27014","1253160.04771","1253926.40882","1254693.56729","1255443.39902","1256209.92832","1256986.02935","Mapping"
"Blocked","m160","cave","10","m160cave.wav","None","727.518324042","146","1250110.32972","1256976.68549","1257743.1749","1258510.2635","1244693.66901","1245443.11427","1246210.09899","1246976.52997","1250859.80714","1251626.36427","1252393.27014","1253160.04771","1253926.40882","1254693.56729","1255443.39902","1256209.92832","1257752.13508","Mapping"
"Blocked","m160","cave","10","m160cad.wav","space","464.306616574","146","1250110.32972","1256976.68549","1257743.1749","1258510.2635","1259277.01324","1245443.11427","1246210.09899","1246976.52997","1250859.80714","1251626.36427","1252393.27014","1253160.04771","1253926.40882","1254693.56729","1255443.39902","1256209.92832","1258520.03217","Mapping"
"Blocked","m160","cave","10","m160cave.wav","None","719.589861925","146","1250110.32972","1256976.68549","1257743.1749","1258510.2635","1259277.01324","1260026.40471","1246210.09899","1246976.52997","1250859.80714","1251626.36427","1252393.27014","1253160.04771","1253926.40882","1254693.56729","1255443.39902","1256209.92832","1259287.24474","Mapping"
"Blocked","m160","cave","10","m160jolt.wav","space","524.50251556","146","1250110.32972","1256976.68549","1257743.1749","1258510.2635","1259277.01324","1260026.40471","1260793.12075","1246976.52997","1250859.80714","1251626.36427","1252393.27014","1253160.04771","1253926.40882","1254693.56729","1255443.39902","1256209.92832","1260035.80453","Mapping"
"Blocked","m160","cave","10","m160depth.wav","None","731.924674124","146","1250110.32972","1256976.68549","1257743.1749","1258510.2635","1259277.01324","1260026.40471","1260793.12075","1261559.92584","1250859.80714","1251626.36427","1252393.27014","1253160.04771","1253926.40882","1254693.56729","1255443.39902","1256209.92832","1260802.31157","Mapping"
"Blocked","m160","ball","6","m160cad.wav","None","729.149835999","146","1264693.44857","1256976.68549","1257743.1749","1258510.2635","1259277.01324","1260026.40471","1260793.12075","1261559.92584","1250859.80714","1251626.36427","1252393.27014","1253160.04771","1253926.40882","1254693.56729","1255443.39902","1256209.92832","1261569.25578","Mapping"
"Blocked","m160","ball","6","m160park.wav","None","719.870901317","146","1264693.44857","1256976.68549","1257743.1749","1258510.2635","1259277.01324","1260026.40471","1260793.12075","1261559.92584","1265442.84127","1251626.36427","1252393.27014","1253160.04771","1253926.40882","1254693.56729","1255443.39902","1256209.92832","1264703.51033","Mapping"
"Blocked","m160","ball","6","m160depth.wav","None","735.529335565","146","1264693.44857","1256976.68549","1257743.1749","1258510.2635","1259277.01324","1260026.40471","1260793.12075","1261559.92584","1265442.84127","1266210.00314","1252393.27014","1253160.04771","1253926.40882","1254693.56729","1255443.39902","1256209.92832","1265452.14371","Mapping"
"Blocked","m160","ball","6","m160lash.wav","None","732.64072137","146","1264693.44857","1256976.68549","1257743.1749","1258510.2635","1259277.01324","1260026.40471","1260793.12075","1261559.92584","1265442.84127","1266210.00314","1266976.41836","1253160.04771","1253926.40882","1254693.56729","1255443.39902","1256209.92832","1266219.15439","Mapping"
"Blocked","m160","ball","6","m160ball.wav","None","730.276157497","146","1264693.44857","1256976.68549","1257743.1749","1258510.2635","1259277.01324","1260026.40471","1260793.12075","1261559.92584","1265442.84127","1266210.00314","1266976.41836","1267742.90778","1253926.40882","1254693.56729","1255443.39902","1256209.92832","1266985.66143","Mapping"
"Blocked","m160","ball","6","m160cad.wav","space","440.360150766","146","1264693.44857","1256976.68549","1257743.1749","1258510.2635","1259277.01324","1260026.40471","1260793.12075","1261559.92584","1265442.84127","1266210.00314","1266976.41836","1267742.90778","1268510.14911","1254693.56729","1255443.39902","1256209.92832","1267751.82158","Mapping"
"Blocked","m160","ball","6","m160ball.wav","None","723.853373434","146","1264693.44857","1256976.68549","1257743.1749","1258510.2635","1259277.01324","1260026.40471","1260793.12075","1261559.92584","1265442.84127","1266210.00314","1266976.41836","1267742.90778","1268510.14911","1269277.01633","1255443.39902","1256209.92832","1268519.64261","Mapping"
"Blocked","m160","ball","6","m160park.wav","space","409.274235251","146","1264693.44857","1256976.68549","1257743.1749","1258510.2635","1259277.01324","1260026.40471","1260793.12075","1261559.92584","1265442.84127","1266210.00314","1266976.41836","1267742.90778","1268510.14911","1269277.01633","1270026.03123","1256209.92832","1269286.94392","Mapping"
"Blocked","m160","ball","6","m160romp.wav","None","736.267025","146","1264693.44857","1256976.68549","1257743.1749","1258510.2635","1259277.01324","1260026.40471","1260793.12075","1261559.92584","1265442.84127","1266210.00314","1266976.41836","1267742.90778","1268510.14911","1269277.01633","1270026.03123","1270793.01656","1270034.97223","Mapping"
"Blocked","m160","ball","6","m160bluff.wav","None","732.747386559","146","1264693.44857","1271559.74528","1257743.1749","1258510.2635","1259277.01324","1260026.40471","1260793.12075","1261559.92584","1265442.84127","1266210.00314","1266976.41836","1267742.90778","1268510.14911","1269277.01633","1270026.03123","1270793.01656","1270802.58024","Mapping"
"Blocked","m160","ball","6","m160cave.wav","None","730.552559136","146","1264693.44857","1271559.74528","1272326.54789","1258510.2635","1259277.01324","1260026.40471","1260793.12075","1261559.92584","1265442.84127","1266210.00314","1266976.41836","1267742.90778","1268510.14911","1269277.01633","1270026.03123","1270793.01656","1271569.00968","Mapping"
"Blocked","m160","ball","6","m160ball.wav","None","727.714031236","146","1264693.44857","1271559.74528","1272326.54789","1273092.96465","1259277.01324","1260026.40471","1260793.12075","1261559.92584","1265442.84127","1266210.00314","1266976.41836","1267742.90778","1268510.14911","1269277.01633","1270026.03123","1270793.01656","1272336.07756","Mapping"
"Blocked","m160","ball","6","m160dime.wav","space","378.12679424","146","1264693.44857","1271559.74528","1272326.54789","1273092.96465","1273860.20412","1260026.40471","1260793.12075","1261559.92584","1265442.84127","1266210.00314","1266976.41836","1267742.90778","1268510.14911","1269277.01633","1270026.03123","1270793.01656","1273101.98573","Mapping"
"Blocked","m160","ball","6","m160ball.wav","None","721.643087454","146","1264693.44857","1271559.74528","1272326.54789","1273092.96465","1273860.20412","1274626.88183","1260793.12075","1261559.92584","1265442.84127","1266210.00314","1266976.41836","1267742.90778","1268510.14911","1269277.01633","1270026.03123","1270793.01656","1273870.03803","Mapping"
"Blocked","m160","ball","6","m160gnash.wav","space","387.222388643","146","1264693.44857","1271559.74528","1272326.54789","1273092.96465","1273860.20412","1274626.88183","1275376.11469","1261559.92584","1265442.84127","1266210.00314","1266976.41836","1267742.90778","1268510.14911","1269277.01633","1270026.03123","1270793.01656","1274636.86908","Mapping"
"Blocked","m160","ball","6","m160priest.wav","None","733.857630868","146","1264693.44857","1271559.74528","1272326.54789","1273092.96465","1273860.20412","1274626.88183","1275376.11469","1276142.93616","1265442.84127","1266210.00314","1266976.41836","1267742.90778","1268510.14911","1269277.01633","1270026.03123","1270793.01656","1275385.66261","Mapping"
"Blocked","m160","tile","15","m160priest.wav","None","731.452565175","146","1279276.80115","1271559.74528","1272326.54789","1273092.96465","1273860.20412","1274626.88183","1275376.11469","1276142.93616","1265442.84127","1266210.00314","1266976.41836","1267742.90778","1268510.14911","1269277.01633","1270026.03123","1270793.01656","1276152.27167","Mapping"
"Blocked","m160","tile","15","m160tile.wav","None","720.049603959","146","1279276.80115","1271559.74528","1272326.54789","1273092.96465","1273860.20412","1274626.88183","1275376.11469","1276142.93616","1280025.81202","1266210.00314","1266976.41836","1267742.90778","1268510.14911","1269277.01633","1270026.03123","1270793.01656","1279286.26899","Mapping"
"Blocked","m160","tile","15","m160depth.wav","space","509.1452169","146","1279276.80115","1271559.74528","1272326.54789","1273092.96465","1273860.20412","1274626.88183","1275376.11469","1276142.93616","1280025.81202","1280792.91731","1266976.41836","1267742.90778","1268510.14911","1269277.01633","1270026.03123","1270793.01656","1280034.85629","Mapping"
"Blocked","m160","tile","15","m160gnash.wav","None","732.231065631","146","1279276.80115","1271559.74528","1272326.54789","1273092.96465","1273860.20412","1274626.88183","1275376.11469","1276142.93616","1280025.81202","1280792.91731","1281559.56627","1267742.90778","1268510.14911","1269277.01633","1270026.03123","1270793.01656","1280801.90253","Mapping"
"Blocked","m160","tile","15","m160cad.wav","None","729.41325244","146","1279276.80115","1271559.74528","1272326.54789","1273092.96465","1273860.20412","1274626.88183","1275376.11469","1276142.93616","1280025.81202","1280792.91731","1281559.56627","1282326.30673","1268510.14911","1269277.01633","1270026.03123","1270793.01656","1281568.95929","Mapping"
"Blocked","m160","tile","15","m160tile.wav","None","726.819899632","146","1279276.80115","1271559.74528","1272326.54789","1273092.96465","1273860.20412","1274626.88183","1275376.11469","1276142.93616","1280025.81202","1280792.91731","1281559.56627","1282326.30673","1283092.64651","1269277.01633","1270026.03123","1270793.01656","1282335.8967","Mapping"
"Blocked","m160","tile","15","m160reek.wav","space","378.403505078","146","1279276.80115","1271559.74528","1272326.54789","1273092.96465","1273860.20412","1274626.88183","1275376.11469","1276142.93616","1280025.81202","1280792.91731","1281559.56627","1282326.30673","1283092.64651","1283860.11601","1270026.03123","1270793.01656","1283101.58071","Mapping"
"Blocked","m160","tile","15","m160ball.wav","None","720.956720877","146","1279276.80115","1271559.74528","1272326.54789","1273092.96465","1273860.20412","1274626.88183","1275376.11469","1276142.93616","1280025.81202","1280792.91731","1281559.56627","1282326.30673","1283092.64651","1283860.11601","1284626.56554","1270793.01656","1283869.51985","Mapping"
"Blocked","m160","tile","15","m160bluff.wav","None","718.350691954","146","1279276.80115","1271559.74528","1272326.54789","1273092.96465","1273860.20412","1274626.88183","1275376.11469","1276142.93616","1280025.81202","1280792.91731","1281559.56627","1282326.30673","1283092.64651","1283860.11601","1284626.56554","1285376.10201","1284636.6811","Mapping"
"Blocked","m160","tile","15","m160dime.wav","None","733.697787859","146","1279276.80115","1286142.74602","1272326.54789","1273092.96465","1273860.20412","1274626.88183","1275376.11469","1276142.93616","1280025.81202","1280792.91731","1281559.56627","1282326.30673","1283092.64651","1283860.11601","1284626.56554","1285376.10201","1285385.89603","Mapping"
"Blocked","m160","tile","15","m160tile.wav","None","732.542403974","146","1279276.80115","1286142.74602","1286909.24285","1273092.96465","1273860.20412","1274626.88183","1275376.11469","1276142.93616","1280025.81202","1280792.91731","1281559.56627","1282326.30673","1283092.64651","1283860.11601","1284626.56554","1285376.10201","1286151.83203","Mapping"
"Blocked","m160","tile","15","m160greet.wav","space","537.789274938","146","1279276.80115","1286142.74602","1286909.24285","1287676.25663","1273860.20412","1274626.88183","1275376.11469","1276142.93616","1280025.81202","1280792.91731","1281559.56627","1282326.30673","1283092.64651","1283860.11601","1284626.56554","1285376.10201","1286918.13656","Mapping"
"Blocked","m160","tile","15","m160tile.wav","None","726.298941066","146","1279276.80115","1286142.74602","1286909.24285","1287676.25663","1288442.84684","1274626.88183","1275376.11469","1276142.93616","1280025.81202","1280792.91731","1281559.56627","1282326.30673","1283092.64651","1283860.11601","1284626.56554","1285376.10201","1287685.81691","Mapping"
"Blocked","m160","tile","15","m160depth.wav","space","531.985457754","146","1279276.80115","1286142.74602","1286909.24285","1287676.25663","1288442.84684","1289209.83248","1275376.11469","1276142.93616","1280025.81202","1280792.91731","1281559.56627","1282326.30673","1283092.64651","1283860.11601","1284626.56554","1285376.10201","1288451.89389","Mapping"
"Blocked","m160","tile","15","m160done.wav","None","720.101854415","146","1279276.80115","1286142.74602","1286909.24285","1287676.25663","1288442.84684","1289209.83248","1289959.27094","1276142.93616","1280025.81202","1280792.91731","1281559.56627","1282326.30673","1283092.64651","1283860.11601","1284626.56554","1285376.10201","1289219.82159","Mapping"
"Blocked","m160","tile","15","m160knife.wav","None","735.636309721","146","1279276.80115","1286142.74602","1286909.24285","1287676.25663","1288442.84684","1289209.83248","1289959.27094","1290726.06644","1280025.81202","1280792.91731","1281559.56627","1282326.30673","1283092.64651","1283860.11601","1284626.56554","1285376.10201","1289968.67633","Mapping"
"Blocked","m160","cave","12","m160bluff.wav","None","733.332034783","146","1293859.05647","1286142.74602","1286909.24285","1287676.25663","1288442.84684","1289209.83248","1289959.27094","1290726.06644","1280025.81202","1280792.91731","1281559.56627","1282326.30673","1283092.64651","1283860.11601","1284626.56554","1285376.10201","1290735.33517","Mapping"
"Blocked","m160","cave","12","m160cave.wav","None","723.352202214","146","1293859.05647","1286142.74602","1286909.24285","1287676.25663","1288442.84684","1289209.83248","1289959.27094","1290726.06644","1294626.07859","1280792.91731","1281559.56627","1282326.30673","1283092.64651","1283860.11601","1284626.56554","1285376.10201","1293867.90349","Mapping"
"Blocked","m160","cave","12","m160jaw.wav","space","436.667993083","146","1293859.05647","1286142.74602","1286909.24285","1287676.25663","1288442.84684","1289209.83248","1289959.27094","1290726.06644","1294626.07859","1295376.02812","1281559.56627","1282326.30673","1283092.64651","1283860.11601","1284626.56554","1285376.10201","1294635.15224","Mapping"
"Blocked","m160","cave","12","m160lash.wav","None","733.117777156","146","1293859.05647","1286142.74602","1286909.24285","1287676.25663","1288442.84684","1289209.83248","1289959.27094","1290726.06644","1294626.07859","1295376.02812","1296142.59545","1282326.30673","1283092.64651","1283860.11601","1284626.56554","1285376.10201","1295385.87532","Mapping"
"Blocked","m160","cave","12","m160jolt.wav","None","731.286538648","146","1293859.05647","1286142.74602","1286909.24285","1287676.25663","1288442.84684","1289209.83248","1289959.27094","1290726.06644","1294626.07859","1295376.02812","1296142.59545","1296909.3894","1283092.64651","1283860.11601","1284626.56554","1285376.10201","1296152.07164","Mapping"
"Blocked","m160","cave","12","m160romp.wav","None","728.995249025","146","1293859.05647","1286142.74602","1286909.24285","1287676.25663","1288442.84684","1289209.83248","1289959.27094","1290726.06644","1294626.07859","1295376.02812","1296142.59545","1296909.3894","1297676.06","1283860.11601","1284626.56554","1285376.10201","1296918.64639","Mapping"
"Blocked","m160","cave","12","m160knife.wav","None","726.980979322","146","1293859.05647","1286142.74602","1286909.24285","1287676.25663","1288442.84684","1289209.83248","1289959.27094","1290726.06644","1294626.07859","1295376.02812","1296142.59545","1296909.3894","1297676.06","1298442.5522","1284626.56554","1285376.10201","1297685.65645","Mapping"
"Blocked","m160","cave","12","m160cave.wav","None","724.913840881","146","1293859.05647","1286142.74602","1286909.24285","1287676.25663","1288442.84684","1289209.83248","1289959.27094","1290726.06644","1294626.07859","1295376.02812","1296142.59545","1296909.3894","1297676.06","1298442.5522","1299209.5904","1285376.10201","1298452.10413","Mapping"
"Blocked","m160","cave","12","m160gnash.wav","space","436.189700617","146","1293859.05647","1286142.74602","1286909.24285","1287676.25663","1288442.84684","1289209.83248","1289959.27094","1290726.06644","1294626.07859","1295376.02812","1296142.59545","1296909.3894","1297676.06","1298442.5522","1299209.5904","1299959.17201","1299219.54921","Mapping"
"Blocked","m160","cave","12","m160greet.wav","None","734.178244486","146","1293859.05647","1300726.10725","1286909.24285","1287676.25663","1288442.84684","1289209.83248","1289959.27094","1290726.06644","1294626.07859","1295376.02812","1296142.59545","1296909.3894","1297676.06","1298442.5522","1299209.5904","1299959.17201","1299970.3839","Mapping"
"Blocked","m160","cave","12","m160cave.wav","None","733.409946668","146","1293859.05647","1300726.10725","1301492.5741","1287676.25663","1288442.84684","1289209.83248","1289959.27094","1290726.06644","1294626.07859","1295376.02812","1296142.59545","1296909.3894","1297676.06","1298442.5522","1299209.5904","1299959.17201","1300735.55005","Mapping"
"Blocked","m160","cave","12","m160park.wav","space","561.514681322","146","1293859.05647","1300726.10725","1301492.5741","1302259.27345","1288442.84684","1289209.83248","1289959.27094","1290726.06644","1294626.07859","1295376.02812","1296142.59545","1296909.3894","1297676.06","1298442.5522","1299209.5904","1299959.17201","1301502.19065","Mapping"
"Blocked","m160","cave","12","m160bluff.wav","None","727.967554121","146","1293859.05647","1300726.10725","1301492.5741","1302259.27345","1303025.9459","1289209.83248","1289959.27094","1290726.06644","1294626.07859","1295376.02812","1296142.59545","1296909.3894","1297676.06","1298442.5522","1299209.5904","1299959.17201","1302268.55764","Mapping"
"Blocked","m160","cave","12","m160reek.wav","None","725.299381069","146","1293859.05647","1300726.10725","1301492.5741","1302259.27345","1303025.9459","1303792.85146","1289959.27094","1290726.06644","1294626.07859","1295376.02812","1296142.59545","1296909.3894","1297676.06","1298442.5522","1299209.5904","1299959.17201","1303035.53184","Mapping"
"Blocked","m160","cave","12","m160cave.wav","None","722.979028942","146","1293859.05647","1300726.10725","1301492.5741","1302259.27345","1303025.9459","1303792.85146","1304559.6383","1290726.06644","1294626.07859","1295376.02812","1296142.59545","1296909.3894","1297676.06","1298442.5522","1299209.5904","1299959.17201","1303802.11927","Mapping"
"Blocked","m160","cave","12","m160cad.wav","space","550.170154078","146","1293859.05647","1300726.10725","1301492.5741","1302259.27345","1303025.9459","1303792.85146","1304559.6383","1305309.06347","1294626.07859","1295376.02812","1296142.59545","1296909.3894","1297676.06","1298442.5522","1299209.5904","1299959.17201","1304569.47313","Mapping"
"Blocked","m160","done","19","m160gnash.wav","None","734.164949972","146","1308442.62671","1300726.10725","1301492.5741","1302259.27345","1303025.9459","1303792.85146","1304559.6383","1305309.06347","1294626.07859","1295376.02812","1296142.59545","1296909.3894","1297676.06","1298442.5522","1299209.5904","1299959.17201","1305318.54615","Mapping"
"Blocked","m160","done","19","m160done.wav","None","719.889760832","146","1308442.62671","1300726.10725","1301492.5741","1302259.27345","1303025.9459","1303792.85146","1304559.6383","1305309.06347","1309191.83236","1295376.02812","1296142.59545","1296909.3894","1297676.06","1298442.5522","1299209.5904","1299959.17201","1308452.85573","Mapping"
"Blocked","m160","done","19","m160greet.wav","space","390.652985079","146","1308442.62671","1300726.10725","1301492.5741","1302259.27345","1303025.9459","1303792.85146","1304559.6383","1305309.06347","1309191.83236","1309959.1179","1296142.59545","1296909.3894","1297676.06","1298442.5522","1299209.5904","1299959.17201","1309200.9193","Mapping"
"Blocked","m160","done","19","m160greet.wav","None","732.341440744","146","1308442.62671","1300726.10725","1301492.5741","1302259.27345","1303025.9459","1303792.85146","1304559.6383","1305309.06347","1309191.83236","1309959.1179","1310725.79962","1296909.3894","1297676.06","1298442.5522","1299209.5904","1299959.17201","1309968.21504","Mapping"
"Blocked","m160","done","19","m160done.wav","None","729.844859568","146","1308442.62671","1300726.10725","1301492.5741","1302259.27345","1303025.9459","1303792.85146","1304559.6383","1305309.06347","1309191.83236","1309959.1179","1310725.79962","1311492.16228","1297676.06","1298442.5522","1299209.5904","1299959.17201","1310735.05321","Mapping"
"Blocked","m160","done","19","m160tile.wav","space","442.082560039","146","1308442.62671","1300726.10725","1301492.5741","1302259.27345","1303025.9459","1303792.85146","1304559.6383","1305309.06347","1309191.83236","1309959.1179","1310725.79962","1311492.16228","1312258.85668","1298442.5522","1299209.5904","1299959.17201","1311501.45482","Mapping"
"Blocked","m160","done","19","m160done.wav","None","725.088524283","146","1308442.62671","1300726.10725","1301492.5741","1302259.27345","1303025.9459","1303792.85146","1304559.6383","1305309.06347","1309191.83236","1309959.1179","1310725.79962","1311492.16228","1312258.85668","1313026.37627","1299209.5904","1299959.17201","1312267.9801","Mapping"
"Blocked","m160","done","19","m160bluff.wav","space","491.702538566","146","1308442.62671","1300726.10725","1301492.5741","1302259.27345","1303025.9459","1303792.85146","1304559.6383","1305309.06347","1309191.83236","1309959.1179","1310725.79962","1311492.16228","1312258.85668","1313026.37627","1313775.82215","1299959.17201","1313035.83669","Mapping"
"Blocked","m160","done","19","m160cling.wav","None","735.413395218","146","1308442.62671","1300726.10725","1301492.5741","1302259.27345","1303025.9459","1303792.85146","1304559.6383","1305309.06347","1309191.83236","1309959.1179","1310725.79962","1311492.16228","1312258.85668","1313026.37627","1313775.82215","1314542.4071","1313785.40376","Mapping"
"Blocked","m160","done","19","m160dime.wav","None","733.379338402","146","1308442.62671","1315308.76852","1301492.5741","1302259.27345","1303025.9459","1303792.85146","1304559.6383","1305309.06347","1309191.83236","1309959.1179","1310725.79962","1311492.16228","1312258.85668","1313026.37627","1313775.82215","1314542.4071","1314551.92441","Mapping"
"Blocked","m160","done","19","m160knife.wav","None","731.778743793","146","1308442.62671","1315308.76852","1316075.73406","1302259.27345","1303025.9459","1303792.85146","1304559.6383","1305309.06347","1309191.83236","1309959.1179","1310725.79962","1311492.16228","1312258.85668","1313026.37627","1313775.82215","1314542.4071","1315317.93677","Mapping"
"Blocked","m160","done","19","m160done.wav","None","728.546637227","146","1308442.62671","1315308.76852","1316075.73406","1316842.45969","1303025.9459","1303792.85146","1304559.6383","1305309.06347","1309191.83236","1309959.1179","1310725.79962","1311492.16228","1312258.85668","1313026.37627","1313775.82215","1314542.4071","1316085.5624","Mapping"
"Blocked","m160","done","19","m160reek.wav","space","435.720992507","146","1308442.62671","1315308.76852","1316075.73406","1316842.45969","1317609.59961","1303792.85146","1304559.6383","1305309.06347","1309191.83236","1309959.1179","1310725.79962","1311492.16228","1312258.85668","1313026.37627","1313775.82215","1314542.4071","1316851.73986","Mapping"
"Blocked","m160","done","19","m160cad.wav","None","722.413549549","146","1308442.62671","1315308.76852","1316075.73406","1316842.45969","1317609.59961","1318376.02225","1304559.6383","1305309.06347","1309191.83236","1309959.1179","1310725.79962","1311492.16228","1312258.85668","1313026.37627","1313775.82215","1314542.4071","1317619.35962","Mapping"
"Blocked","m160","done","19","m160jolt.wav","None","725.780455978","146","1308442.62671","1315308.76852","1316075.73406","1316842.45969","1317609.59961","1318376.02225","1319125.84347","1305309.06347","1309191.83236","1309959.1179","1310725.79962","1311492.16228","1312258.85668","1313026.37627","1313775.82215","1314542.4071","1318380.66357","Mapping"
"Blocked","m160","done","19","m160bluff.wav","None","735.648985952","146","1308442.62671","1315308.76852","1316075.73406","1316842.45969","1317609.59961","1318376.02225","1319125.84347","1319892.06174","1309191.83236","1309959.1179","1310725.79962","1311492.16228","1312258.85668","1313026.37627","1313775.82215","1314542.4071","1319135.40931","Mapping"
"Blocked","m160","tile","14","m160greet.wav","None","734.107443597","146","1323025.74679","1315308.76852","1316075.73406","1316842.45969","1317609.59961","1318376.02225","1319125.84347","1319892.06174","1309191.83236","1309959.1179","1310725.79962","1311492.16228","1312258.85668","1313026.37627","1313775.82215","1314542.4071","1319901.43899","Mapping"
"Blocked","m160","tile","14","m160tile.wav","None","720.135863405","146","1323025.74679","1315308.76852","1316075.73406","1316842.45969","1317609.59961","1318376.02225","1319125.84347","1319892.06174","1323775.41249","1309959.1179","1310725.79962","1311492.16228","1312258.85668","1313026.37627","1313775.82215","1314542.4071","1323035.74301","Mapping"
"Blocked","m160","tile","14","m160reek.wav","space","398.542800453","146","1323025.74679","1315308.76852","1316075.73406","1316842.45969","1317609.59961","1318376.02225","1319125.84347","1319892.06174","1323775.41249","1324542.17646","1310725.79962","1311492.16228","1312258.85668","1313026.37627","1313775.82215","1314542.4071","1323784.84169","Mapping"
"Blocked","m160","tile","14","m160cave.wav","None","732.874457026","146","1323025.74679","1315308.76852","1316075.73406","1316842.45969","1317609.59961","1318376.02225","1319125.84347","1319892.06174","1323775.41249","1324542.17646","1325308.92063","1311492.16228","1312258.85668","1313026.37627","1313775.82215","1314542.4071","1324551.71664","Mapping"
"Blocked","m160","tile","14","m160cad.wav","None","730.728170136","146","1323025.74679","1315308.76852","1316075.73406","1316842.45969","1317609.59961","1318376.02225","1319125.84347","1319892.06174","1323775.41249","1324542.17646","1325308.92063","1326075.3544","1312258.85668","1313026.37627","1313775.82215","1314542.4071","1325318.3489","Mapping"
"Blocked","m160","tile","14","m160cave.wav","None","728.995558107","146","1323025.74679","1315308.76852","1316075.73406","1316842.45969","1317609.59961","1318376.02225","1319125.84347","1319892.06174","1323775.41249","1324542.17646","1325308.92063","1326075.3544","1326842.11342","1313026.37627","1313775.82215","1314542.4071","1326084.70661","Mapping"
"Blocked","m160","tile","14","m160ball.wav","None","727.353843278","146","1323025.74679","1315308.76852","1316075.73406","1316842.45969","1317609.59961","1318376.02225","1319125.84347","1319892.06174","1323775.41249","1324542.17646","1325308.92063","1326075.3544","1326842.11342","1327608.93118","1313775.82215","1314542.4071","1326851.22045","Mapping"
"Blocked","m160","tile","14","m160cling.wav","None","725.007211557","146","1323025.74679","1315308.76852","1316075.73406","1316842.45969","1317609.59961","1318376.02225","1319125.84347","1319892.06174","1323775.41249","1324542.17646","1325308.92063","1326075.3544","1326842.11342","1327608.93118","1328375.54179","1314542.4071","1327618.13374","Mapping"
"Blocked","m160","tile","14","m160tile.wav","None","722.968517104","146","1323025.74679","1315308.76852","1316075.73406","1316842.45969","1317609.59961","1318376.02225","1319125.84347","1319892.06174","1323775.41249","1324542.17646","1325308.92063","1326075.3544","1326842.11342","1327608.93118","1328375.54179","1329142.32894","1328384.68623","Mapping"
"Blocked","m160","tile","14","m160ball.wav","space","438.616099302","146","1323025.74679","1329892.02216","1316075.73406","1316842.45969","1317609.59961","1318376.02225","1319125.84347","1319892.06174","1323775.41249","1324542.17646","1325308.92063","1326075.3544","1326842.11342","1327608.93118","1328375.54179","1329142.32894","1329152.67236","Mapping"
"Blocked","m160","tile","14","m160tile.wav","None","734.647261677","146","1323025.74679","1329892.02216","1330658.83312","1316842.45969","1317609.59961","1318376.02225","1319125.84347","1319892.06174","1323775.41249","1324542.17646","1325308.92063","1326075.3544","1326842.11342","1327608.93118","1328375.54179","1329142.32894","1329901.21886","Mapping"
"Blocked","m160","tile","14","m160knife.wav","space","579.071754008","146","1323025.74679","1329892.02216","1330658.83312","1331425.52567","1317609.59961","1318376.02225","1319125.84347","1319892.06174","1323775.41249","1324542.17646","1325308.92063","1326075.3544","1326842.11342","1327608.93118","1328375.54179","1329142.32894","1330668.18688","Mapping"
"Blocked","m160","tile","14","m160priest.wav","None","728.904042509","146","1323025.74679","1329892.02216","1330658.83312","1331425.52567","1332191.83483","1318376.02225","1319125.84347","1319892.06174","1323775.41249","1324542.17646","1325308.92063","1326075.3544","1326842.11342","1327608.93118","1328375.54179","1329142.32894","1331434.82191","Mapping"
"Blocked","m160","tile","14","m160cling.wav","None","727.855014615","146","1323025.74679","1329892.02216","1330658.83312","1331425.52567","1332191.83483","1332958.75802","1319125.84347","1319892.06174","1323775.41249","1324542.17646","1325308.92063","1326075.3544","1326842.11342","1327608.93118","1328375.54179","1329142.32894","1332200.88684","Mapping"
"Blocked","m160","tile","14","m160tile.wav","None","725.0035014","146","1323025.74679","1329892.02216","1330658.83312","1331425.52567","1332191.83483","1332958.75802","1333725.63483","1319892.06174","1323775.41249","1324542.17646","1325308.92063","1326075.3544","1326842.11342","1327608.93118","1328375.54179","1329142.32894","1332968.33469","Mapping"
"Blocked","m160","tile","14","m160priest.wav","space","460.50933958","146","1323025.74679","1329892.02216","1330658.83312","1331425.52567","1332191.83483","1332958.75802","1333725.63483","1334492.15455","1323775.41249","1324542.17646","1325308.92063","1326075.3544","1326842.11342","1327608.93118","1328375.54179","1329142.32894","1333730.72199","Mapping"
"Blocked","m160","cave","9","m160done.wav","None","720.492959721","146","1337608.94602","1329892.02216","1330658.83312","1331425.52567","1332191.83483","1332958.75802","1333725.63483","1334492.15455","1323775.41249","1324542.17646","1325308.92063","1326075.3544","1326842.11342","1327608.93118","1328375.54179","1329142.32894","1334501.10793","Mapping"
"Blocked","m160","cave","9","m160knife.wav","None","720.339299995","146","1337608.94602","1329892.02216","1330658.83312","1331425.52567","1332191.83483","1332958.75802","1333725.63483","1334492.15455","1338358.58482","1324542.17646","1325308.92063","1326075.3544","1326842.11342","1327608.93118","1328375.54179","1329142.32894","1337618.81176","Mapping"
"Blocked","m160","cave","9","m160cave.wav","None","735.541702481","146","1337608.94602","1329892.02216","1330658.83312","1331425.52567","1332191.83483","1332958.75802","1333725.63483","1334492.15455","1338358.58482","1339125.47029","1325308.92063","1326075.3544","1326842.11342","1327608.93118","1328375.54179","1329142.32894","1338368.04555","Mapping"
"Blocked","m160","cave","9","m160ball.wav","space","376.115307095","146","1337608.94602","1329892.02216","1330658.83312","1331425.52567","1332191.83483","1332958.75802","1333725.63483","1334492.15455","1338358.58482","1339125.47029","1339891.92786","1326075.3544","1326842.11342","1327608.93118","1328375.54179","1329142.32894","1339135.01975","Mapping"
"Blocked","m160","cave","9","m160depth.wav","None","731.034870725","146","1337608.94602","1329892.02216","1330658.83312","1331425.52567","1332191.83483","1332958.75802","1333725.63483","1334492.15455","1338358.58482","1339125.47029","1339891.92786","1340658.68008","1326842.11342","1327608.93118","1328375.54179","1329142.32894","1339900.95235","Mapping"
"Blocked","m160","cave","9","m160cave.wav","None","728.510773042","146","1337608.94602","1329892.02216","1330658.83312","1331425.52567","1332191.83483","1332958.75802","1333725.63483","1334492.15455","1338358.58482","1339125.47029","1339891.92786","1340658.68008","1341425.338","1327608.93118","1328375.54179","1329142.32894","1340667.9046","Mapping"
"Blocked","m160","cave","9","m160depth.wav","space","460.458325921","146","1337608.94602","1329892.02216","1330658.83312","1331425.52567","1332191.83483","1332958.75802","1333725.63483","1334492.15455","1338358.58482","1339125.47029","1339891.92786","1340658.68008","1341425.338","1342192.27448","1328375.54179","1329142.32894","1341434.67691","Mapping"
"Blocked","m160","cave","9","m160jaw.wav","None","722.43982926","146","1337608.94602","1329892.02216","1330658.83312","1331425.52567","1332191.83483","1332958.75802","1333725.63483","1334492.15455","1338358.58482","1339125.47029","1339891.92786","1340658.68008","1341425.338","1342192.27448","1342959.24003","1329142.32894","1342201.82549","Mapping"
"Blocked","m160","cave","9","m160cave.wav","None","719.659116934","146","1337608.94602","1329892.02216","1330658.83312","1331425.52567","1332191.83483","1332958.75802","1333725.63483","1334492.15455","1338358.58482","1339125.47029","1339891.92786","1340658.68008","1341425.338","1342192.27448","1342959.24003","1343708.23266","1342969.30735","Mapping"
"Blocked","m160","cave","9","m160done.wav","space","489.666626789","146","1337608.94602","1344475.00683","1330658.83312","1331425.52567","1332191.83483","1332958.75802","1333725.63483","1334492.15455","1338358.58482","1339125.47029","1339891.92786","1340658.68008","1341425.338","1342192.27448","1342959.24003","1343708.23266","1343717.4074","Mapping"
"Blocked","m160","cave","9","m160tile.wav","None","732.913412969","146","1337608.94602","1344475.00683","1345241.90219","1331425.52567","1332191.83483","1332958.75802","1333725.63483","1334492.15455","1338358.58482","1339125.47029","1339891.92786","1340658.68008","1341425.338","1342192.27448","1342959.24003","1343708.23266","1344483.89249","Mapping"
"Blocked","m160","cave","9","m160park.wav","None","730.053242878","146","1337608.94602","1344475.00683","1345241.90219","1346008.61607","1332191.83483","1332958.75802","1333725.63483","1334492.15455","1338358.58482","1339125.47029","1339891.92786","1340658.68008","1341425.338","1342192.27448","1342959.24003","1343708.23266","1345251.38672","Mapping"
"Blocked","m160","cave","9","m160bluff.wav","None","726.31223558","146","1337608.94602","1344475.00683","1345241.90219","1346008.61607","1346775.02386","1332958.75802","1333725.63483","1334492.15455","1338358.58482","1339125.47029","1339891.92786","1340658.68008","1341425.338","1342192.27448","1342959.24003","1343708.23266","1346019.81714","Mapping"
"Blocked","m160","cave","9","m160dime.wav","None","727.126291255","146","1337608.94602","1344475.00683","1345241.90219","1346008.61607","1346775.02386","1347542.77718","1333725.63483","1334492.15455","1338358.58482","1339125.47029","1339891.92786","1340658.68008","1341425.338","1342192.27448","1342959.24003","1343708.23266","1346783.66219","Mapping"
"Blocked","m160","cave","9","m160cave.wav","None","723.052612506","146","1337608.94602","1344475.00683","1345241.90219","1346008.61607","1346775.02386","1347542.77718","1348308.88693","1334492.15455","1338358.58482","1339125.47029","1339891.92786","1340658.68008","1341425.338","1342192.27448","1342959.24003","1343708.23266","1347552.24409","Mapping"
"Blocked","m160","cave","9","m160ball.wav","space","543.558155536","146","1337608.94602","1344475.00683","1345241.90219","1346008.61607","1346775.02386","1347542.77718","1348308.88693","1349058.16246","1338358.58482","1339125.47029","1339891.92786","1340658.68008","1341425.338","1342192.27448","1342959.24003","1343708.23266","1348319.38772","Mapping"
"Blocked","m160","ball","2","m160gnash.wav","None","735.927551868","146","1352192.11618","1344475.00683","1345241.90219","1346008.61607","1346775.02386","1347542.77718","1348308.88693","1349058.16246","1338358.58482","1339125.47029","1339891.92786","1340658.68008","1341425.338","1342192.27448","1342959.24003","1343708.23266","1349067.27413","Mapping"
"Blocked","m160","ball","2","m160ball.wav","None","717.597234412","146","1352192.11618","1344475.00683","1345241.90219","1346008.61607","1346775.02386","1347542.77718","1348308.88693","1349058.16246","1352941.63967","1339125.47029","1339891.92786","1340658.68008","1341425.338","1342192.27448","1342959.24003","1343708.23266","1352204.50881","Mapping"
"Blocked","m160","ball","2","m160cave.wav","space","415.986097069","146","1352192.11618","1344475.00683","1345241.90219","1346008.61607","1346775.02386","1347542.77718","1348308.88693","1349058.16246","1352941.63967","1353708.74682","1339891.92786","1340658.68008","1341425.338","1342192.27448","1342959.24003","1343708.23266","1352950.93004","Mapping"
"Blocked","m160","ball","2","m160ball.wav","None","732.402657275","146","1352192.11618","1344475.00683","1345241.90219","1346008.61607","1346775.02386","1347542.77718","1348308.88693","1349058.16246","1352941.63967","1353708.74682","1354475.22819","1340658.68008","1341425.338","1342192.27448","1342959.24003","1343708.23266","1353717.81366","Mapping"
"Blocked","m160","ball","2","m160greet.wav","space","374.651676626","146","1352192.11618","1344475.00683","1345241.90219","1346008.61607","1346775.02386","1347542.77718","1348308.88693","1349058.16246","1352941.63967","1353708.74682","1354475.22819","1355241.60229","1341425.338","1342192.27448","1342959.24003","1343708.23266","1354488.26947","Mapping"
"Blocked","m160","ball","2","m160knife.wav","None","727.790088044","146","1352192.11618","1344475.00683","1345241.90219","1346008.61607","1346775.02386","1347542.77718","1348308.88693","1349058.16246","1352941.63967","1353708.74682","1354475.22819","1355241.60229","1356008.43303","1342192.27448","1342959.24003","1343708.23266","1355250.65398","Mapping"
"Blocked","m160","ball","2","m160park.wav","None","725.36430764","146","1352192.11618","1344475.00683","1345241.90219","1346008.61607","1346775.02386","1347542.77718","1348308.88693","1349058.16246","1352941.63967","1353708.74682","1354475.22819","1355241.60229","1356008.43303","1356775.13671","1342959.24003","1343708.23266","1356017.78493","Mapping"
"Blocked","m160","ball","2","m160reek.wav","None","723.727230448","146","1352192.11618","1344475.00683","1345241.90219","1346008.61607","1346775.02386","1347542.77718","1348308.88693","1349058.16246","1352941.63967","1353708.74682","1354475.22819","1355241.60229","1356008.43303","1356775.13671","1357541.4669","1343708.23266","1356784.11389","Mapping"
"Blocked","m160","ball","2","m160lash.wav","None","724.491199828","146","1352192.11618","1344475.00683","1345241.90219","1346008.61607","1346775.02386","1347542.77718","1348308.88693","1349058.16246","1352941.63967","1353708.74682","1354475.22819","1355241.60229","1356008.43303","1356775.13671","1357541.4669","1358308.88384","1357550.27867","Mapping"
"Blocked","m160","ball","2","m160ball.wav","None","720.878499793","146","1352192.11618","1359075.4589","1345241.90219","1346008.61607","1346775.02386","1347542.77718","1348308.88693","1349058.16246","1352941.63967","1353708.74682","1354475.22819","1355241.60229","1356008.43303","1356775.13671","1357541.4669","1358308.88384","1358318.71929","Mapping"
"Blocked","m160","ball","2","m160depth.wav","space","409.238989349","146","1352192.11618","1359075.4589","1359824.72484","1346008.61607","1346775.02386","1347542.77718","1348308.88693","1349058.16246","1352941.63967","1353708.74682","1354475.22819","1355241.60229","1356008.43303","1356775.13671","1357541.4669","1358308.88384","1359085.63815","Mapping"
"Blocked","m160","ball","2","m160ball.wav","None","734.225857304","146","1352192.11618","1359075.4589","1359824.72484","1360591.66071","1346775.02386","1347542.77718","1348308.88693","1349058.16246","1352941.63967","1353708.74682","1354475.22819","1355241.60229","1356008.43303","1356775.13671","1357541.4669","1358308.88384","1359833.81858","Mapping"
"Blocked","m160","ball","2","m160lash.wav","space","438.085556496","146","1352192.11618","1359075.4589","1359824.72484","1360591.66071","1361358.10839","1347542.77718","1348308.88693","1349058.16246","1352941.63967","1353708.74682","1354475.22819","1355241.60229","1356008.43303","1356775.13671","1357541.4669","1358308.88384","1360600.74579","Mapping"
"Blocked","m160","ball","2","m160cave.wav","None","728.916718625","146","1352192.11618","1359075.4589","1359824.72484","1360591.66071","1361358.10839","1362125.18276","1348308.88693","1349058.16246","1352941.63967","1353708.74682","1354475.22819","1355241.60229","1356008.43303","1356775.13671","1357541.4669","1358308.88384","1361367.14771","Mapping"
"Blocked","m160","ball","2","m160greet.wav","None","726.179290796","146","1352192.11618","1359075.4589","1359824.72484","1360591.66071","1361358.10839","1362125.18276","1362891.52099","1349058.16246","1352941.63967","1353708.74682","1354475.22819","1355241.60229","1356008.43303","1356775.13671","1357541.4669","1358308.88384","1362134.59959","Mapping"
"Blocked","m160","ball","2","m160cave.wav","None","726.980670122","146","1352192.11618","1359075.4589","1359824.72484","1360591.66071","1361358.10839","1362125.18276","1362891.52099","1363658.38822","1352941.63967","1353708.74682","1354475.22819","1355241.60229","1356008.43303","1356775.13671","1357541.4669","1358308.88384","1362898.696","Mapping"
"Blocked","m160","ball","5","m160dime.wav","None","723.111355561","146","1366775.36704","1359075.4589","1359824.72484","1360591.66071","1361358.10839","1362125.18276","1362891.52099","1363658.38822","1352941.63967","1353708.74682","1354475.22819","1355241.60229","1356008.43303","1356775.13671","1357541.4669","1358308.88384","1363667.28749","Mapping"
"Blocked","m160","ball","5","m160ball.wav","None","719.485670212","146","1366775.36704","1359075.4589","1359824.72484","1360591.66071","1361358.10839","1362125.18276","1362891.52099","1363658.38822","1367524.82715","1353708.74682","1354475.22819","1355241.60229","1356008.43303","1356775.13671","1357541.4669","1358308.88384","1366785.26989","Mapping"
"Blocked","m160","ball","5","m160jaw.wav","space","416.551267495","146","1366775.36704","1359075.4589","1359824.72484","1360591.66071","1361358.10839","1362125.18276","1362891.52099","1363658.38822","1367524.82715","1368291.34254","1354475.22819","1355241.60229","1356008.43303","1356775.13671","1357541.4669","1358308.88384","1367534.17627","Mapping"
"Blocked","m160","ball","5","m160romp.wav","None","732.355353539","146","1366775.36704","1359075.4589","1359824.72484","1360591.66071","1361358.10839","1362125.18276","1362891.52099","1363658.38822","1367524.82715","1368291.34254","1369057.99767","1355241.60229","1356008.43303","1356775.13671","1357541.4669","1358308.88384","1368300.55067","Mapping"
"Blocked","m160","ball","5","m160knife.wav","None","730.6385095","146","1366775.36704","1359075.4589","1359824.72484","1360591.66071","1361358.10839","1362125.18276","1362891.52099","1363658.38822","1367524.82715","1368291.34254","1369057.99767","1369824.96785","1356008.43303","1356775.13671","1357541.4669","1358308.88384","1369067.05215","Mapping"
"Blocked","m160","ball","5","m160ball.wav","None","728.15553192","146","1366775.36704","1359075.4589","1359824.72484","1360591.66071","1361358.10839","1362125.18276","1362891.52099","1363658.38822","1367524.82715","1368291.34254","1369057.99767","1369824.96785","1370591.48664","1356775.13671","1357541.4669","1358308.88384","1369834.43662","Mapping"
"Blocked","m160","ball","5","m160gnash.wav","space","430.006217444","146","1366775.36704","1359075.4589","1359824.72484","1360591.66071","1361358.10839","1362125.18276","1362891.52099","1363658.38822","1367524.82715","1368291.34254","1369057.99767","1369824.96785","1370591.48664","1371358.49825","1357541.4669","1358308.88384","1370600.65551","Mapping"
"Blocked","m160","ball","5","m160knife.wav","None","722.482804442","146","1366775.36704","1359075.4589","1359824.72484","1360591.66071","1361358.10839","1362125.18276","1362891.52099","1363658.38822","1367524.82715","1368291.34254","1369057.99767","1369824.96785","1370591.48664","1371358.49825","1372125.43628","1358308.88384","1371368.29196","Mapping"
"Blocked","m160","ball","5","m160bluff.wav","None","720.622812747","146","1366775.36704","1359075.4589","1359824.72484","1360591.66071","1361358.10839","1362125.18276","1362891.52099","1363658.38822","1367524.82715","1368291.34254","1369057.99767","1369824.96785","1370591.48664","1371358.49825","1372125.43628","1372875.05159","1372134.99966","Mapping"
"Blocked","m160","ball","5","m160ball.wav","None","736.017212272","146","1366775.36704","1373641.48103","1359824.72484","1360591.66071","1361358.10839","1362125.18276","1362891.52099","1363658.38822","1367524.82715","1368291.34254","1369057.99767","1369824.96785","1370591.48664","1371358.49825","1372125.43628","1372875.05159","1372884.4474","Mapping"
"Blocked","m160","ball","5","m160cling.wav","space","371.356189367","146","1366775.36704","1373641.48103","1374408.18934","1360591.66071","1361358.10839","1362125.18276","1362891.52099","1363658.38822","1367524.82715","1368291.34254","1369057.99767","1369824.96785","1370591.48664","1371358.49825","1372125.43628","1372875.05159","1373651.26763","Mapping"
"Blocked","m160","ball","5","m160jolt.wav","None","730.992204743","146","1366775.36704","1373641.48103","1374408.18934","1375174.60889","1361358.10839","1362125.18276","1362891.52099","1363658.38822","1367524.82715","1368291.34254","1369057.99767","1369824.96785","1370591.48664","1371358.49825","1372125.43628","1372875.05159","1374417.80713","Mapping"
"Blocked","m160","ball","5","m160ball.wav","None","729.927099776","146","1366775.36704","1373641.48103","1374408.18934","1375174.60889","1375941.22878","1362125.18276","1362891.52099","1363658.38822","1367524.82715","1368291.34254","1369057.99767","1369824.96785","1370591.48664","1371358.49825","1372125.43628","1372875.05159","1375183.68964","Mapping"
"Blocked","m160","ball","5","m160gnash.wav","space","456.355275703","146","1366775.36704","1373641.48103","1374408.18934","1375174.60889","1375941.22878","1376707.88577","1362891.52099","1363658.38822","1367524.82715","1368291.34254","1369057.99767","1369824.96785","1370591.48664","1371358.49825","1372125.43628","1372875.05159","1375950.2007","Mapping"
"Blocked","m160","ball","5","m160cave.wav","None","725.620612968","146","1366775.36704","1373641.48103","1374408.18934","1375174.60889","1375941.22878","1376707.88577","1377475.1441","1363658.38822","1367524.82715","1368291.34254","1369057.99767","1369824.96785","1370591.48664","1371358.49825","1372125.43628","1372875.05159","1376716.81193","Mapping"
"Blocked","m160","ball","5","m160cave.wav","None","722.25834406","146","1366775.36704","1373641.48103","1374408.18934","1375174.60889","1375941.22878","1376707.88577","1377475.1441","1378241.70772","1367524.82715","1368291.34254","1369057.99767","1369824.96785","1370591.48664","1371358.49825","1372125.43628","1372875.05159","1377485.3048","Mapping"
"Blocked","m160","ball","1","m160depth.wav","None","720.8154283","146","1381358.4021","1373641.48103","1374408.18934","1375174.60889","1375941.22878","1376707.88577","1377475.1441","1378241.70772","1367524.82715","1368291.34254","1369057.99767","1369824.96785","1370591.48664","1371358.49825","1372125.43628","1372875.05159","1378251.62943","Mapping"
"Blocked","m160","ball","1","m160ball.wav","None","719.738265616","146","1381358.4021","1373641.48103","1374408.18934","1375174.60889","1375941.22878","1376707.88577","1377475.1441","1378241.70772","1382107.77255","1368291.34254","1369057.99767","1369824.96785","1370591.48664","1371358.49825","1372125.43628","1372875.05159","1381367.93332","Mapping"
"Blocked","m160","ball","1","m160cad.wav","space","377.364989021","146","1381358.4021","1373641.48103","1374408.18934","1375174.60889","1375941.22878","1376707.88577","1377475.1441","1378241.70772","1382107.77255","1382874.7823","1369057.99767","1369824.96785","1370591.48664","1371358.49825","1372125.43628","1372875.05159","1382117.12414","Mapping"
"Blocked","m160","ball","1","m160priest.wav","None","731.617973302","146","1381358.4021","1373641.48103","1374408.18934","1375174.60889","1375941.22878","1376707.88577","1377475.1441","1378241.70772","1382107.77255","1382874.7823","1383641.15825","1369824.96785","1370591.48664","1371358.49825","1372125.43628","1372875.05159","1382884.31291","Mapping"
"Blocked","m160","ball","1","m160cad.wav","None","730.614703149","146","1381358.4021","1373641.48103","1374408.18934","1375174.60889","1375941.22878","1376707.88577","1377475.1441","1378241.70772","1382107.77255","1382874.7823","1383641.15825","1384407.74413","1370591.48664","1371358.49825","1372125.43628","1372875.05159","1383650.15337","Mapping"
"Blocked","m160","ball","1","m160tile.wav","None","728.90373331","146","1381358.4021","1373641.48103","1374408.18934","1375174.60889","1375941.22878","1376707.88577","1377475.1441","1378241.70772","1382107.77255","1382874.7823","1383641.15825","1384407.74413","1385174.75729","1371358.49825","1372125.43628","1372875.05159","1384416.97638","Mapping"
"Blocked","m160","ball","1","m160ball.wav","None","727.123508579","146","1381358.4021","1373641.48103","1374408.18934","1375174.60889","1375941.22878","1376707.88577","1377475.1441","1378241.70772","1382107.77255","1382874.7823","1383641.15825","1384407.74413","1385174.75729","1385941.33049","1372125.43628","1372875.05159","1385184.1871","Mapping"
"Blocked","m160","ball","1","m160bluff.wav","space","479.755430832","146","1381358.4021","1373641.48103","1374408.18934","1375174.60889","1375941.22878","1376707.88577","1377475.1441","1378241.70772","1382107.77255","1382874.7823","1383641.15825","1384407.74413","1385174.75729","1385941.33049","1386708.21133","1372875.05159","1385950.7096","Mapping"
"Blocked","m160","ball","1","m160cave.wav","None","722.497954033","146","1381358.4021","1373641.48103","1374408.18934","1375174.60889","1375941.22878","1376707.88577","1377475.1441","1378241.70772","1382107.77255","1382874.7823","1383641.15825","1384407.74413","1385174.75729","1385941.33049","1386708.21133","1387475.22881","1386717.07999","Mapping"
"Blocked","m160","ball","1","m160park.wav","None","719.389826292","146","1381358.4021","1388224.26442","1374408.18934","1375174.60889","1375941.22878","1376707.88577","1377475.1441","1378241.70772","1382107.77255","1382874.7823","1383641.15825","1384407.74413","1385174.75729","1385941.33049","1386708.21133","1387475.22881","1387485.04818","Mapping"
"Blocked","m160","ball","1","m160done.wav","None","736.271662638","146","1381358.4021","1388224.26442","1388991.48844","1375174.60889","1375941.22878","1376707.88577","1377475.1441","1378241.70772","1382107.77255","1382874.7823","1383641.15825","1384407.74413","1385174.75729","1385941.33049","1386708.21133","1387475.22881","1388233.35352","Mapping"
"Blocked","m160","ball","1","m160ball.wav","None","734.047772945","146","1381358.4021","1388224.26442","1388991.48844","1389757.67239","1375941.22878","1376707.88577","1377475.1441","1378241.70772","1382107.77255","1382874.7823","1383641.15825","1384407.74413","1385174.75729","1385941.33049","1386708.21133","1387475.22881","1389000.43903","Mapping"
"Blocked","m160","ball","1","m160cave.wav","space","503.930376377","146","1381358.4021","1388224.26442","1388991.48844","1389757.67239","1390524.36895","1376707.88577","1377475.1441","1378241.70772","1382107.77255","1382874.7823","1383641.15825","1384407.74413","1385174.75729","1385941.33049","1386708.21133","1387475.22881","1389766.44273","Mapping"
"Blocked","m160","ball","1","m160ball.wav","None","729.420981719","146","1381358.4021","1388224.26442","1388991.48844","1389757.67239","1390524.36895","1391291.2841","1377475.1441","1378241.70772","1382107.77255","1382874.7823","1383641.15825","1384407.74413","1385174.75729","1385941.33049","1386708.21133","1387475.22881","1390533.27997","Mapping"
"Blocked","m160","ball","1","m160greet.wav","space","553.231905564","146","1381358.4021","1388224.26442","1388991.48844","1389757.67239","1390524.36895","1391291.2841","1392057.86349","1378241.70772","1382107.77255","1382874.7823","1383641.15825","1384407.74413","1385174.75729","1385941.33049","1386708.21133","1387475.22881","1391301.14799","Mapping"
"Blocked","m160","ball","1","m160bluff.wav","None","723.760930472","146","1381358.4021","1388224.26442","1388991.48844","1389757.67239","1390524.36895","1391291.2841","1392057.86349","1392825.07514","1382107.77255","1382874.7823","1383641.15825","1384407.74413","1385174.75729","1385941.33049","1386708.21133","1387475.22881","1392067.1956","Mapping"
"Blocked","m160","done","23","m160greet.wav","None","721.026903368","146","1395941.46127","1388224.26442","1388991.48844","1389757.67239","1390524.36895","1391291.2841","1392057.86349","1392825.07514","1382107.77255","1382874.7823","1383641.15825","1384407.74413","1385174.75729","1385941.33049","1386708.21133","1387475.22881","1392834.80083","Mapping"
"Blocked","m160","done","23","m160cave.wav","None","720.272827544","146","1395941.46127","1388224.26442","1388991.48844","1389757.67239","1390524.36895","1391291.2841","1392057.86349","1392825.07514","1396691.19778","1382874.7823","1383641.15825","1384407.74413","1385174.75729","1385941.33049","1386708.21133","1387475.22881","1395951.09545","Mapping"
"Blocked","m160","done","23","m160done.wav","None","735.933426069","146","1395941.46127","1388224.26442","1388991.48844","1389757.67239","1390524.36895","1391291.2841","1392057.86349","1392825.07514","1396691.19778","1397457.81581","1383641.15825","1384407.74413","1385174.75729","1385941.33049","1386708.21133","1387475.22881","1396700.48785","Mapping"
"Blocked","m160","done","23","m160greet.wav","space","403.089515516","146","1395941.46127","1388224.26442","1388991.48844","1389757.67239","1390524.36895","1391291.2841","1392057.86349","1392825.07514","1396691.19778","1397457.81581","1398224.52258","1384407.74413","1385174.75729","1385941.33049","1386708.21133","1387475.22881","1397467.19121","Mapping"
"Blocked","m160","done","23","m160dime.wav","None","730.629234342","146","1395941.46127","1388224.26442","1388991.48844","1389757.67239","1390524.36895","1391291.2841","1392057.86349","1392825.07514","1396691.19778","1397457.81581","1398224.52258","1398991.05837","1385174.75729","1385941.33049","1386708.21133","1387475.22881","1398234.0303","Mapping"
"Blocked","m160","done","23","m160cling.wav","None","728.869105922","146","1395941.46127","1388224.26442","1388991.48844","1389757.67239","1390524.36895","1391291.2841","1392057.86349","1392825.07514","1396691.19778","1397457.81581","1398224.52258","1398991.05837","1399757.8007","1385941.33049","1386708.21133","1387475.22881","1399000.70677","Mapping"
"Blocked","m160","done","23","m160done.wav","None","728.072054917","146","1395941.46127","1388224.26442","1388991.48844","1389757.67239","1390524.36895","1391291.2841","1392057.86349","1392825.07514","1396691.19778","1397457.81581","1398224.52258","1398991.05837","1399757.8007","1400524.54858","1386708.21133","1387475.22881","1399766.97915","Mapping"
"Blocked","m160","done","23","m160greet.wav","space","448.329114704","146","1395941.46127","1388224.26442","1388991.48844","1389757.67239","1390524.36895","1391291.2841","1392057.86349","1392825.07514","1396691.19778","1397457.81581","1398224.52258","1398991.05837","1399757.8007","1400524.54858","1401291.28163","1387475.22881","1400533.92645","Mapping"
"Blocked","m160","done","23","m160done.wav","None","722.107467125","146","1395941.46127","1388224.26442","1388991.48844","1389757.67239","1390524.36895","1391291.2841","1392057.86349","1392825.07514","1396691.19778","1397457.81581","1398224.52258","1398991.05837","1399757.8007","1400524.54858","1401291.28163","1402058.12691","1401301.08987","Mapping"
"Blocked","m160","done","23","m160cling.wav","space","456.27025282","146","1395941.46127","1402807.40954","1388991.48844","1389757.67239","1390524.36895","1391291.2841","1392057.86349","1392825.07514","1396691.19778","1397457.81581","1398224.52258","1398991.05837","1399757.8007","1400524.54858","1401291.28163","1402058.12691","1402069.94509","Mapping"
"Blocked","m160","done","23","m160romp.wav","None","734.837712953","146","1395941.46127","1402807.40954","1403574.51762","1389757.67239","1390524.36895","1391291.2841","1392057.86349","1392825.07514","1396691.19778","1397457.81581","1398224.52258","1398991.05837","1399757.8007","1400524.54858","1401291.28163","1402058.12691","1402816.71507","Mapping"
"Blocked","m160","done","23","m160romp.wav","None","732.614132459","146","1395941.46127","1402807.40954","1403574.51762","1404341.03641","1390524.36895","1391291.2841","1392057.86349","1392825.07514","1396691.19778","1397457.81581","1398224.52258","1398991.05837","1399757.8007","1400524.54858","1401291.28163","1402058.12691","1403584.03245","Mapping"
"Blocked","m160","done","23","m160priest.wav","None","731.089594658","146","1395941.46127","1402807.40954","1403574.51762","1404341.03641","1405107.69587","1391291.2841","1392057.86349","1392825.07514","1396691.19778","1397457.81581","1398224.52258","1398991.05837","1399757.8007","1400524.54858","1401291.28163","1402058.12691","1404350.41861","Mapping"
