"Condition","Talker","Target","Trial","current_stimulus","response_response","response_time_response","subject_nr","time_Audio1","time_Audio10","time_Audio11","time_Audio12","time_Audio13","time_Audio14","time_Audio15","time_Audio16","time_Audio2","time_Audio3","time_Audio4","time_Audio5","time_Audio6","time_Audio7","time_Audio8","time_Audio9","time_response","title"
"Blocked","m150","tile","16","m150cad.wav","NA","NA","173","115081.565765","NA","NA","NA","NA","NA","NA","NA","NA","NA","NA","NA","NA","NA","NA","NA","NA","Mapping"
"Blocked","m150","tile","16","m150ball.wav","space","0.0473032705486","173","115081.565765","NA","NA","NA","NA","NA","NA","NA","115848.437733","NA","NA","NA","NA","NA","NA","NA","115096.309616","Mapping"
"Blocked","m150","tile","16","m150park.wav","None","720.012132078","173","115081.565765","NA","NA","NA","NA","NA","NA","NA","115848.437733","116597.512763","NA","NA","NA","NA","NA","NA","115857.942644","Mapping"
"Blocked","m150","tile","16","m150ball.wav","None","736.311124638","173","115081.565765","NA","NA","NA","NA","NA","NA","NA","115848.437733","116597.512763","117364.132137","NA","NA","NA","NA","NA","116606.938836","Mapping"
"Blocked","m150","tile","16","m150cling.wav","None","735.718748998","173","115081.565765","NA","NA","NA","NA","NA","NA","NA","115848.437733","116597.512763","117364.132137","118131.151581","NA","NA","NA","NA","117373.217192","Mapping"
"Blocked","m150","tile","16","m150depth.wav","None","733.857525978","173","115081.565765","NA","NA","NA","NA","NA","NA","NA","115848.437733","116597.512763","117364.132137","118131.151581","118898.044263","NA","NA","NA","118140.615991","Mapping"
"Blocked","m150","tile","16","m150tile.wav","None","732.605684083","173","115081.565765","NA","NA","NA","NA","NA","NA","NA","115848.437733","116597.512763","117364.132137","118131.151581","118898.044263","119664.574286","NA","NA","118907.319768","Mapping"
"Blocked","m150","tile","16","m150priest.wav","space","554.468124639","173","115081.565765","NA","NA","NA","NA","NA","NA","NA","115848.437733","116597.512763","117364.132137","118131.151581","118898.044263","119664.574286","120430.882322","NA","119674.701872","Mapping"
"Blocked","m150","tile","16","m150tile.wav","None","730.658819899","173","115081.565765","NA","NA","NA","NA","NA","NA","NA","115848.437733","116597.512763","117364.132137","118131.151581","118898.044263","119664.574286","120430.882322","121197.481599","120440.225536","Mapping"
"Blocked","m150","tile","16","m150priest.wav","space","622.208282351","173","115081.565765","121964.055524","NA","NA","NA","NA","NA","NA","115848.437733","116597.512763","117364.132137","118131.151581","118898.044263","119664.574286","120430.882322","121197.481599","121206.955902","Mapping"
"Blocked","m150","tile","16","m150bluff.wav","None","728.332601022","173","115081.565765","121964.055524","122730.864111","NA","NA","NA","NA","NA","115848.437733","116597.512763","117364.132137","118131.151581","118898.044263","119664.574286","120430.882322","121197.481599","121973.166858","Mapping"
"Blocked","m150","tile","16","m150jaw.wav","None","726.196832489","173","115081.565765","121964.055524","122730.864111","123497.498325","NA","NA","NA","NA","115848.437733","116597.512763","117364.132137","118131.151581","118898.044263","119664.574286","120430.882322","121197.481599","122740.518972","Mapping"
"Blocked","m150","tile","16","m150tile.wav","None","725.222627632","173","115081.565765","121964.055524","122730.864111","123497.498325","124263.796777","NA","NA","NA","115848.437733","116597.512763","117364.132137","118131.151581","118898.044263","119664.574286","120430.882322","121197.481599","123506.882041","Mapping"
"Blocked","m150","tile","16","m150done.wav","space","369.502166286","173","115081.565765","121964.055524","122730.864111","123497.498325","124263.796777","125031.301313","NA","NA","115848.437733","116597.512763","117364.132137","118131.151581","118898.044263","119664.574286","120430.882322","121197.481599","124267.593733","Mapping"
"Blocked","m150","tile","16","m150tile.wav","None","721.848620567","173","115081.565765","121964.055524","122730.864111","123497.498325","124263.796777","125031.301313","125797.901518","NA","115848.437733","116597.512763","117364.132137","118131.151581","118898.044263","119664.574286","120430.882322","121197.481599","125041.580704","Mapping"
"Blocked","m150","tile","16","m150dime.wav","None","721.082798671","173","115081.565765","121964.055524","122730.864111","123497.498325","124263.796777","125031.301313","125797.901518","126564.491829","115848.437733","116597.512763","117364.132137","118131.151581","118898.044263","119664.574286","120430.882322","121197.481599","125808.052602","Mapping"
"Blocked","m150","cave","12","m150gnash.wav","space","86.5174820647","173","129714.326746","121964.055524","122730.864111","123497.498325","124263.796777","125031.301313","125797.901518","126564.491829","115848.437733","116597.512763","117364.132137","118131.151581","118898.044263","119664.574286","120430.882322","121197.481599","126574.559436","Mapping"
"Blocked","m150","cave","12","m150dime.wav","None","723.181157373","173","129714.326746","121964.055524","122730.864111","123497.498325","124263.796777","125031.301313","125797.901518","126564.491829","130481.308161","116597.512763","117364.132137","118131.151581","118898.044263","119664.574286","120430.882322","121197.481599","129723.935849","Mapping"
"Blocked","m150","cave","12","m150romp.wav","None","725.678039715","173","129714.326746","121964.055524","122730.864111","123497.498325","124263.796777","125031.301313","125797.901518","126564.491829","130481.308161","131247.922279","117364.132137","118131.151581","118898.044263","119664.574286","120430.882322","121197.481599","130486.893685","Mapping"
"Blocked","m150","cave","12","m150romp.wav","None","720.832986757","173","129714.326746","121964.055524","122730.864111","123497.498325","124263.796777","125031.301313","125797.901518","126564.491829","130481.308161","131247.922279","132015.050242","118131.151581","118898.044263","119664.574286","120430.882322","121197.481599","131257.075661","Mapping"
"Blocked","m150","cave","12","m150cave.wav","None","718.714223243","173","129714.326746","121964.055524","122730.864111","123497.498325","124263.796777","125031.301313","125797.901518","126564.491829","130481.308161","131247.922279","132015.050242","132763.710363","118898.044263","119664.574286","120430.882322","121197.481599","132024.629355","Mapping"
"Blocked","m150","cave","12","m150jolt.wav","space","359.583580866","173","129714.326746","121964.055524","122730.864111","123497.498325","124263.796777","125031.301313","125797.901518","126564.491829","130481.308161","131247.922279","132015.050242","132763.710363","133530.872645","119664.574286","120430.882322","121197.481599","132773.385011","Mapping"
"Blocked","m150","cave","12","m150done.wav","None","733.73076506","173","129714.326746","121964.055524","122730.864111","123497.498325","124263.796777","125031.301313","125797.901518","126564.491829","130481.308161","131247.922279","132015.050242","132763.710363","133530.872645","134297.284254","120430.882322","121197.481599","133540.337982","Mapping"
"Blocked","m150","cave","12","m150lash.wav","None","732.918567024","173","129714.326746","121964.055524","122730.864111","123497.498325","124263.796777","125031.301313","125797.901518","126564.491829","130481.308161","131247.922279","132015.050242","132763.710363","133530.872645","134297.284254","135063.851068","121197.481599","134306.549865","Mapping"
"Blocked","m150","cave","12","m150priest.wav","None","731.850992423","173","129714.326746","121964.055524","122730.864111","123497.498325","124263.796777","125031.301313","125797.901518","126564.491829","130481.308161","131247.922279","132015.050242","132763.710363","133530.872645","134297.284254","135063.851068","135830.741586","135073.005686","Mapping"
"Blocked","m150","cave","12","m150cave.wav","None","729.560946114","173","129714.326746","136597.131862","122730.864111","123497.498325","124263.796777","125031.301313","125797.901518","126564.491829","130481.308161","131247.922279","132015.050242","132763.710363","133530.872645","134297.284254","135063.851068","135830.741586","135840.713968","Mapping"
"Blocked","m150","cave","12","m150jolt.wav","space","454.613219481","173","129714.326746","136597.131862","137363.782153","123497.498325","124263.796777","125031.301313","125797.901518","126564.491829","130481.308161","131247.922279","132015.050242","132763.710363","133530.872645","134297.284254","135063.851068","135830.741586","136606.300703","Mapping"
"Blocked","m150","cave","12","m150park.wav","None","728.101030458","173","129714.326746","136597.131862","137363.782153","138130.697715","124263.796777","125031.301313","125797.901518","126564.491829","130481.308161","131247.922279","132015.050242","132763.710363","133530.872645","134297.284254","135063.851068","135830.741586","137372.816503","Mapping"
"Blocked","m150","cave","12","m150cave.wav","None","726.314627565","173","129714.326746","136597.131862","137363.782153","138130.697715","138897.026465","125031.301313","125797.901518","126564.491829","130481.308161","131247.922279","132015.050242","132763.710363","133530.872645","134297.284254","135063.851068","135830.741586","138139.878303","Mapping"
"Blocked","m150","cave","12","m150done.wav","space","346.621494275","173","129714.326746","136597.131862","137363.782153","138130.697715","138897.026465","139664.216572","125797.901518","126564.491829","130481.308161","131247.922279","132015.050242","132763.710363","133530.872645","134297.284254","135063.851068","135830.741586","138906.265797","Mapping"
"Blocked","m150","cave","12","m150cave.wav","None","722.468203865","173","129714.326746","136597.131862","137363.782153","138130.697715","138897.026465","139664.216572","140431.068135","126564.491829","130481.308161","131247.922279","132015.050242","132763.710363","133530.872645","134297.284254","135063.851068","135830.741586","139674.25017","Mapping"
"Blocked","m150","cave","12","m150lash.wav","space","540.018296801","173","129714.326746","136597.131862","137363.782153","138130.697715","138897.026465","139664.216572","140431.068135","141196.642503","130481.308161","131247.922279","132015.050242","132763.710363","133530.872645","134297.284254","135063.851068","135830.741586","140440.815748","Mapping"
"Blocked","m150","ball","1","m150done.wav","None","725.118436851","173","144330.418036","136597.131862","137363.782153","138130.697715","138897.026465","139664.216572","140431.068135","141196.642503","130481.308161","131247.922279","132015.050242","132763.710363","133530.872645","134297.284254","135063.851068","135830.741586","141205.483929","Mapping"
"Blocked","m150","ball","1","m150ball.wav","None","723.35583996","173","144330.418036","136597.131862","137363.782153","138130.697715","138897.026465","139664.216572","140431.068135","141196.642503","145097.619274","131247.922279","132015.050242","132763.710363","133530.872645","134297.284254","135063.851068","135830.741586","144339.463517","Mapping"
"Blocked","m150","ball","1","m150cave.wav","space","393.100120127","173","144330.418036","136597.131862","137363.782153","138130.697715","138897.026465","139664.216572","140431.068135","141196.642503","145097.619274","145864.214841","132015.050242","132763.710363","133530.872645","134297.284254","135063.851068","135830.741586","145107.614534","Mapping"
"Blocked","m150","ball","1","m150ball.wav","None","719.498904422","173","144330.418036","136597.131862","137363.782153","138130.697715","138897.026465","139664.216572","140431.068135","141196.642503","145097.619274","145864.214841","146613.487434","132763.710363","133530.872645","134297.284254","135063.851068","135830.741586","145874.140847","Mapping"
"Blocked","m150","ball","1","m150priest.wav","space","413.286038209","173","144330.418036","136597.131862","137363.782153","138130.697715","138897.026465","139664.216572","140431.068135","141196.642503","145097.619274","145864.214841","146613.487434","147380.416599","133530.872645","134297.284254","135063.851068","135830.741586","146623.393961","Mapping"
"Blocked","m150","ball","1","m150romp.wav","None","734.484838787","173","144330.418036","136597.131862","137363.782153","138130.697715","138897.026465","139664.216572","140431.068135","141196.642503","145097.619274","145864.214841","146613.487434","147380.416599","148147.177882","134297.284254","135063.851068","135830.741586","147389.682828","Mapping"
"Blocked","m150","ball","1","m150gnash.wav","None","732.126156334","173","144330.418036","136597.131862","137363.782153","138130.697715","138897.026465","139664.216572","140431.068135","141196.642503","145097.619274","145864.214841","146613.487434","147380.416599","148147.177882","148913.596293","135063.851068","135830.741586","148157.350609","Mapping"
"Blocked","m150","ball","1","m150cad.wav","None","732.082253322","173","144330.418036","136597.131862","137363.782153","138130.697715","138897.026465","139664.216572","140431.068135","141196.642503","145097.619274","145864.214841","146613.487434","147380.416599","148147.177882","148913.596293","149680.601825","135830.741586","148922.951256","Mapping"
"Blocked","m150","ball","1","m150dime.wav","None","730.178365018","173","144330.418036","136597.131862","137363.782153","138130.697715","138897.026465","139664.216572","140431.068135","141196.642503","145097.619274","145864.214841","146613.487434","147380.416599","148147.177882","148913.596293","149680.601825","150447.185025","149690.520719","Mapping"
"Blocked","m150","ball","1","m150ball.wav","None","729.646896478","173","144330.418036","151213.590141","137363.782153","138130.697715","138897.026465","139664.216572","140431.068135","141196.642503","145097.619274","145864.214841","146613.487434","147380.416599","148147.177882","148913.596293","149680.601825","150447.185025","150456.537205","Mapping"
"Blocked","m150","ball","1","m150lash.wav","space","389.897085726","173","144330.418036","151213.590141","151980.306595","138130.697715","138897.026465","139664.216572","140431.068135","141196.642503","145097.619274","145864.214841","146613.487434","147380.416599","148147.177882","148913.596293","149680.601825","150447.185025","151222.735793","Mapping"
"Blocked","m150","ball","1","m150reek.wav","None","726.590409875","173","144330.418036","151213.590141","151980.306595","152747.048092","138897.026465","139664.216572","140431.068135","141196.642503","145097.619274","145864.214841","146613.487434","147380.416599","148147.177882","148913.596293","149680.601825","150447.185025","151990.224871","Mapping"
"Blocked","m150","ball","1","m150bluff.wav","None","725.568283349","173","144330.418036","151213.590141","151980.306595","152747.048092","153513.596046","139664.216572","140431.068135","141196.642503","145097.619274","145864.214841","146613.487434","147380.416599","148147.177882","148913.596293","149680.601825","150447.185025","152756.585467","Mapping"
"Blocked","m150","ball","1","m150ball.wav","None","724.877590779","173","144330.418036","151213.590141","151980.306595","152747.048092","153513.596046","154280.567259","140431.068135","141196.642503","145097.619274","145864.214841","146613.487434","147380.416599","148147.177882","148913.596293","149680.601825","150447.185025","153522.890102","Mapping"
"Blocked","m150","ball","1","m150romp.wav","space","297.98082076","173","144330.418036","151213.590141","151980.306595","152747.048092","153513.596046","154280.567259","155047.254341","141196.642503","145097.619274","145864.214841","146613.487434","147380.416599","148147.177882","148913.596293","149680.601825","150447.185025","154290.616315","Mapping"
"Blocked","m150","ball","1","m150reek.wav","None","721.467410214","173","144330.418036","151213.590141","151980.306595","152747.048092","153513.596046","154280.567259","155047.254341","155813.950699","145097.619274","145864.214841","146613.487434","147380.416599","148147.177882","148913.596293","149680.601825","150447.185025","155057.447163","Mapping"
"Blocked","m150","cave","7","m150park.wav","None","721.53604636","173","158930.768082","151213.590141","151980.306595","152747.048092","153513.596046","154280.567259","155047.254341","155813.950699","145097.619274","145864.214841","146613.487434","147380.416599","148147.177882","148913.596293","149680.601825","150447.185025","155823.281855","Mapping"
"Blocked","m150","cave","7","m150done.wav","None","721.313751303","173","158930.768082","151213.590141","151980.306595","152747.048092","153513.596046","154280.567259","155047.254341","155813.950699","159697.186803","145864.214841","146613.487434","147380.416599","148147.177882","148913.596293","149680.601825","150447.185025","158941.196803","Mapping"
"Blocked","m150","cave","7","m150depth.wav","None","721.03704093","173","158930.768082","151213.590141","151980.306595","152747.048092","153513.596046","154280.567259","155047.254341","155813.950699","159697.186803","160463.991061","146613.487434","147380.416599","148147.177882","148913.596293","149680.601825","150447.185025","159707.320882","Mapping"
"Blocked","m150","cave","7","m150reek.wav","None","720.177539624","173","158930.768082","151213.590141","151980.306595","152747.048092","153513.596046","154280.567259","155047.254341","155813.950699","159697.186803","160463.991061","161213.711028","147380.416599","148147.177882","148913.596293","149680.601825","150447.185025","160473.654888","Mapping"
"Blocked","m150","cave","7","m150cave.wav","None","735.968870111","173","158930.768082","151213.590141","151980.306595","152747.048092","153513.596046","154280.567259","155047.254341","155813.950699","159697.186803","160463.991061","161213.711028","161980.114289","148147.177882","148913.596293","149680.601825","150447.185025","161223.18193","Mapping"
"Blocked","m150","cave","7","m150tile.wav","space","389.959847555","173","158930.768082","151213.590141","151980.306595","152747.048092","153513.596046","154280.567259","155047.254341","155813.950699","159697.186803","160463.991061","161213.711028","161980.114289","162746.852694","148913.596293","149680.601825","150447.185025","161990.424288","Mapping"
"Blocked","m150","cave","7","m150depth.wav","None","733.441378921","173","158930.768082","151213.590141","151980.306595","152747.048092","153513.596046","154280.567259","155047.254341","155813.950699","159697.186803","160463.991061","161213.711028","161980.114289","162746.852694","163513.52741","149680.601825","150447.185025","162756.357297","Mapping"
"Blocked","m150","cave","7","m150bluff.wav","None","732.775110751","173","158930.768082","151213.590141","151980.306595","152747.048092","153513.596046","154280.567259","155047.254341","155813.950699","159697.186803","160463.991061","161213.711028","161980.114289","162746.852694","163513.52741","164280.327341","150447.185025","163522.677082","Mapping"
"Blocked","m150","cave","7","m150cave.wav","None","731.457414571","173","158930.768082","151213.590141","151980.306595","152747.048092","153513.596046","154280.567259","155047.254341","155813.950699","159697.186803","160463.991061","161213.711028","161980.114289","162746.852694","163513.52741","164280.327341","165046.805113","164289.550905","Mapping"
"Blocked","m150","cave","7","m150ball.wav","space","363.954980392","173","158930.768082","165813.457568","151980.306595","152747.048092","153513.596046","154280.567259","155047.254341","155813.950699","159697.186803","160463.991061","161213.711028","161980.114289","162746.852694","163513.52741","164280.327341","165046.805113","165056.435858","Mapping"
"Blocked","m150","cave","7","m150cave.wav","None","728.28591615","173","158930.768082","165813.457568","166580.055299","152747.048092","153513.596046","154280.567259","155047.254341","155813.950699","159697.186803","160463.991061","161213.711028","161980.114289","162746.852694","163513.52741","164280.327341","165046.805113","165823.390375","Mapping"
"Blocked","m150","cave","7","m150knife.wav","space","655.185623094","173","158930.768082","165813.457568","166580.055299","167346.824003","153513.596046","154280.567259","155047.254341","155813.950699","159697.186803","160463.991061","161213.711028","161980.114289","162746.852694","163513.52741","164280.327341","165046.805113","166589.1453","Mapping"
"Blocked","m150","cave","7","m150jolt.wav","None","725.823970046","173","158930.768082","165813.457568","166580.055299","167346.824003","168113.450178","154280.567259","155047.254341","155813.950699","159697.186803","160463.991061","161213.711028","161980.114289","162746.852694","163513.52741","164280.327341","165046.805113","167356.8205","Mapping"
"Blocked","m150","cave","7","m150reek.wav","None","724.807099439","173","158930.768082","165813.457568","166580.055299","167346.824003","168113.450178","168880.210844","155047.254341","155813.950699","159697.186803","160463.991061","161213.711028","161980.114289","162746.852694","163513.52741","164280.327341","165046.805113","168123.421632","Mapping"
"Blocked","m150","cave","7","m150cave.wav","None","723.946979269","173","158930.768082","165813.457568","166580.055299","167346.824003","168113.450178","168880.210844","169647.11713","155813.950699","159697.186803","160463.991061","161213.711028","161980.114289","162746.852694","163513.52741","164280.327341","165046.805113","168889.768933","Mapping"
"Blocked","m150","cave","7","m150jolt.wav","space","347.599099856","173","158930.768082","165813.457568","166580.055299","167346.824003","168113.450178","168880.210844","169647.11713","170413.706823","159697.186803","160463.991061","161213.711028","161980.114289","162746.852694","163513.52741","164280.327341","165046.805113","169656.706137","Mapping"
"Blocked","m150","cave","11","m150park.wav","None","720.820928924","173","173530.467937","165813.457568","166580.055299","167346.824003","168113.450178","168880.210844","169647.11713","170413.706823","159697.186803","160463.991061","161213.711028","161980.114289","162746.852694","163513.52741","164280.327341","165046.805113","170423.712905","Mapping"
"Blocked","m150","cave","11","m150ball.wav","None","720.633260906","173","173530.467937","165813.457568","166580.055299","167346.824003","168113.450178","168880.210844","169647.11713","170413.706823","174297.006307","160463.991061","161213.711028","161980.114289","162746.852694","163513.52741","164280.327341","165046.805113","173540.227298","Mapping"
"Blocked","m150","cave","11","m150cave.wav","None","719.691828359","173","173530.467937","165813.457568","166580.055299","167346.824003","168113.450178","168880.210844","169647.11713","170413.706823","174297.006307","175046.525311","161213.711028","161980.114289","162746.852694","163513.52741","164280.327341","165046.805113","174306.859039","Mapping"
"Blocked","m150","cave","11","m150gnash.wav","space","316.367660183","173","173530.467937","165813.457568","166580.055299","167346.824003","168113.450178","168880.210844","169647.11713","170413.706823","174297.006307","175046.525311","175813.159524","161980.114289","162746.852694","163513.52741","164280.327341","165046.805113","175055.843482","Mapping"
"Blocked","m150","cave","11","m150depth.wav","None","734.640661627","173","173530.467937","165813.457568","166580.055299","167346.824003","168113.450178","168880.210844","169647.11713","170413.706823","174297.006307","175046.525311","175813.159524","176580.084361","162746.852694","163513.52741","164280.327341","165046.805113","175822.380306","Mapping"
"Blocked","m150","cave","11","m150jolt.wav","None","733.016265556","173","173530.467937","165813.457568","166580.055299","167346.824003","168113.450178","168880.210844","169647.11713","170413.706823","174297.006307","175046.525311","175813.159524","176580.084361","177346.392088","163513.52741","164280.327341","165046.805113","176589.500231","Mapping"
"Blocked","m150","cave","11","m150bluff.wav","space","336.910982151","173","173530.467937","165813.457568","166580.055299","167346.824003","168113.450178","168880.210844","169647.11713","170413.706823","174297.006307","175046.525311","175813.159524","176580.084361","177346.392088","178113.060311","164280.327341","165046.805113","177355.228567","Mapping"
"Blocked","m150","cave","11","m150cave.wav","None","730.939240195","173","173530.467937","165813.457568","166580.055299","167346.824003","168113.450178","168880.210844","169647.11713","170413.706823","174297.006307","175046.525311","175813.159524","176580.084361","177346.392088","178113.060311","178880.050074","165046.805113","178122.316029","Mapping"
"Blocked","m150","cave","11","m150depth.wav","space","442.897719797","173","173530.467937","165813.457568","166580.055299","167346.824003","168113.450178","168880.210844","169647.11713","170413.706823","174297.006307","175046.525311","175813.159524","176580.084361","177346.392088","178113.060311","178880.050074","179646.334304","178889.222933","Mapping"
"Blocked","m150","cave","11","m150depth.wav","None","728.099484462","173","173530.467937","180413.005309","166580.055299","167346.824003","168113.450178","168880.210844","169647.11713","170413.706823","174297.006307","175046.525311","175813.159524","176580.084361","177346.392088","178113.060311","178880.050074","179646.334304","179655.641035","Mapping"
"Blocked","m150","cave","11","m150reek.wav","None","727.431670297","173","173530.467937","180413.005309","181180.037119","167346.824003","168113.450178","168880.210844","169647.11713","170413.706823","174297.006307","175046.525311","175813.159524","176580.084361","177346.392088","178113.060311","178880.050074","179646.334304","180422.031311","Mapping"
"Blocked","m150","cave","11","m150cave.wav","None","725.900335703","173","173530.467937","180413.005309","181180.037119","181946.616919","168113.450178","168880.210844","169647.11713","170413.706823","174297.006307","175046.525311","175813.159524","176580.084361","177346.392088","178113.060311","178880.050074","179646.334304","181189.249244","Mapping"
"Blocked","m150","cave","11","m150gnash.wav","space","335.484457202","173","173530.467937","180413.005309","181180.037119","181946.616919","182713.554122","168880.210844","169647.11713","170413.706823","174297.006307","175046.525311","175813.159524","176580.084361","177346.392088","178113.060311","178880.050074","179646.334304","181956.593629","Mapping"
"Blocked","m150","cave","11","m150cad.wav","None","722.767483443","173","173530.467937","180413.005309","181180.037119","181946.616919","182713.554122","183480.543267","169647.11713","170413.706823","174297.006307","175046.525311","175813.159524","176580.084361","177346.392088","178113.060311","178880.050074","179646.334304","182723.108502","Mapping"
"Blocked","m150","cave","11","m150cave.wav","None","721.378677525","173","173530.467937","180413.005309","181180.037119","181946.616919","182713.554122","183480.543267","184246.509667","170413.706823","174297.006307","175046.525311","175813.159524","176580.084361","177346.392088","178113.060311","178880.050074","179646.334304","183490.12609","Mapping"
"Blocked","m150","cave","11","m150priest.wav","space","513.559254352","173","173530.467937","180413.005309","181180.037119","181946.616919","182713.554122","183480.543267","184246.509667","185013.492937","174297.006307","175046.525311","175813.159524","176580.084361","177346.392088","178113.060311","178880.050074","179646.334304","184250.479141","Mapping"
"Blocked","m150","done","24","m150bluff.wav","None","718.390827533","173","188130.217259","180413.005309","181180.037119","181946.616919","182713.554122","183480.543267","184246.509667","185013.492937","174297.006307","175046.525311","175813.159524","176580.084361","177346.392088","178113.060311","178880.050074","179646.334304","185023.820868","Mapping"
"Blocked","m150","done","24","m150reek.wav","None","722.00042475","173","188130.217259","180413.005309","181180.037119","181946.616919","182713.554122","183480.543267","184246.509667","185013.492937","188896.773252","175046.525311","175813.159524","176580.084361","177346.392088","178113.060311","178880.050074","179646.334304","188139.956215","Mapping"
"Blocked","m150","done","24","m150done.wav","None","720.617802348","173","188130.217259","180413.005309","181180.037119","181946.616919","182713.554122","183480.543267","184246.509667","185013.492937","188896.773252","189663.557106","175813.159524","176580.084361","177346.392088","178113.060311","178880.050074","179646.334304","188907.054189","Mapping"
"Blocked","m150","done","24","m150jaw.wav","space","338.430259842","173","188130.217259","180413.005309","181180.037119","181946.616919","182713.554122","183480.543267","184246.509667","185013.492937","188896.773252","189663.557106","190413.280782","176580.084361","177346.392088","178113.060311","178880.050074","179646.334304","189673.537835","Mapping"
"Blocked","m150","done","24","m150gnash.wav","None","735.698652454","173","188130.217259","180413.005309","181180.037119","181946.616919","182713.554122","183480.543267","184246.509667","185013.492937","188896.773252","189663.557106","190413.280782","191179.239144","177346.392088","178113.060311","178880.050074","179646.334304","190422.649349","Mapping"
"Blocked","m150","done","24","m150dime.wav","None","736.59927398","173","188130.217259","180413.005309","181180.037119","181946.616919","182713.554122","183480.543267","184246.509667","185013.492937","188896.773252","189663.557106","190413.280782","191179.239144","191946.298779","178113.060311","178880.050074","179646.334304","191188.033575","Mapping"
"Blocked","m150","done","24","m150done.wav","space","352.196196094","173","188130.217259","180413.005309","181180.037119","181946.616919","182713.554122","183480.543267","184246.509667","185013.492937","188896.773252","189663.557106","190413.280782","191179.239144","191946.298779","192713.043986","178880.050074","179646.334304","191955.709703","Mapping"
"Blocked","m150","done","24","m150romp.wav","space","697.499067057","173","188130.217259","180413.005309","181180.037119","181946.616919","182713.554122","183480.543267","184246.509667","185013.492937","188896.773252","189663.557106","190413.280782","191179.239144","191946.298779","192713.043986","193479.82784","179646.334304","192722.352573","Mapping"
"Blocked","m150","done","24","m150tile.wav","None","731.209148187","173","188130.217259","180413.005309","181180.037119","181946.616919","182713.554122","183480.543267","184246.509667","185013.492937","188896.773252","189663.557106","190413.280782","191179.239144","191946.298779","192713.043986","193479.82784","194246.085172","193489.53557","Mapping"
"Blocked","m150","done","24","m150greet.wav","None","731.068474706","173","188130.217259","195012.9457","181180.037119","181946.616919","182713.554122","183480.543267","184246.509667","185013.492937","188896.773252","189663.557106","190413.280782","191179.239144","191946.298779","192713.043986","193479.82784","194246.085172","194255.349547","Mapping"
"Blocked","m150","done","24","m150greet.wav","None","729.864863213","173","188130.217259","195012.9457","195779.665246","181946.616919","182713.554122","183480.543267","184246.509667","185013.492937","188896.773252","189663.557106","190413.280782","191179.239144","191946.298779","192713.043986","193479.82784","194246.085172","195022.32045","Mapping"
"Blocked","m150","done","24","m150done.wav","None","729.242498055","173","188130.217259","195012.9457","195779.665246","196546.106845","182713.554122","183480.543267","184246.509667","185013.492937","188896.773252","189663.557106","190413.280782","191179.239144","191946.298779","192713.043986","193479.82784","194246.085172","195788.730513","Mapping"
"Blocked","m150","done","24","m150park.wav","space","416.532047559","173","188130.217259","195012.9457","195779.665246","196546.106845","197312.968301","183480.543267","184246.509667","185013.492937","188896.773252","189663.557106","190413.280782","191179.239144","191946.298779","192713.043986","193479.82784","194246.085172","196555.258062","Mapping"
"Blocked","m150","done","24","m150done.wav","None","726.547434926","173","188130.217259","195012.9457","195779.665246","196546.106845","197312.968301","198079.687228","184246.509667","185013.492937","188896.773252","189663.557106","190413.280782","191179.239144","191946.298779","192713.043986","193479.82784","194246.085172","197322.423127","Mapping"
"Blocked","m150","done","24","m150ball.wav","space","466.473721899","173","188130.217259","195012.9457","195779.665246","196546.106845","197312.968301","198079.687228","198846.762941","185013.492937","188896.773252","189663.557106","190413.280782","191179.239144","191946.298779","192713.043986","193479.82784","194246.085172","198089.320138","Mapping"
"Blocked","m150","done","24","m150reek.wav","None","723.130452912","173","188130.217259","195012.9457","195779.665246","196546.106845","197312.968301","198079.687228","198846.762941","199613.407976","188896.773252","189663.557106","190413.280782","191179.239144","191946.298779","192713.043986","193479.82784","194246.085172","198856.502515","Mapping"
"Blocked","m150","ball","4","m150done.wav","None","722.502212971","173","202746.446132","195012.9457","195779.665246","196546.106845","197312.968301","198079.687228","198846.762941","199613.407976","188896.773252","189663.557106","190413.280782","191179.239144","191946.298779","192713.043986","193479.82784","194246.085172","199622.974104","Mapping"
"Blocked","m150","ball","4","m150jolt.wav","None","721.029930282","173","202746.446132","195012.9457","195779.665246","196546.106845","197312.968301","198079.687228","198846.762941","199613.407976","203513.180208","189663.557106","190413.280782","191179.239144","191946.298779","192713.043986","193479.82784","194246.085172","202756.701407","Mapping"
"Blocked","m150","ball","4","m150ball.wav","None","720.370463561","173","202746.446132","195012.9457","195779.665246","196546.106845","197312.968301","198079.687228","198846.762941","199613.407976","203513.180208","204279.933145","190413.280782","191179.239144","191946.298779","192713.043986","193479.82784","194246.085172","203522.766124","Mapping"
"Blocked","m150","ball","4","m150knife.wav","space","410.102791153","173","202746.446132","195012.9457","195779.665246","196546.106845","197312.968301","198079.687228","198846.762941","199613.407976","203513.180208","204279.933145","205045.885013","191179.239144","191946.298779","192713.043986","193479.82784","194246.085172","204289.552141","Mapping"
"Blocked","m150","ball","4","m150ball.wav","None","722.797164228","173","202746.446132","195012.9457","195779.665246","196546.106845","197312.968301","198079.687228","198846.762941","199613.407976","203513.180208","204279.933145","205045.885013","205813.097999","191946.298779","192713.043986","193479.82784","194246.085172","205055.092809","Mapping"
"Blocked","m150","ball","4","m150jolt.wav","space","436.846890952","173","202746.446132","195012.9457","195779.665246","196546.106845","197312.968301","198079.687228","198846.762941","199613.407976","203513.180208","204279.933145","205045.885013","205813.097999","206579.919572","192713.043986","193479.82784","194246.085172","205822.770174","Mapping"
"Blocked","m150","ball","4","m150priest.wav","None","719.218174927","173","202746.446132","195012.9457","195779.665246","196546.106845","197312.968301","198079.687228","198846.762941","199613.407976","203513.180208","204279.933145","205045.885013","205813.097999","206579.919572","207329.699827","193479.82784","194246.085172","206589.617099","Mapping"
"Blocked","m150","ball","4","m150cling.wav","None","735.733898357","173","202746.446132","195012.9457","195779.665246","196546.106845","197312.968301","198079.687228","198846.762941","199613.407976","203513.180208","204279.933145","205045.885013","205813.097999","206579.919572","207329.699827","208095.657879","194246.085172","207339.029747","Mapping"
"Blocked","m150","ball","4","m150reek.wav","None","735.735135153","173","202746.446132","195012.9457","195779.665246","196546.106845","197312.968301","198079.687228","198846.762941","199613.407976","203513.180208","204279.933145","205045.885013","205813.097999","206579.919572","207329.699827","208095.657879","208862.689071","208104.827029","Mapping"
"Blocked","m150","ball","4","m150cad.wav","None","734.290678054","173","202746.446132","209629.267325","195779.665246","196546.106845","197312.968301","198079.687228","198846.762941","199613.407976","203513.180208","204279.933145","205045.885013","205813.097999","206579.919572","207329.699827","208095.657879","208862.689071","208872.014662","Mapping"
"Blocked","m150","ball","4","m150ball.wav","None","733.345844317","173","202746.446132","209629.267325","210396.087352","196546.106845","197312.968301","198079.687228","198846.762941","199613.407976","203513.180208","204279.933145","205045.885013","205813.097999","206579.919572","207329.699827","208095.657879","208862.689071","209638.820468","Mapping"
"Blocked","m150","ball","4","m150jaw.wav","space","446.05530519","173","202746.446132","209629.267325","210396.087352","211162.651383","197312.968301","198079.687228","198846.762941","199613.407976","203513.180208","204279.933145","205045.885013","205813.097999","206579.919572","207329.699827","208095.657879","208862.689071","210405.549907","Mapping"
"Blocked","m150","ball","4","m150knife.wav","None","731.859649066","173","202746.446132","209629.267325","210396.087352","211162.651383","211929.389479","198079.687228","198846.762941","199613.407976","203513.180208","204279.933145","205045.885013","205813.097999","206579.919572","207329.699827","208095.657879","208862.689071","211172.026133","Mapping"
"Blocked","m150","ball","4","m150ball.wav","None","730.616463348","173","202746.446132","209629.267325","210396.087352","211162.651383","211929.389479","212695.960003","198846.762941","199613.407976","203513.180208","204279.933145","205045.885013","205813.097999","206579.919572","207329.699827","208095.657879","208862.689071","211939.106483","Mapping"
"Blocked","m150","ball","4","m150romp.wav","space","386.151761282","173","202746.446132","209629.267325","210396.087352","211162.651383","211929.389479","212695.960003","213462.427263","199613.407976","203513.180208","204279.933145","205045.885013","205813.097999","206579.919572","207329.699827","208095.657879","208862.689071","212705.386385","Mapping"
"Blocked","m150","ball","4","m150cave.wav","None","729.163658805","173","202746.446132","209629.267325","210396.087352","211162.651383","211929.389479","212695.960003","213462.427263","214229.425992","203513.180208","204279.933145","205045.885013","205813.097999","206579.919572","207329.699827","208095.657879","208862.689071","213471.607543","Mapping"
"Blocked","m150","done","21","m150jaw.wav","None","728.562626056","173","217362.830518","209629.267325","210396.087352","211162.651383","211929.389479","212695.960003","213462.427263","214229.425992","203513.180208","204279.933145","205045.885013","205813.097999","206579.919572","207329.699827","208095.657879","208862.689071","214238.538872","Mapping"
"Blocked","m150","done","21","m150done.wav","None","721.567891538","173","217362.830518","209629.267325","210396.087352","211162.651383","211929.389479","212695.960003","213462.427263","214229.425992","218129.65982","204279.933145","205045.885013","205813.097999","206579.919572","207329.699827","208095.657879","208862.689071","217372.912038","Mapping"
"Blocked","m150","done","21","m150park.wav","space","463.95767061","173","217362.830518","209629.267325","210396.087352","211162.651383","211929.389479","212695.960003","213462.427263","214229.425992","218129.65982","218896.489431","205045.885013","205813.097999","206579.919572","207329.699827","208095.657879","208862.689071","218139.427529","Mapping"
"Blocked","m150","done","21","m150greet.wav","None","719.251256436","173","217362.830518","209629.267325","210396.087352","211162.651383","211929.389479","212695.960003","213462.427263","214229.425992","218129.65982","218896.489431","219645.700498","205813.097999","206579.919572","207329.699827","208095.657879","208862.689071","218906.137799","Mapping"
"Blocked","m150","done","21","m150done.wav","None","736.326583195","173","217362.830518","209629.267325","210396.087352","211162.651383","211929.389479","212695.960003","213462.427263","214229.425992","218129.65982","218896.489431","219645.700498","220412.259583","206579.919572","207329.699827","208095.657879","208862.689071","219654.963637","Mapping"
"Blocked","m150","done","21","m150cad.wav","space","358.061830048","173","217362.830518","209629.267325","210396.087352","211162.651383","211929.389479","212695.960003","213462.427263","214229.425992","218129.65982","218896.489431","219645.700498","220412.259583","221179.175454","207329.699827","208095.657879","208862.689071","220421.339073","Mapping"
"Blocked","m150","done","21","m150cling.wav","None","733.998199925","173","217362.830518","209629.267325","210396.087352","211162.651383","211929.389479","212695.960003","213462.427263","214229.425992","218129.65982","218896.489431","219645.700498","220412.259583","221179.175454","221945.606541","208095.657879","208862.689071","221188.387269","Mapping"
"Blocked","m150","done","21","m150gnash.wav","None","733.56164759","173","217362.830518","209629.267325","210396.087352","211162.651383","211929.389479","212695.960003","213462.427263","214229.425992","218129.65982","218896.489431","219645.700498","220412.259583","221179.175454","221945.606541","222712.397196","208862.689071","221954.699943","Mapping"
"Blocked","m150","done","21","m150done.wav","None","732.286308426","173","217362.830518","209629.267325","210396.087352","211162.651383","211929.389479","212695.960003","213462.427263","214229.425992","218129.65982","218896.489431","219645.700498","220412.259583","221179.175454","221945.606541","222712.397196","223479.030173","222721.728352","Mapping"
"Blocked","m150","done","21","m150cad.wav","space","362.921105698","173","217362.830518","224245.806298","210396.087352","211162.651383","211929.389479","212695.960003","213462.427263","214229.425992","218129.65982","218896.489431","219645.700498","220412.259583","221179.175454","221945.606541","222712.397196","223479.030173","223488.44357","Mapping"
"Blocked","m150","done","21","m150gnash.wav","None","729.679977987","173","217362.830518","224245.806298","225012.372802","211162.651383","211929.389479","212695.960003","213462.427263","214229.425992","218129.65982","218896.489431","219645.700498","220412.259583","221179.175454","221945.606541","222712.397196","223479.030173","224255.313064","Mapping"
"Blocked","m150","done","21","m150done.wav","None","729.205706157","173","217362.830518","224245.806298","225012.372802","225779.164076","211929.389479","212695.960003","213462.427263","214229.425992","218129.65982","218896.489431","219645.700498","220412.259583","221179.175454","221945.606541","222712.397196","223479.030173","225021.586164","Mapping"
"Blocked","m150","done","21","m150ball.wav","space","358.791788109","173","217362.830518","224245.806298","225012.372802","225779.164076","226545.831372","212695.960003","213462.427263","214229.425992","218129.65982","218896.489431","219645.700498","220412.259583","221179.175454","221945.606541","222712.397196","223479.030173","225788.49987","Mapping"
"Blocked","m150","done","21","m150bluff.wav","None","726.295767818","173","217362.830518","224245.806298","225012.372802","225779.164076","226545.831372","227312.189494","213462.427263","214229.425992","218129.65982","218896.489431","219645.700498","220412.259583","221179.175454","221945.606541","222712.397196","223479.030173","226555.566926","Mapping"
"Blocked","m150","done","21","m150cling.wav","None","726.524865255","173","217362.830518","224245.806298","225012.372802","225779.164076","226545.831372","227312.189494","228078.788462","214229.425992","218129.65982","218896.489431","219645.700498","220412.259583","221179.175454","221945.606541","222712.397196","223479.030173","227321.258471","Mapping"
"Blocked","m150","done","21","m150knife.wav","None","725.78130383","173","217362.830518","224245.806298","225012.372802","225779.164076","226545.831372","227312.189494","228078.788462","228846.294544","218129.65982","218896.489431","219645.700498","220412.259583","221179.175454","221945.606541","222712.397196","223479.030173","228087.868879","Mapping"
"Blocked","m150","done","19","m150cad.wav","None","723.609980661","173","231979.418959","224245.806298","225012.372802","225779.164076","226545.831372","227312.189494","228078.788462","228846.294544","218129.65982","218896.489431","219645.700498","220412.259583","221179.175454","221945.606541","222712.397196","223479.030173","228855.988051","Mapping"
"Blocked","m150","done","19","m150priest.wav","None","721.038586926","173","231979.418959","224245.806298","225012.372802","225779.164076","226545.831372","227312.189494","228078.788462","228846.294544","232745.918682","218896.489431","219645.700498","220412.259583","221179.175454","221945.606541","222712.397196","223479.030173","231989.266434","Mapping"
"Blocked","m150","done","19","m150reek.wav","None","725.999580231","173","231979.418959","224245.806298","225012.372802","225779.164076","226545.831372","227312.189494","228078.788462","228846.294544","232745.918682","233512.644411","219645.700498","220412.259583","221179.175454","221945.606541","222712.397196","223479.030173","232750.316671","Mapping"
"Blocked","m150","done","19","m150jolt.wav","None","720.191761386","173","231979.418959","224245.806298","225012.372802","225779.164076","226545.831372","227312.189494","228078.788462","228846.294544","232745.918682","233512.644411","234279.457636","220412.259583","221179.175454","221945.606541","222712.397196","223479.030173","233522.192607","Mapping"
"Blocked","m150","done","19","m150done.wav","None","719.315873925","173","231979.418959","224245.806298","225012.372802","225779.164076","226545.831372","227312.189494","228078.788462","228846.294544","232745.918682","233512.644411","234279.457636","235046.021359","221179.175454","221945.606541","222712.397196","223479.030173","234289.561726","Mapping"
"Blocked","m150","done","19","m150lash.wav","space","483.373747673","173","231979.418959","224245.806298","225012.372802","225779.164076","226545.831372","227312.189494","228078.788462","228846.294544","232745.918682","233512.644411","234279.457636","235046.021359","235795.579009","221945.606541","222712.397196","223479.030173","235055.742691","Mapping"
"Blocked","m150","done","19","m150done.wav","None","734.762167092","173","231979.418959","224245.806298","225012.372802","225779.164076","226545.831372","227312.189494","228078.788462","228846.294544","232745.918682","233512.644411","234279.457636","235046.021359","235795.579009","236562.036994","222712.397196","223479.030173","235805.0394","Mapping"
"Blocked","m150","done","19","m150ball.wav","space","464.109165594","173","231979.418959","224245.806298","225012.372802","225779.164076","226545.831372","227312.189494","228078.788462","228846.294544","232745.918682","233512.644411","234279.457636","235046.021359","235795.579009","236562.036994","237329.000477","223479.030173","236570.975809","Mapping"
"Blocked","m150","done","19","m150jaw.wav","None","732.822414488","173","231979.418959","224245.806298","225012.372802","225779.164076","226545.831372","227312.189494","228078.788462","228846.294544","232745.918682","233512.644411","234279.457636","235046.021359","235795.579009","236562.036994","237329.000477","238095.875537","237338.174574","Mapping"
"Blocked","m150","done","19","m150jaw.wav","None","731.951164547","173","231979.418959","238862.131941","225012.372802","225779.164076","226545.831372","227312.189494","228078.788462","228846.294544","232745.918682","233512.644411","234279.457636","235046.021359","235795.579009","236562.036994","237329.000477","238095.875537","238105.069111","Mapping"
"Blocked","m150","done","19","m150priest.wav","None","731.457414571","173","231979.418959","238862.131941","239628.966808","225779.164076","226545.831372","227312.189494","228078.788462","228846.294544","232745.918682","233512.644411","234279.457636","235046.021359","235795.579009","236562.036994","237329.000477","238095.875537","238871.426615","Mapping"
"Blocked","m150","done","19","m150done.wav","None","730.177437421","173","231979.418959","238862.131941","239628.966808","240395.432832","226545.831372","227312.189494","228078.788462","228846.294544","232745.918682","233512.644411","234279.457636","235046.021359","235795.579009","236562.036994","237329.000477","238095.875537","239638.606519","Mapping"
"Blocked","m150","done","19","m150ball.wav","space","438.235387672","173","231979.418959","238862.131941","239628.966808","240395.432832","241162.047259","227312.189494","228078.788462","228846.294544","232745.918682","233512.644411","234279.457636","235046.021359","235795.579009","236562.036994","237329.000477","238095.875537","240404.765534","Mapping"
"Blocked","m150","done","19","m150reek.wav","None","728.161628358","173","231979.418959","238862.131941","239628.966808","240395.432832","241162.047259","241928.942414","228078.788462","228846.294544","232745.918682","233512.644411","234279.457636","235046.021359","235795.579009","236562.036994","237329.000477","238095.875537","241171.935854","Mapping"
"Blocked","m150","done","19","m150done.wav","None","728.027756326","173","231979.418959","238862.131941","239628.966808","240395.432832","241162.047259","241928.942414","242695.473365","228846.294544","232745.918682","233512.644411","234279.457636","235046.021359","235795.579009","236562.036994","237329.000477","238095.875537","241938.084666","Mapping"
"Blocked","m150","done","19","m150reek.wav","space","353.893247899","173","231979.418959","238862.131941","239628.966808","240395.432832","241162.047259","241928.942414","242695.473365","243462.019773","232745.918682","233512.644411","234279.457636","235046.021359","235795.579009","236562.036994","237329.000477","238095.875537","242705.082159","Mapping"
"Blocked","m150","tile","13","m150ball.wav","None","726.058323402","173","246595.405439","238862.131941","239628.966808","240395.432832","241162.047259","241928.942414","242695.473365","243462.019773","232745.918682","233512.644411","234279.457636","235046.021359","235795.579009","236562.036994","237329.000477","238095.875537","243471.145638","Mapping"
"Blocked","m150","tile","13","m150tile.wav","None","722.312998958","173","246595.405439","238862.131941","239628.966808","240395.432832","241162.047259","241928.942414","242695.473365","243462.019773","247362.184964","233512.644411","234279.457636","235046.021359","235795.579009","236562.036994","237329.000477","238095.875537","246604.76844","Mapping"
"Blocked","m150","tile","13","m150dime.wav","space","415.039668325","173","246595.405439","238862.131941","239628.966808","240395.432832","241162.047259","241928.942414","242695.473365","243462.019773","247362.184964","248128.857825","234279.457636","235046.021359","235795.579009","236562.036994","237329.000477","238095.875537","247371.89053","Mapping"
"Blocked","m150","tile","13","m150cad.wav","None","719.763556961","173","246595.405439","238862.131941","239628.966808","240395.432832","241162.047259","241928.942414","242695.473365","243462.019773","247362.184964","248128.857825","248895.50997","235046.021359","235795.579009","236562.036994","237329.000477","238095.875537","248138.709938","Mapping"
"Blocked","m150","tile","13","m150cad.wav","None","718.92693406","173","246595.405439","238862.131941","239628.966808","240395.432832","241162.047259","241928.942414","242695.473365","243462.019773","247362.184964","248128.857825","248895.50997","249645.547767","235795.579009","236562.036994","237329.000477","238095.875537","248905.740821","Mapping"
"Blocked","m150","tile","13","m150greet.wav","None","735.926822294","173","246595.405439","238862.131941","239628.966808","240395.432832","241162.047259","241928.942414","242695.473365","243462.019773","247362.184964","248128.857825","248895.50997","249645.547767","250411.639691","236562.036994","237329.000477","238095.875537","249654.904276","Mapping"
"Blocked","m150","tile","13","m150gnash.wav","None","736.084809527","173","246595.405439","238862.131941","239628.966808","240395.432832","241162.047259","241928.942414","242695.473365","243462.019773","247362.184964","248128.857825","248895.50997","249645.547767","250411.639691","251178.445187","237329.000477","238095.875537","250420.905921","Mapping"
"Blocked","m150","tile","13","m150tile.wav","None","735.368764959","173","246595.405439","238862.131941","239628.966808","240395.432832","241162.047259","241928.942414","242695.473365","243462.019773","247362.184964","248128.857825","248895.50997","249645.547767","250411.639691","251178.445187","251945.076618","238095.875537","251187.683591","Mapping"
"Blocked","m150","tile","13","m150jolt.wav","space","640.057160053","173","246595.405439","238862.131941","239628.966808","240395.432832","241162.047259","241928.942414","242695.473365","243462.019773","247362.184964","248128.857825","248895.50997","249645.547767","250411.639691","251178.445187","251945.076618","252711.85738","251954.796405","Mapping"
"Blocked","m150","tile","13","m150priest.wav","None","733.234542422","173","246595.405439","253478.815298","239628.966808","240395.432832","241162.047259","241928.942414","242695.473365","243462.019773","247362.184964","248128.857825","248895.50997","249645.547767","250411.639691","251178.445187","251945.076618","252711.85738","252721.600664","Mapping"
"Blocked","m150","tile","13","m150tile.wav","None","732.379987836","173","246595.405439","253478.815298","254245.340992","240395.432832","241162.047259","241928.942414","242695.473365","243462.019773","247362.184964","248128.857825","248895.50997","249645.547767","250411.639691","251178.445187","251945.076618","252711.85738","253488.758617","Mapping"
"Blocked","m150","tile","13","m150park.wav","space","468.043703586","173","246595.405439","253478.815298","254245.340992","255011.804851","241162.047259","241928.942414","242695.473365","243462.019773","247362.184964","248128.857825","248895.50997","249645.547767","250411.639691","251178.445187","251945.076618","252711.85738","254254.700592","Mapping"
"Blocked","m150","tile","13","m150cad.wav","None","731.25428753","173","246595.405439","253478.815298","254245.340992","255011.804851","255778.652704","241928.942414","242695.473365","243462.019773","247362.184964","248128.857825","248895.50997","249645.547767","250411.639691","251178.445187","251945.076618","252711.85738","255021.15394","Mapping"
"Blocked","m150","tile","13","m150tile.wav","None","730.686027557","173","246595.405439","253478.815298","254245.340992","255011.804851","255778.652704","256545.292174","242695.473365","243462.019773","247362.184964","248128.857825","248895.50997","249645.547767","250411.639691","251178.445187","251945.076618","252711.85738","255787.839476","Mapping"
"Blocked","m150","tile","13","m150jaw.wav","space","535.973074846","173","246595.405439","253478.815298","254245.340992","255011.804851","255778.652704","256545.292174","257311.756651","243462.019773","247362.184964","248128.857825","248895.50997","249645.547767","250411.639691","251178.445187","251945.076618","252711.85738","256554.702169","Mapping"
"Blocked","m150","tile","13","m150cad.wav","None","728.640846908","173","246595.405439","253478.815298","254245.340992","255011.804851","255778.652704","256545.292174","257311.756651","258078.645315","247362.184964","248128.857825","248895.50997","249645.547767","250411.639691","251178.445187","251945.076618","252711.85738","257321.462835","Mapping"
"Blocked","m150","tile","14","m150knife.wav","None","727.998693939","173","261212.097144","253478.815298","254245.340992","255011.804851","255778.652704","256545.292174","257311.756651","258078.645315","247362.184964","248128.857825","248895.50997","249645.547767","250411.639691","251178.445187","251945.076618","252711.85738","258088.386744","Mapping"
"Blocked","m150","tile","14","m150tile.wav","None","722.05793066","173","261212.097144","253478.815298","254245.340992","255011.804851","255778.652704","256545.292174","257311.756651","258078.645315","261978.814834","248128.857825","248895.50997","249645.547767","250411.639691","251178.445187","251945.076618","252711.85738","261221.766845","Mapping"
"Blocked","m150","tile","14","m150cave.wav","space","445.542696398","173","261212.097144","253478.815298","254245.340992","255011.804851","255778.652704","256545.292174","257311.756651","258078.645315","261978.814834","262745.45956","248895.50997","249645.547767","250411.639691","251178.445187","251945.076618","252711.85738","261989.113702","Mapping"
"Blocked","m150","tile","14","m150cad.wav","None","719.675442204","173","261212.097144","253478.815298","254245.340992","255011.804851","255778.652704","256545.292174","257311.756651","258078.645315","261978.814834","262745.45956","263512.079243","249645.547767","250411.639691","251178.445187","251945.076618","252711.85738","262755.603533","Mapping"
"Blocked","m150","tile","14","m150jolt.wav","None","720.063145738","173","261212.097144","253478.815298","254245.340992","255011.804851","255778.652704","256545.292174","257311.756651","258078.645315","261978.814834","262745.45956","263512.079243","264278.903907","250411.639691","251178.445187","251945.076618","252711.85738","263521.524175","Mapping"
"Blocked","m150","tile","14","m150jolt.wav","None","719.831883907","173","261212.097144","253478.815298","254245.340992","255011.804851","255778.652704","256545.292174","257311.756651","258078.645315","261978.814834","262745.45956","263512.079243","264278.903907","265045.311497","251178.445187","251945.076618","252711.85738","264288.582883","Mapping"
"Blocked","m150","tile","14","m150depth.wav","None","719.463658985","173","261212.097144","253478.815298","254245.340992","255011.804851","255778.652704","256545.292174","257311.756651","258078.645315","261978.814834","262745.45956","263512.079243","264278.903907","265045.311497","265811.644267","251945.076618","252711.85738","265055.259763","Mapping"
"Blocked","m150","tile","14","m150reek.wav","None","719.986161683","173","261212.097144","253478.815298","254245.340992","255011.804851","255778.652704","256545.292174","257311.756651","258078.645315","261978.814834","262745.45956","263512.079243","264278.903907","265045.311497","265811.644267","266561.991855","252711.85738","265821.075904","Mapping"
"Blocked","m150","tile","14","m150jaw.wav","None","735.653513577","173","261212.097144","253478.815298","254245.340992","255011.804851","255778.652704","256545.292174","257311.756651","258078.645315","261978.814834","262745.45956","263512.079243","264278.903907","265045.311497","265811.644267","266561.991855","267327.945269","266571.538505","Mapping"
"Blocked","m150","tile","14","m150tile.wav","None","736.41717108","173","261212.097144","268094.919883","254245.340992","255011.804851","255778.652704","256545.292174","257311.756651","258078.645315","261978.814834","262745.45956","263512.079243","264278.903907","265045.311497","265811.644267","266561.991855","267327.945269","267337.022903","Mapping"
"Blocked","m150","tile","14","m150jolt.wav","space","417.846960947","173","261212.097144","268094.919883","268861.241213","255011.804851","255778.652704","256545.292174","257311.756651","258078.645315","261978.814834","262745.45956","263512.079243","264278.903907","265045.311497","265811.644267","266561.991855","267327.945269","268104.654819","Mapping"
"Blocked","m150","tile","14","m150tile.wav","None","734.604797792","173","261212.097144","268094.919883","268861.241213","269628.368558","255778.652704","256545.292174","257311.756651","258078.645315","261978.814834","262745.45956","263512.079243","264278.903907","265045.311497","265811.644267","266561.991855","267327.945269","268870.381919","Mapping"
"Blocked","m150","tile","14","m150depth.wav","space","668.857262004","173","261212.097144","268094.919883","268861.241213","269628.368558","270395.026887","256545.292174","257311.756651","258078.645315","261978.814834","262745.45956","263512.079243","264278.903907","265045.311497","265811.644267","266561.991855","267327.945269","269637.655193","Mapping"
"Blocked","m150","tile","14","m150cad.wav","None","732.050717808","173","261212.097144","268094.919883","268861.241213","269628.368558","270395.026887","271161.562784","257311.756651","258078.645315","261978.814834","262745.45956","263512.079243","264278.903907","265045.311497","265811.644267","266561.991855","267327.945269","270404.387725","Mapping"
"Blocked","m150","tile","14","m150tile.wav","None","731.58262996","173","261212.097144","268094.919883","268861.241213","269628.368558","270395.026887","271161.562784","271928.388685","258078.645315","261978.814834","262745.45956","263512.079243","264278.903907","265045.311497","265811.644267","266561.991855","267327.945269","271171.306996","Mapping"
"Blocked","m150","tile","14","m150cave.wav","space","504.849227145","173","261212.097144","268094.919883","268861.241213","269628.368558","270395.026887","271161.562784","271928.388685","272694.97003","261978.814834","262745.45956","263512.079243","264278.903907","265045.311497","265811.644267","266561.991855","267327.945269","271937.64193","Mapping"
"Blocked","m150","tile","18","m150knife.wav","None","730.021614116","173","275828.557587","268094.919883","268861.241213","269628.368558","270395.026887","271161.562784","271928.388685","272694.97003","261978.814834","262745.45956","263512.079243","264278.903907","265045.311497","265811.644267","266561.991855","267327.945269","272704.501531","Mapping"
"Blocked","m150","tile","18","m150cad.wav","None","721.56078089","173","275828.557587","268094.919883","268861.241213","269628.368558","270395.026887","271161.562784","271928.388685","272694.97003","276594.794513","262745.45956","263512.079243","264278.903907","265045.311497","265811.644267","266561.991855","267327.945269","275838.983834","Mapping"
"Blocked","m150","tile","18","m150greet.wav","None","722.683079075","173","275828.557587","268094.919883","268861.241213","269628.368558","270395.026887","271161.562784","271928.388685","272694.97003","276594.794513","277361.810865","263512.079243","264278.903907","265045.311497","265811.644267","266561.991855","267327.945269","276604.203272","Mapping"
"Blocked","m150","tile","18","m150tile.wav","None","722.120074555","173","275828.557587","268094.919883","268861.241213","269628.368558","270395.026887","271161.562784","271928.388685","272694.97003","276594.794513","277361.810865","278128.520207","264278.903907","265045.311497","265811.644267","266561.991855","267327.945269","277371.200455","Mapping"
"Blocked","m150","tile","18","m150gnash.wav","space","392.052950338","173","275828.557587","268094.919883","268861.241213","269628.368558","270395.026887","271161.562784","271928.388685","272694.97003","276594.794513","277361.810865","278128.520207","278894.99396","265045.311497","265811.644267","266561.991855","267327.945269","278138.311723","Mapping"
"Blocked","m150","tile","18","m150cave.wav","None","719.900520518","173","275828.557587","268094.919883","268861.241213","269628.368558","270395.026887","271161.562784","271928.388685","272694.97003","276594.794513","277361.810865","278128.520207","278894.99396","279661.835629","265811.644267","266561.991855","267327.945269","278904.842982","Mapping"
"Blocked","m150","tile","18","m150jaw.wav","None","719.363177195","173","275828.557587","268094.919883","268861.241213","269628.368558","270395.026887","271161.562784","271928.388685","272694.97003","276594.794513","277361.810865","278128.520207","278894.99396","279661.835629","280428.492413","266561.991855","267327.945269","279671.682178","Mapping"
"Blocked","m150","tile","18","m150done.wav","None","719.151703175","173","275828.557587","268094.919883","268861.241213","269628.368558","270395.026887","271161.562784","271928.388685","272694.97003","276594.794513","277361.810865","278128.520207","278894.99396","279661.835629","280428.492413","281195.071285","267327.945269","280438.315773","Mapping"
"Blocked","m150","tile","18","m150ball.wav","None","718.799554277","173","275828.557587","268094.919883","268861.241213","269628.368558","270395.026887","271161.562784","271928.388685","272694.97003","276594.794513","277361.810865","278128.520207","278894.99396","279661.835629","280428.492413","281195.071285","281944.790015","281205.159916","Mapping"
"Blocked","m150","tile","18","m150tile.wav","None","735.77532731","173","275828.557587","282711.370741","268861.241213","269628.368558","270395.026887","271161.562784","271928.388685","272694.97003","276594.794513","277361.810865","278128.520207","278894.99396","279661.835629","280428.492413","281195.071285","281944.790015","281954.279467","Mapping"
"Blocked","m150","tile","18","m150jolt.wav","space","489.518873859","173","275828.557587","282711.370741","283477.862117","269628.368558","270395.026887","271161.562784","271928.388685","272694.97003","276594.794513","277361.810865","278128.520207","278894.99396","279661.835629","280428.492413","281195.071285","281944.790015","282720.75322","Mapping"
"Blocked","m150","tile","18","m150knife.wav","None","709.490349516","173","275828.557587","282711.370741","283477.862117","284244.435114","270395.026887","271161.562784","271928.388685","272694.97003","276594.794513","277361.810865","278128.520207","278894.99396","279661.835629","280428.492413","281195.071285","281944.790015","283512.239703","Mapping"
"Blocked","m150","tile","18","m150tile.wav","None","734.388376586","173","275828.557587","282711.370741","283477.862117","284244.435114","285011.031609","271161.562784","271928.388685","272694.97003","276594.794513","277361.810865","278128.520207","278894.99396","279661.835629","280428.492413","281195.071285","281944.790015","284253.789768","Mapping"
"Blocked","m150","tile","18","m150priest.wav","space","622.163760941","173","275828.557587","282711.370741","283477.862117","284244.435114","285011.031609","285777.882862","271928.388685","272694.97003","276594.794513","277361.810865","278128.520207","278894.99396","279661.835629","280428.492413","281195.071285","281944.790015","285020.057612","Mapping"
"Blocked","m150","tile","18","m150tile.wav","None","732.712039724","173","275828.557587","282711.370741","283477.862117","284244.435114","285011.031609","285777.882862","286544.641055","272694.97003","276594.794513","277361.810865","278128.520207","278894.99396","279661.835629","280428.492413","281195.071285","281944.790015","285787.139508","Mapping"
"Blocked","m150","tile","18","m150romp.wav","space","493.594704196","173","275828.557587","282711.370741","283477.862117","284244.435114","285011.031609","285777.882862","286544.641055","287311.206323","276594.794513","277361.810865","278128.520207","278894.99396","279661.835629","280428.492413","281195.071285","281944.790015","286596.617398","Mapping"
"Blocked","m150","done","22","m150bluff.wav","None","730.933365878","173","290444.923732","282711.370741","283477.862117","284244.435114","285011.031609","285777.882862","286544.641055","287311.206323","276594.794513","277361.810865","278128.520207","278894.99396","279661.835629","280428.492413","281195.071285","281944.790015","287320.761011","Mapping"
"Blocked","m150","done","22","m150jolt.wav","None","722.013100982","173","290444.923732","282711.370741","283477.862117","284244.435114","285011.031609","285777.882862","286544.641055","287311.206323","291211.411707","277361.810865","278128.520207","278894.99396","279661.835629","280428.492413","281195.071285","281944.790015","290454.25396","Mapping"
"Blocked","m150","done","22","m150done.wav","None","721.55397851","173","290444.923732","282711.370741","283477.862117","284244.435114","285011.031609","285777.882862","286544.641055","287311.206323","291211.411707","291978.466087","278128.520207","278894.99396","279661.835629","280428.492413","281195.071285","281944.790015","291221.02452","Mapping"
"Blocked","m150","done","22","m150romp.wav","space","357.902296819","173","290444.923732","282711.370741","283477.862117","284244.435114","285011.031609","285777.882862","286544.641055","287311.206323","291211.411707","291978.466087","292745.017752","278894.99396","279661.835629","280428.492413","281195.071285","281944.790015","291988.209371","Mapping"
"Blocked","m150","done","22","m150tile.wav","None","719.301651698","173","290444.923732","282711.370741","283477.862117","284244.435114","285011.031609","285777.882862","286544.641055","287311.206323","291211.411707","291978.466087","292745.017752","293511.558595","279661.835629","280428.492413","281195.071285","281944.790015","292754.589754","Mapping"
"Blocked","m150","done","22","m150cad.wav","None","719.408935402","173","290444.923732","282711.370741","283477.862117","284244.435114","285011.031609","285777.882862","286544.641055","287311.206323","291211.411707","291978.466087","292745.017752","293511.558595","294278.309676","280428.492413","281195.071285","281944.790015","293520.755261","Mapping"
"Blocked","m150","done","22","m150done.wav","None","719.402442221","173","290444.923732","282711.370741","283477.862117","284244.435114","285011.031609","285777.882862","286544.641055","287311.206323","291211.411707","291978.466087","292745.017752","293511.558595","294278.309676","295044.518158","281195.071285","281944.790015","294288.015241","Mapping"
"Blocked","m150","done","22","m150jolt.wav","space","388.327104039","173","290444.923732","282711.370741","283477.862117","284244.435114","285011.031609","285777.882862","286544.641055","287311.206323","291211.411707","291978.466087","292745.017752","293511.558595","294278.309676","295044.518158","295794.127441","281944.790015","295053.738322","Mapping"
"Blocked","m150","done","22","m150cave.wav","None","735.959904268","173","290444.923732","282711.370741","283477.862117","284244.435114","285011.031609","285777.882862","286544.641055","287311.206323","291211.411707","291978.466087","292745.017752","293511.558595","294278.309676","295044.518158","295794.127441","296560.932627","295802.93393","Mapping"
"Blocked","m150","done","22","m150romp.wav","None","735.288688913","173","290444.923732","297327.712771","283477.862117","284244.435114","285011.031609","285777.882862","286544.641055","287311.206323","291211.411707","291978.466087","292745.017752","293511.558595","294278.309676","295044.518158","295794.127441","296560.932627","296569.929568","Mapping"
"Blocked","m150","done","22","m150reek.wav","None","734.846261796","173","290444.923732","297327.712771","298094.460142","284244.435114","285011.031609","285777.882862","286544.641055","287311.206323","291211.411707","291978.466087","292745.017752","293511.558595","294278.309676","295044.518158","295794.127441","296560.932627","297336.762889","Mapping"
"Blocked","m150","done","22","m150done.wav","None","733.946877532","173","290444.923732","297327.712771","298094.460142","298860.857838","285011.031609","285777.882862","286544.641055","287311.206323","291211.411707","291978.466087","292745.017752","293511.558595","294278.309676","295044.518158","295794.127441","296560.932627","298103.979585","Mapping"
"Blocked","m150","done","22","m150lash.wav","space","460.373735055","173","290444.923732","297327.712771","298094.460142","298860.857838","299627.65004","285777.882862","286544.641055","287311.206323","291211.411707","291978.466087","292745.017752","293511.558595","294278.309676","295044.518158","295794.127441","296560.932627","298869.647014","Mapping"
"Blocked","m150","done","22","m150gnash.wav","None","733.159103896","173","290444.923732","297327.712771","298094.460142","298860.857838","299627.65004","300394.137705","286544.641055","287311.206323","291211.411707","291978.466087","292745.017752","293511.558595","294278.309676","295044.518158","295794.127441","296560.932627","299636.53475","Mapping"
"Blocked","m150","done","22","m150done.wav","None","736.304323189","173","290444.923732","297327.712771","298094.460142","298860.857838","299627.65004","300394.137705","301160.851377","287311.206323","291211.411707","291978.466087","292745.017752","293511.558595","294278.309676","295044.518158","295794.127441","296560.932627","300402.93832","Mapping"
"Blocked","m150","done","22","m150gnash.wav","space","408.084508032","173","290444.923732","297327.712771","298094.460142","298860.857838","299627.65004","300394.137705","301160.851377","301927.704794","291211.411707","291978.466087","292745.017752","293511.558595","294278.309676","295044.518158","295794.127441","296560.932627","301169.831621","Mapping"
"Blocked","m150","cave","8","m150jaw.wav","None","734.366425313","173","305061.328833","297327.712771","298094.460142","298860.857838","299627.65004","300394.137705","301160.851377","301927.704794","291211.411707","291978.466087","292745.017752","293511.558595","294278.309676","295044.518158","295794.127441","296560.932627","301936.717812","Mapping"
"Blocked","m150","cave","8","m150park.wav","None","722.113273107","173","305061.328833","297327.712771","298094.460142","298860.857838","299627.65004","300394.137705","301160.851377","301927.704794","305828.040958","291978.466087","292745.017752","293511.558595","294278.309676","295044.518158","295794.127441","296560.932627","305070.766035","Mapping"
"Blocked","m150","cave","8","m150cave.wav","None","721.221308224","173","305061.328833","297327.712771","298094.460142","298860.857838","299627.65004","300394.137705","301160.851377","301927.704794","305828.040958","306594.689085","292745.017752","293511.558595","294278.309676","295044.518158","295794.127441","296560.932627","305837.879777","Mapping"
"Blocked","m150","cave","8","m150romp.wav","space","477.469775826","173","305061.328833","297327.712771","298094.460142","298860.857838","299627.65004","300394.137705","301160.851377","301927.704794","305828.040958","306594.689085","307360.897258","293511.558595","294278.309676","295044.518158","295794.127441","296560.932627","306604.361259","Mapping"
"Blocked","m150","cave","8","m150cad.wav","None","720.564005896","173","305061.328833","297327.712771","298094.460142","298860.857838","299627.65004","300394.137705","301160.851377","301927.704794","305828.040958","306594.689085","307360.897258","308128.065414","294278.309676","295044.518158","295794.127441","296560.932627","307370.138754","Mapping"
"Blocked","m150","cave","8","m150cave.wav","None","719.413881656","173","305061.328833","297327.712771","298094.460142","298860.857838","299627.65004","300394.137705","301160.851377","301927.704794","305828.040958","306594.689085","307360.897258","308128.065414","308894.625117","295044.518158","295794.127441","296560.932627","308137.702961","Mapping"
"Blocked","m150","cave","8","m150depth.wav","space","521.410089452","173","305061.328833","297327.712771","298094.460142","298860.857838","299627.65004","300394.137705","301160.851377","301927.704794","305828.040958","306594.689085","307360.897258","308128.065414","308894.625117","309644.137628","295794.127441","296560.932627","308904.411376","Mapping"
"Blocked","m150","cave","8","m150cling.wav","None","735.64083688","173","305061.328833","297327.712771","298094.460142","298860.857838","299627.65004","300394.137705","301160.851377","301927.704794","305828.040958","306594.689085","307360.897258","308128.065414","308894.625117","309644.137628","310410.684655","296560.932627","309653.147863","Mapping"
"Blocked","m150","cave","8","m150romp.wav","None","735.461207572","173","305061.328833","297327.712771","298094.460142","298860.857838","299627.65004","300394.137705","301160.851377","301927.704794","305828.040958","306594.689085","307360.897258","308128.065414","308894.625117","309644.137628","310410.684655","311177.354424","310419.719933","Mapping"
"Blocked","m150","cave","8","m150jaw.wav","None","734.950143844","173","305061.328833","311944.076133","298094.460142","298860.857838","299627.65004","300394.137705","301160.851377","301927.704794","305828.040958","306594.689085","307360.897258","308128.065414","308894.625117","309644.137628","310410.684655","311177.354424","311187.073902","Mapping"
"Blocked","m150","cave","8","m150cave.wav","None","735.300128348","173","305061.328833","311944.076133","312710.468265","298860.857838","299627.65004","300394.137705","301160.851377","301927.704794","305828.040958","306594.689085","307360.897258","308128.065414","308894.625117","309644.137628","310410.684655","311177.354424","311953.121305","Mapping"
"Blocked","m150","cave","8","m150jolt.wav","space","434.310124721","173","305061.328833","311944.076133","312710.468265","313477.6593","299627.65004","300394.137705","301160.851377","301927.704794","305828.040958","306594.689085","307360.897258","308128.065414","308894.625117","309644.137628","310410.684655","311177.354424","312719.386675","Mapping"
"Blocked","m150","cave","8","m150greet.wav","None","733.275352977","173","305061.328833","311944.076133","312710.468265","313477.6593","314244.126251","300394.137705","301160.851377","301927.704794","305828.040958","306594.689085","307360.897258","308128.065414","308894.625117","309644.137628","310410.684655","311177.354424","313486.722094","Mapping"
"Blocked","m150","cave","8","m150cave.wav","None","732.993077952","173","305061.328833","311944.076133","312710.468265","313477.6593","314244.126251","315010.769739","301160.851377","301927.704794","305828.040958","306594.689085","307360.897258","308128.065414","308894.625117","309644.137628","310410.684655","311177.354424","314253.50842","Mapping"
"Blocked","m150","cave","8","m150done.wav","space","357.305902056","173","305061.328833","311944.076133","312710.468265","313477.6593","314244.126251","315010.769739","315777.604606","301927.704794","305828.040958","306594.689085","307360.897258","308128.065414","308894.625117","309644.137628","310410.684655","311177.354424","315020.389045","Mapping"
"Blocked","m150","cave","8","m150tile.wav","None","731.618802994","173","305061.328833","311944.076133","312710.468265","313477.6593","314244.126251","315010.769739","315777.604606","316543.903677","305828.040958","306594.689085","307360.897258","308128.065414","308894.625117","309644.137628","310410.684655","311177.354424","315786.654106","Mapping"
"Blocked","m150","ball","5","m150knife.wav","None","732.264665887","173","319677.862859","311944.076133","312710.468265","313477.6593","314244.126251","315010.769739","315777.604606","316543.903677","305828.040958","306594.689085","307360.897258","308128.065414","308894.625117","309644.137628","310410.684655","311177.354424","316552.720369","Mapping"
"Blocked","m150","ball","5","m150greet.wav","None","721.183898393","173","319677.862859","311944.076133","312710.468265","313477.6593","314244.126251","315010.769739","315777.604606","316543.903677","320444.417615","306594.689085","307360.897258","308128.065414","308894.625117","309644.137628","310410.684655","311177.354424","319687.497005","Mapping"
"Blocked","m150","ball","5","m150ball.wav","None","721.488743089","173","319677.862859","311944.076133","312710.468265","313477.6593","314244.126251","315010.769739","315777.604606","316543.903677","320444.417615","321211.165605","307360.897258","308128.065414","308894.625117","309644.137628","310410.684655","311177.354424","320453.696521","Mapping"
"Blocked","m150","ball","5","m150park.wav","space","317.171201576","173","319677.862859","311944.076133","312710.468265","313477.6593","314244.126251","315010.769739","315777.604606","316543.903677","320444.417615","321211.165605","321977.802601","308128.065414","308894.625117","309644.137628","310410.684655","311177.354424","321220.38886","Mapping"
"Blocked","m150","ball","5","m150cling.wav","None","719.033907633","173","319677.862859","311944.076133","312710.468265","313477.6593","314244.126251","315010.769739","315777.604606","316543.903677","320444.417615","321211.165605","321977.802601","322744.488756","308894.625117","309644.137628","310410.684655","311177.354424","321987.872063","Mapping"
"Blocked","m150","ball","5","m150jaw.wav","None","719.479117077","173","319677.862859","311944.076133","312710.468265","313477.6593","314244.126251","315010.769739","315777.604606","316543.903677","320444.417615","321211.165605","321977.802601","322744.488756","323511.025271","309644.137628","310410.684655","311177.354424","322753.978828","Mapping"
"Blocked","m150","ball","5","m150romp.wav","None","719.606806058","173","319677.862859","311944.076133","312710.468265","313477.6593","314244.126251","315010.769739","315777.604606","316543.903677","320444.417615","321211.165605","321977.802601","322744.488756","323511.025271","324277.384012","310410.684655","311177.354424","323520.294593","Mapping"
"Blocked","m150","ball","5","m150ball.wav","None","720.994065981","173","319677.862859","311944.076133","312710.468265","313477.6593","314244.126251","315010.769739","315777.604606","316543.903677","320444.417615","321211.165605","321977.802601","322744.488756","323511.025271","324277.384012","325044.334509","311177.354424","324286.414033","Mapping"
"Blocked","m150","ball","5","m150tile.wav","space","579.619982745","173","319677.862859","311944.076133","312710.468265","313477.6593","314244.126251","315010.769739","315777.604606","316543.903677","320444.417615","321211.165605","321977.802601","322744.488756","323511.025271","324277.384012","325044.334509","325793.858769","325053.900638","Mapping"
"Blocked","m150","ball","5","m150ball.wav","None","736.204460263","173","319677.862859","326560.100024","312710.468265","313477.6593","314244.126251","315010.769739","315777.604606","316543.903677","320444.417615","321211.165605","321977.802601","322744.488756","323511.025271","324277.384012","325044.334509","325793.858769","325802.89652","Mapping"
"Blocked","m150","ball","5","m150reek.wav","None","736.58443382","173","319677.862859","326560.100024","327327.387211","313477.6593","314244.126251","315010.769739","315777.604606","316543.903677","320444.417615","321211.165605","321977.802601","322744.488756","323511.025271","324277.384012","325044.334509","325793.858769","326569.063573","Mapping"
"Blocked","m150","ball","5","m150cad.wav","space","544.867369346","173","319677.862859","326560.100024","327327.387211","328093.779652","314244.126251","315010.769739","315777.604606","316543.903677","320444.417615","321211.165605","321977.802601","322744.488756","323511.025271","324277.384012","325044.334509","325793.858769","327336.618814","Mapping"
"Blocked","m150","ball","5","m150romp.wav","None","734.935303684","173","319677.862859","326560.100024","327327.387211","328093.779652","328860.352959","315010.769739","315777.604606","316543.903677","320444.417615","321211.165605","321977.802601","322744.488756","323511.025271","324277.384012","325044.334509","325793.858769","328102.797616","Mapping"
"Blocked","m150","ball","5","m150cling.wav","None","735.184806865","173","319677.862859","326560.100024","327327.387211","328093.779652","328860.352959","329627.001085","315777.604606","316543.903677","320444.417615","321211.165605","321977.802601","322744.488756","323511.025271","324277.384012","325044.334509","325793.858769","328869.339696","Mapping"
"Blocked","m150","ball","5","m150ball.wav","None","735.818611924","173","319677.862859","326560.100024","327327.387211","328093.779652","328860.352959","329627.001085","330393.472674","316543.903677","320444.417615","321211.165605","321977.802601","322744.488756","323511.025271","324277.384012","325044.334509","325793.858769","329635.960924","Mapping"
"Blocked","m150","ball","5","m150depth.wav","space","486.944697797","173","319677.862859","326560.100024","327327.387211","328093.779652","328860.352959","329627.001085","330393.472674","331160.320526","320444.417615","321211.165605","321977.802601","322744.488756","323511.025271","324277.384012","325044.334509","325793.858769","330402.449827","Mapping"
"Blocked","m150","ball","2","m150done.wav","None","734.603870194","173","334294.137798","326560.100024","327327.387211","328093.779652","328860.352959","329627.001085","330393.472674","331160.320526","320444.417615","321211.165605","321977.802601","322744.488756","323511.025271","324277.384012","325044.334509","325793.858769","331169.282839","Mapping"
"Blocked","m150","ball","2","m150ball.wav","None","721.727733966","173","334294.137798","326560.100024","327327.387211","328093.779652","328860.352959","329627.001085","330393.472674","331160.320526","335060.480771","321211.165605","321977.802601","322744.488756","323511.025271","324277.384012","325044.334509","325793.858769","334303.755249","Mapping"
"Blocked","m150","ball","2","m150romp.wav","space","411.301146261","173","334294.137798","326560.100024","327327.387211","328093.779652","328860.352959","329627.001085","330393.472674","331160.320526","335060.480771","335827.555866","321977.802601","322744.488756","323511.025271","324277.384012","325044.334509","325793.858769","335069.987847","Mapping"
"Blocked","m150","ball","2","m150ball.wav","None","720.13147315","173","334294.137798","326560.100024","327327.387211","328093.779652","328860.352959","329627.001085","330393.472674","331160.320526","335060.480771","335827.555866","336593.990044","322744.488756","323511.025271","324277.384012","325044.334509","325793.858769","335837.10468","Mapping"
"Blocked","m150","ball","2","m150done.wav","space","493.509991094","173","334294.137798","326560.100024","327327.387211","328093.779652","328860.352959","329627.001085","330393.472674","331160.320526","335060.480771","335827.555866","336593.990044","337343.841719","323511.025271","324277.384012","325044.334509","325793.858769","336603.801346","Mapping"
"Blocked","m150","ball","2","m150lash.wav","None","735.976599623","173","334294.137798","326560.100024","327327.387211","328093.779652","328860.352959","329627.001085","330393.472674","331160.320526","335060.480771","335827.555866","336593.990044","337343.841719","338110.275279","324277.384012","325044.334509","325793.858769","337352.994791","Mapping"
"Blocked","m150","ball","2","m150greet.wav","None","736.554443836","173","334294.137798","326560.100024","327327.387211","328093.779652","328860.352959","329627.001085","330393.472674","331160.320526","335060.480771","335827.555866","336593.990044","337343.841719","338110.275279","338877.446835","325044.334509","325793.858769","338119.155352","Mapping"
"Blocked","m150","ball","2","m150cave.wav","None","736.250526737","173","334294.137798","326560.100024","327327.387211","328093.779652","328860.352959","329627.001085","330393.472674","331160.320526","335060.480771","335827.555866","336593.990044","337343.841719","338110.275279","338877.446835","339644.153705","325793.858769","338886.435428","Mapping"
"Blocked","m150","ball","2","m150jaw.wav","None","736.098104622","173","334294.137798","326560.100024","327327.387211","328093.779652","328860.352959","329627.001085","330393.472674","331160.320526","335060.480771","335827.555866","336593.990044","337343.841719","338110.275279","338877.446835","339644.153705","340410.664559","339653.222992","Mapping"
"Blocked","m150","ball","2","m150dime.wav","None","735.538810026","173","334294.137798","341176.818008","327327.387211","328093.779652","328860.352959","329627.001085","330393.472674","331160.320526","335060.480771","335827.555866","336593.990044","337343.841719","338110.275279","338877.446835","339644.153705","340410.664559","340420.284792","Mapping"
"Blocked","m150","ball","2","m150ball.wav","None","736.826516222","173","334294.137798","341176.818008","341960.394604","328093.779652","328860.352959","329627.001085","330393.472674","331160.320526","335060.480771","335827.555866","336593.990044","337343.841719","338110.275279","338877.446835","339644.153705","340410.664559","341185.677985","Mapping"
"Blocked","m150","ball","2","m150jaw.wav","space","543.5614218","173","334294.137798","341176.818008","341960.394604","342709.901241","328860.352959","329627.001085","330393.472674","331160.320526","335060.480771","335827.555866","336593.990044","337343.841719","338110.275279","338877.446835","339644.153705","340410.664559","341969.663926","Mapping"
"Blocked","m150","ball","2","m150done.wav","None","735.791713931","173","334294.137798","341176.818008","341960.394604","342709.901241","343476.817421","329627.001085","330393.472674","331160.320526","335060.480771","335827.555866","336593.990044","337343.841719","338110.275279","338877.446835","339644.153705","340410.664559","342718.889833","Mapping"
"Blocked","m150","ball","2","m150done.wav","None","735.04351452","173","334294.137798","341176.818008","341960.394604","342709.901241","343476.817421","344243.571903","330393.472674","331160.320526","335060.480771","335827.555866","336593.990044","337343.841719","338110.275279","338877.446835","339644.153705","340410.664559","343486.399007","Mapping"
"Blocked","m150","ball","2","m150ball.wav","None","735.529844183","173","334294.137798","341176.818008","341960.394604","342709.901241","343476.817421","344243.571903","345010.090795","331160.320526","335060.480771","335827.555866","336593.990044","337343.841719","338110.275279","338877.446835","339644.153705","340410.664559","344252.295843","Mapping"
"Blocked","m150","ball","2","m150dime.wav","space","549.965326209","173","334294.137798","341176.818008","341960.394604","342709.901241","343476.817421","344243.571903","345010.090795","345776.763656","335060.480771","335827.555866","336593.990044","337343.841719","338110.275279","338877.446835","339644.153705","340410.664559","345019.205839","Mapping"
"Blocked","m150","ball","6","m150tile.wav","None","734.507098794","173","348910.470553","341176.818008","341960.394604","342709.901241","343476.817421","344243.571903","345010.090795","345776.763656","335060.480771","335827.555866","336593.990044","337343.841719","338110.275279","338877.446835","339644.153705","340410.664559","345785.737408","Mapping"
"Blocked","m150","ball","6","m150ball.wav","None","722.145427018","173","348910.470553","341176.818008","341960.394604","342709.901241","343476.817421","344243.571903","345010.090795","345776.763656","349677.3688","335827.555866","336593.990044","337343.841719","338110.275279","338877.446835","339644.153705","340410.664559","348919.983812","Mapping"
"Blocked","m150","ball","6","m150cad.wav","space","466.033768374","173","348910.470553","341176.818008","341960.394604","342709.901241","343476.817421","344243.571903","345010.090795","345776.763656","349677.3688","350443.914281","336593.990044","337343.841719","338110.275279","338877.446835","339644.153705","340410.664559","349687.043757","Mapping"
"Blocked","m150","ball","6","m150depth.wav","None","720.929139759","173","348910.470553","341176.818008","341960.394604","342709.901241","343476.817421","344243.571903","345010.090795","345776.763656","349677.3688","350443.914281","351210.628571","337343.841719","338110.275279","338877.446835","339644.153705","340410.664559","350453.034582","Mapping"
"Blocked","m150","ball","6","m150ball.wav","None","720.028208569","173","348910.470553","341176.818008","341960.394604","342709.901241","343476.817421","344243.571903","345010.090795","345776.763656","349677.3688","350443.914281","351210.628571","351977.479206","338110.275279","338877.446835","339644.153705","340410.664559","351220.626614","Mapping"
"Blocked","m150","ball","6","m150tile.wav","space","661.986505613","173","348910.470553","341176.818008","341960.394604","342709.901241","343476.817421","344243.571903","345010.090795","345776.763656","349677.3688","350443.914281","351210.628571","351977.479206","352743.947085","338877.446835","339644.153705","340410.664559","351987.010397","Mapping"
"Blocked","m150","ball","6","m150jolt.wav","None","719.178291969","173","348910.470553","341176.818008","341960.394604","342709.901241","343476.817421","344243.571903","345010.090795","345776.763656","349677.3688","350443.914281","351210.628571","351977.479206","352743.947085","353510.497203","339644.153705","340410.664559","352753.326163","Mapping"
"Blocked","m150","ball","6","m150cad.wav","None","719.716562424","173","348910.470553","341176.818008","341960.394604","342709.901241","343476.817421","344243.571903","345010.090795","345776.763656","349677.3688","350443.914281","351210.628571","351977.479206","352743.947085","353510.497203","354277.330525","340410.664559","353519.746429","Mapping"
"Blocked","m150","ball","6","m150jolt.wav","None","720.102410298","173","348910.470553","341176.818008","341960.394604","342709.901241","343476.817421","344243.571903","345010.090795","345776.763656","349677.3688","350443.914281","351210.628571","351977.479206","352743.947085","353510.497203","354277.330525","355043.778616","354286.776075","Mapping"
"Blocked","m150","ball","6","m150romp.wav","None","720.27245583","173","348910.470553","355809.996683","341960.394604","342709.901241","343476.817421","344243.571903","345010.090795","345776.763656","349677.3688","350443.914281","351210.628571","351977.479206","352743.947085","353510.497203","354277.330525","355043.778616","355053.277654","Mapping"
"Blocked","m150","ball","6","m150reek.wav","None","721.292109229","173","348910.470553","355809.996683","356577.286344","342709.901241","343476.817421","344243.571903","345010.090795","345776.763656","349677.3688","350443.914281","351210.628571","351977.479206","352743.947085","353510.497203","354277.330525","355043.778616","355819.03567","Mapping"
"Blocked","m150","ball","6","m150ball.wav","None","720.608217642","173","348910.470553","355809.996683","356577.286344","357343.705682","343476.817421","344243.571903","345010.090795","345776.763656","349677.3688","350443.914281","351210.628571","351977.479206","352743.947085","353510.497203","354277.330525","355043.778616","356586.453329","Mapping"
"Blocked","m150","ball","6","m150done.wav","space","479.625022039","173","348910.470553","355809.996683","356577.286344","357343.705682","358110.312379","344243.571903","345010.090795","345776.763656","349677.3688","350443.914281","351210.628571","351977.479206","352743.947085","353510.497203","354277.330525","355043.778616","357353.276448","Mapping"
"Blocked","m150","ball","6","m150knife.wav","None","718.659808394","173","348910.470553","355809.996683","356577.286344","357343.705682","358110.312379","358860.295143","345010.090795","345776.763656","349677.3688","350443.914281","351210.628571","351977.479206","352743.947085","353510.497203","354277.330525","355043.778616","358120.168512","Mapping"
"Blocked","m150","ball","6","m150ball.wav","None","736.040907446","173","348910.470553","355809.996683","356577.286344","357343.705682","358110.312379","358860.295143","359627.065084","345776.763656","349677.3688","350443.914281","351210.628571","351977.479206","352743.947085","353510.497203","354277.330525","355043.778616","358869.430284","Mapping"
"Blocked","m150","ball","6","m150depth.wav","space","588.968762197","173","348910.470553","355809.996683","356577.286344","357343.705682","358110.312379","358860.295143","359627.065084","360393.09641","349677.3688","350443.914281","351210.628571","351977.479206","352743.947085","353510.497203","354277.330525","355043.778616","359635.931244","Mapping"
"Blocked","m150","done","23","m150knife.wav","None","735.276013147","173","363527.089911","355809.996683","356577.286344","357343.705682","358110.312379","358860.295143","359627.065084","360393.09641","349677.3688","350443.914281","351210.628571","351977.479206","352743.947085","353510.497203","354277.330525","355043.778616","360402.170952","Mapping"
"Blocked","m150","done","23","m150done.wav","None","722.383799497","173","363527.089911","355809.996683","356577.286344","357343.705682","358110.312379","358860.295143","359627.065084","360393.09641","364292.868024","350443.914281","351210.628571","351977.479206","352743.947085","353510.497203","354277.330525","355043.778616","363536.493104","Mapping"
"Blocked","m150","done","23","m150reek.wav","space","411.374111194","173","363527.089911","355809.996683","356577.286344","357343.705682","358110.312379","358860.295143","359627.065084","360393.09641","364292.868024","365059.925186","351210.628571","351977.479206","352743.947085","353510.497203","354277.330525","355043.778616","364301.446034","Mapping"
"Blocked","m150","done","23","m150romp.wav","None","725.312597584","173","363527.089911","355809.996683","356577.286344","357343.705682","358110.312379","358860.295143","359627.065084","360393.09641","364292.868024","365059.925186","365826.457991","351977.479206","352743.947085","353510.497203","354277.330525","355043.778616","365069.024463","Mapping"
"Blocked","m150","done","23","m150depth.wav","None","725.51726969","173","363527.089911","355809.996683","356577.286344","357343.705682","358110.312379","358860.295143","359627.065084","360393.09641","364292.868024","365059.925186","365826.457991","366593.204126","352743.947085","353510.497203","354277.330525","355043.778616","365835.629615","Mapping"
"Blocked","m150","done","23","m150gnash.wav","None","725.340423174","173","363527.089911","355809.996683","356577.286344","357343.705682","358110.312379","358860.295143","359627.065084","360393.09641","364292.868024","365059.925186","365826.457991","366593.204126","367359.816388","353510.497203","354277.330525","355043.778616","366602.367092","Mapping"
"Blocked","m150","done","23","m150romp.wav","None","725.661035627","173","363527.089911","355809.996683","356577.286344","357343.705682","358110.312379","358860.295143","359627.065084","360393.09641","364292.868024","365059.925186","365826.457991","366593.204126","367359.816388","368126.64229","354277.330525","355043.778616","367368.837135","Mapping"
"Blocked","m150","done","23","m150done.wav","None","725.697208662","173","363527.089911","355809.996683","356577.286344","357343.705682","358110.312379","358860.295143","359627.065084","360393.09641","364292.868024","365059.925186","365826.457991","366593.204126","367359.816388","368126.64229","368893.159017","355043.778616","368135.655307","Mapping"
"Blocked","m150","done","23","m150park.wav","space","457.99279213","173","363527.089911","355809.996683","356577.286344","357343.705682","358110.312379","358860.295143","359627.065084","360393.09641","364292.868024","365059.925186","365826.457991","366593.204126","367359.816388","368126.64229","368893.159017","369659.748401","368902.753898","Mapping"
"Blocked","m150","done","23","m150ball.wav","None","725.569829345","173","363527.089911","370426.570902","356577.286344","357343.705682","358110.312379","358860.295143","359627.065084","360393.09641","364292.868024","365059.925186","365826.457991","366593.204126","367359.816388","368126.64229","368893.159017","369659.748401","369668.692782","Mapping"
"Blocked","m150","done","23","m150done.wav","None","725.43193819","173","363527.089911","370426.570902","371193.140189","357343.705682","358110.312379","358860.295143","359627.065084","360393.09641","364292.868024","365059.925186","365826.457991","366593.204126","367359.816388","368126.64229","368893.159017","369659.748401","370435.62442","Mapping"
"Blocked","m150","done","23","m150jaw.wav","space","478.258785792","173","363527.089911","370426.570902","371193.140189","371960.00721","358110.312379","358860.295143","359627.065084","360393.09641","364292.868024","365059.925186","365826.457991","366593.204126","367359.816388","368126.64229","368893.159017","369659.748401","371202.417549","Mapping"
