"Condition","Talker","Target","Trial","current_stimulus","response_response","response_time_response","subject_nr","time_Audio1","time_Audio10","time_Audio11","time_Audio12","time_Audio13","time_Audio14","time_Audio15","time_Audio16","time_Audio2","time_Audio3","time_Audio4","time_Audio5","time_Audio6","time_Audio7","time_Audio8","time_Audio9","time_response","title"
"Mixed","Both","done","37","m150romp.wav","NA","NA","147","183865.515117","NA","NA","NA","NA","NA","NA","NA","NA","NA","NA","NA","NA","NA","NA","NA","NA","Mapping"
"Mixed","Both","done","37","m160done.wav","None","717.480057501","147","183865.515117","NA","NA","NA","NA","NA","NA","NA","184632.379253","NA","NA","NA","NA","NA","NA","NA","183880.954346","Mapping"
"Mixed","Both","done","37","m150cad.wav","space","604.219361558","147","183865.515117","NA","NA","NA","NA","NA","NA","NA","184632.379253","185398.898041","NA","NA","NA","NA","NA","NA","184642.031361","Mapping"
"Mixed","Both","done","37","m150depth.wav","None","723.117539077","147","183865.515117","NA","NA","NA","NA","NA","NA","NA","184632.379253","185398.898041","186165.306764","NA","NA","NA","NA","NA","185408.778629","Mapping"
"Mixed","Both","done","37","m160priest.wav","None","722.879474866","147","183865.515117","NA","NA","NA","NA","NA","NA","NA","184632.379253","185398.898041","186165.306764","186932.061144","NA","NA","NA","NA","186175.719441","Mapping"
"Mixed","Both","done","37","m150done.wav","None","723.865122185","147","183865.515117","NA","NA","NA","NA","NA","NA","NA","184632.379253","185398.898041","186165.306764","186932.061144","187699.235691","NA","NA","NA","186941.453854","Mapping"
"Mixed","Both","done","37","m160jaw.wav","space","456.72071958","147","183865.515117","NA","NA","NA","NA","NA","NA","NA","184632.379253","185398.898041","186165.306764","186932.061144","187699.235691","188464.710398","NA","NA","187709.483886","Mapping"
"Mixed","Both","done","37","m160jaw.wav","None","730.234728078","147","183865.515117","NA","NA","NA","NA","NA","NA","NA","184632.379253","185398.898041","186165.306764","186932.061144","187699.235691","188464.710398","189231.760657","NA","188473.856388","Mapping"
"Mixed","Both","done","37","m160cave.wav","None","725.703471689","147","183865.515117","NA","NA","NA","NA","NA","NA","NA","184632.379253","185398.898041","186165.306764","186932.061144","187699.235691","188464.710398","189231.760657","189998.464023","189241.481711","Mapping"
"Mixed","Both","done","37","m150done.wav","None","725.906289998","147","183865.515117","190765.682163","NA","NA","NA","NA","NA","NA","184632.379253","185398.898041","186165.306764","186932.061144","187699.235691","188464.710398","189231.760657","189998.464023","190007.684833","Mapping"
"Mixed","Both","done","37","m150jaw.wav","space","510.000701877","147","183865.515117","190765.682163","191532.535788","NA","NA","NA","NA","NA","184632.379253","185398.898041","186165.306764","186932.061144","187699.235691","188464.710398","189231.760657","189998.464023","190776.201196","Mapping"
"Mixed","Both","done","37","m150gnash.wav","None","720.70412559","147","183865.515117","190765.682163","191532.535788","192299.111774","NA","NA","NA","NA","184632.379253","185398.898041","186165.306764","186932.061144","187699.235691","188464.710398","189231.760657","189998.464023","191542.44822","Mapping"
"Mixed","Both","done","37","m160done.wav","None","720.489558647","147","183865.515117","190765.682163","191532.535788","192299.111774","193048.293622","NA","NA","NA","184632.379253","185398.898041","186165.306764","186932.061144","187699.235691","188464.710398","189231.760657","189998.464023","192309.271855","Mapping"
"Mixed","Both","done","37","m160cad.wav","space","524.408526602","147","183865.515117","190765.682163","191532.535788","192299.111774","193048.293622","193815.052638","NA","NA","184632.379253","185398.898041","186165.306764","186932.061144","187699.235691","188464.710398","189231.760657","189998.464023","193057.727452","Mapping"
"Mixed","Both","done","37","m150reek.wav","None","740.557434852","147","183865.515117","190765.682163","191532.535788","192299.111774","193048.293622","193815.052638","194581.725705","NA","184632.379253","185398.898041","186165.306764","186932.061144","187699.235691","188464.710398","189231.760657","189998.464023","193819.645421","Mapping"
"Mixed","Both","done","37","m160cave.wav","None","735.593643738","147","183865.515117","190765.682163","191532.535788","192299.111774","193048.293622","193815.052638","194581.725705","195348.799152","184632.379253","185398.898041","186165.306764","186932.061144","187699.235691","188464.710398","189231.760657","189998.464023","194591.44243","Mapping"
"Mixed","Both","ball","12","m150knife.wav","None","731.393822003","147","198499.106332","190765.682163","191532.535788","192299.111774","193048.293622","193815.052638","194581.725705","195348.799152","184632.379253","185398.898041","186165.306764","186932.061144","187699.235691","188464.710398","189231.760657","189998.464023","195358.781458","Mapping"
"Mixed","Both","ball","12","m160greet.wav","None","667.558634072","147","198499.106332","190765.682163","191532.535788","192299.111774","193048.293622","193815.052638","194581.725705","195348.799152","199265.656038","185398.898041","186165.306764","186932.061144","187699.235691","188464.710398","189231.760657","189998.464023","198564.145753","Mapping"
"Mixed","Both","ball","12","m160ball.wav","None","723.597377422","147","198499.106332","190765.682163","191532.535788","192299.111774","193048.293622","193815.052638","194581.725705","195348.799152","199265.656038","200031.801654","186165.306764","186932.061144","187699.235691","188464.710398","189231.760657","189998.464023","199275.41883","Mapping"
"Mixed","Both","ball","12","m160jolt.wav","space","533.135276404","147","198499.106332","190765.682163","191532.535788","192299.111774","193048.293622","193815.052638","194581.725705","195348.799152","199265.656038","200031.801654","200799.236835","186932.061144","187699.235691","188464.710398","189231.760657","189998.464023","200040.895084","Mapping"
"Mixed","Both","ball","12","m150priest.wav","None","723.828021321","147","198499.106332","190765.682163","191532.535788","192299.111774","193048.293622","193815.052638","194581.725705","195348.799152","199265.656038","200031.801654","200799.236835","201565.54353","187699.235691","188464.710398","189231.760657","189998.464023","200808.200102","Mapping"
"Mixed","Both","ball","12","m150cad.wav","None","723.551928764","147","198499.106332","190765.682163","191532.535788","192299.111774","193048.293622","193815.052638","194581.725705","195348.799152","199265.656038","200031.801654","200799.236835","201565.54353","202332.158472","188464.710398","189231.760657","189998.464023","201575.660636","Mapping"
"Mixed","Both","ball","12","m150ball.wav","None","720.946827321","147","198499.106332","190765.682163","191532.535788","192299.111774","193048.293622","193815.052638","194581.725705","195348.799152","199265.656038","200031.801654","200799.236835","201565.54353","202332.158472","203098.941604","189231.760657","189998.464023","202341.725247","Mapping"
"Mixed","Both","ball","12","m150romp.wav","space","408.530053101","147","198499.106332","190765.682163","191532.535788","192299.111774","193048.293622","193815.052638","194581.725705","195348.799152","199265.656038","200031.801654","200799.236835","201565.54353","202332.158472","203098.941604","203848.487968","189998.464023","203109.431883","Mapping"
"Mixed","Both","ball","12","m150ball.wav","None","734.506278299","147","198499.106332","190765.682163","191532.535788","192299.111774","193048.293622","193815.052638","194581.725705","195348.799152","199265.656038","200031.801654","200799.236835","201565.54353","202332.158472","203098.941604","203848.487968","204614.924826","203857.939422","Mapping"
"Mixed","Both","ball","12","m160lash.wav","space","534.00467406","147","198499.106332","205381.857599","191532.535788","192299.111774","193048.293622","193815.052638","194581.725705","195348.799152","199265.656038","200031.801654","200799.236835","201565.54353","202332.158472","203098.941604","203848.487968","204614.924826","204623.938489","Mapping"
"Mixed","Both","ball","12","m150jolt.wav","None","731.718454859","147","198499.106332","205381.857599","206148.266321","192299.111774","193048.293622","193815.052638","194581.725705","195348.799152","199265.656038","200031.801654","200799.236835","201565.54353","202332.158472","203098.941604","203848.487968","204614.924826","205390.839726","Mapping"
"Mixed","Both","ball","12","m150knife.wav","None","732.005368569","147","198499.106332","205381.857599","206148.266321","206915.217336","193048.293622","193815.052638","194581.725705","195348.799152","199265.656038","200031.801654","200799.236835","201565.54353","202332.158472","203098.941604","203848.487968","204614.924826","206157.245666","Mapping"
"Mixed","Both","ball","12","m160reek.wav","None","728.093078826","147","198499.106332","205381.857599","206148.266321","206915.217336","207681.729941","193815.052638","194581.725705","195348.799152","199265.656038","200031.801654","200799.236835","201565.54353","202332.158472","203098.941604","203848.487968","204614.924826","206924.517603","Mapping"
"Mixed","Both","ball","12","m160ball.wav","None","727.923342143","147","198499.106332","205381.857599","206148.266321","206915.217336","207681.729941","208448.243473","194581.725705","195348.799152","199265.656038","200031.801654","200799.236835","201565.54353","202332.158472","203098.941604","203848.487968","204614.924826","207691.330417","Mapping"
"Mixed","Both","ball","12","m160cave.wav","space","340.634790133","147","198499.106332","205381.857599","206148.266321","206915.217336","207681.729941","208448.243473","209215.522212","195348.799152","199265.656038","200031.801654","200799.236835","201565.54353","202332.158472","203098.941604","203848.487968","204614.924826","208457.250644","Mapping"
"Mixed","Both","ball","12","m160jolt.wav","None","720.219031326","147","198499.106332","205381.857599","206148.266321","206915.217336","207681.729941","208448.243473","209215.522212","209965.183589","199265.656038","200031.801654","200799.236835","201565.54353","202332.158472","203098.941604","203848.487968","204614.924826","209225.426606","Mapping"
"Mixed","Both","done","43","m150tile.wav","None","734.482162632","147","213098.816079","205381.857599","206148.266321","206915.217336","207681.729941","208448.243473","209215.522212","209965.183589","199265.656038","200031.801654","200799.236835","201565.54353","202332.158472","203098.941604","203848.487968","204614.924826","209974.511373","Mapping"
"Mixed","Both","done","43","m160done.wav","None","722.629971453","147","213098.816079","205381.857599","206148.266321","206915.217336","207681.729941","208448.243473","209215.522212","209965.183589","213865.319409","200031.801654","200799.236835","201565.54353","202332.158472","203098.941604","203848.487968","204614.924826","213109.102922","Mapping"
"Mixed","Both","done","43","m150priest.wav","space","410.377986962","147","213098.816079","205381.857599","206148.266321","206915.217336","207681.729941","208448.243473","209215.522212","209965.183589","213865.319409","214615.060244","200799.236835","201565.54353","202332.158472","203098.941604","203848.487968","204614.924826","213875.440844","Mapping"
"Mixed","Both","done","43","m160depth.wav","None","740.027510212","147","213098.816079","205381.857599","206148.266321","206915.217336","207681.729941","208448.243473","209215.522212","209965.183589","213865.319409","214615.060244","215381.410842","201565.54353","202332.158472","203098.941604","203848.487968","204614.924826","214618.604308","Mapping"
"Mixed","Both","done","43","m160priest.wav","None","734.735685401","147","213098.816079","205381.857599","206148.266321","206915.217336","207681.729941","208448.243473","209215.522212","209965.183589","213865.319409","214615.060244","215381.410842","216148.46512","202332.158472","203098.941604","203848.487968","204614.924826","215390.620522","Mapping"
"Mixed","Both","done","43","m160done.wav","None","730.531535344","147","213098.816079","205381.857599","206148.266321","206915.217336","207681.729941","208448.243473","209215.522212","209965.183589","213865.319409","214615.060244","215381.410842","216148.46512","216915.102941","203098.941604","203848.487968","204614.924826","216158.120629","Mapping"
"Mixed","Both","done","43","m150cad.wav","space","657.444620039","147","213098.816079","205381.857599","206148.266321","206915.217336","207681.729941","208448.243473","209215.522212","209965.183589","213865.319409","214615.060244","215381.410842","216148.46512","216915.102941","217681.417675","203848.487968","204614.924826","216924.351886","Mapping"
"Mixed","Both","done","43","m150done.wav","None","724.947540904","147","213098.816079","205381.857599","206148.266321","206915.217336","207681.729941","208448.243473","209215.522212","209965.183589","213865.319409","214615.060244","215381.410842","216148.46512","216915.102941","217681.417675","218448.733824","204614.924826","217690.437831","Mapping"
"Mixed","Both","done","43","m150reek.wav","space","635.053300066","147","213098.816079","205381.857599","206148.266321","206915.217336","207681.729941","208448.243473","209215.522212","209965.183589","213865.319409","214615.060244","215381.410842","216148.46512","216915.102941","217681.417675","218448.733824","219198.007496","218458.705927","Mapping"
"Mixed","Both","done","43","m160priest.wav","None","734.6936377","147","213098.816079","219965.032094","206148.266321","206915.217336","207681.729941","208448.243473","209215.522212","209965.183589","213865.319409","214615.060244","215381.410842","216148.46512","216915.102941","217681.417675","218448.733824","219198.007496","219207.050531","Mapping"
"Mixed","Both","done","43","m150cave.wav","None","730.740846251","147","213098.816079","219965.032094","220731.288084","206915.217336","207681.729941","208448.243473","209215.522212","209965.183589","213865.319409","214615.060244","215381.410842","216148.46512","216915.102941","217681.417675","218448.733824","219198.007496","219974.341018","Mapping"
"Mixed","Both","done","43","m150priest.wav","None","731.519037625","147","213098.816079","219965.032094","220731.288084","221498.008455","207681.729941","208448.243473","209215.522212","209965.183589","213865.319409","214615.060244","215381.410842","216148.46512","216915.102941","217681.417675","218448.733824","219198.007496","220740.198484","Mapping"
"Mixed","Both","done","43","m150done.wav","None","728.108228301","147","213098.816079","219965.032094","220731.288084","221498.008455","222264.728516","208448.243473","209215.522212","209965.183589","213865.319409","214615.060244","215381.410842","216148.46512","216915.102941","217681.417675","218448.733824","219198.007496","221507.249052","Mapping"
"Mixed","Both","done","43","m160jaw.wav","space","588.213724666","147","213098.816079","219965.032094","220731.288084","221498.008455","222264.728516","223031.666854","209215.522212","209965.183589","213865.319409","214615.060244","215381.410842","216148.46512","216915.102941","217681.417675","218448.733824","219198.007496","222273.480309","Mapping"
"Mixed","Both","done","43","m160cave.wav","None","721.458201297","147","213098.816079","219965.032094","220731.288084","221498.008455","222264.728516","223031.666854","223781.525484","209965.183589","213865.319409","214615.060244","215381.410842","216148.46512","216915.102941","217681.417675","218448.733824","219198.007496","223040.482336","Mapping"
"Mixed","Both","done","43","m160depth.wav","None","734.644479118","147","213098.816079","219965.032094","220731.288084","221498.008455","222264.728516","223031.666854","223781.525484","224548.2811","213865.319409","214615.060244","215381.410842","216148.46512","216915.102941","217681.417675","218448.733824","219198.007496","223790.784941","Mapping"
"Mixed","Both","tile","34","m150cling.wav","None","730.758778285","147","227681.927194","219965.032094","220731.288084","221498.008455","222264.728516","223031.666854","223781.525484","224548.2811","213865.319409","214615.060244","215381.410842","216148.46512","216915.102941","217681.417675","218448.733824","219198.007496","224557.970309","Mapping"
"Mixed","Both","tile","34","m160romp.wav","None","723.549764487","147","227681.927194","219965.032094","220731.288084","221498.008455","222264.728516","223031.666854","223781.525484","224548.2811","228448.707853","214615.060244","215381.410842","216148.46512","216915.102941","217681.417675","218448.733824","219198.007496","227691.497062","Mapping"
"Mixed","Both","tile","34","m160tile.wav","None","723.151238984","147","227681.927194","219965.032094","220731.288084","221498.008455","222264.728516","223031.666854","223781.525484","224548.2811","228448.707853","229214.524816","215381.410842","216148.46512","216915.102941","217681.417675","218448.733824","219198.007496","228458.633271","Mapping"
"Mixed","Both","tile","34","m160park.wav","space","589.743518387","147","227681.927194","219965.032094","220731.288084","221498.008455","222264.728516","223031.666854","223781.525484","224548.2811","228448.707853","229214.524816","229981.82798","216148.46512","216915.102941","217681.417675","218448.733824","219198.007496","229223.858166","Mapping"
"Mixed","Both","tile","34","m150greet.wav","None","723.370443447","147","227681.927194","219965.032094","220731.288084","221498.008455","222264.728516","223031.666854","223781.525484","224548.2811","228448.707853","229214.524816","229981.82798","230748.027392","216915.102941","217681.417675","218448.733824","219198.007496","229991.720625","Mapping"
"Mixed","Both","tile","34","m150romp.wav","None","725.250531454","147","227681.927194","219965.032094","220731.288084","221498.008455","222264.728516","223031.666854","223781.525484","224548.2811","228448.707853","229214.524816","229981.82798","230748.027392","231515.188026","217681.417675","218448.733824","219198.007496","230757.290249","Mapping"
"Mixed","Both","tile","34","m150dime.wav","None","721.014536452","147","227681.927194","219965.032094","220731.288084","221498.008455","222264.728516","223031.666854","223781.525484","224548.2811","228448.707853","229214.524816","229981.82798","230748.027392","231515.188026","232281.845015","218448.733824","219198.007496","231525.046662","Mapping"
"Mixed","Both","tile","34","m160priest.wav","None","721.821171814","147","227681.927194","219965.032094","220731.288084","221498.008455","222264.728516","223031.666854","223781.525484","224548.2811","228448.707853","229214.524816","229981.82798","230748.027392","231515.188026","232281.845015","233031.822987","219198.007496","232291.325222","Mapping"
"Mixed","Both","tile","34","m150tile.wav","None","735.831398633","147","227681.927194","219965.032094","220731.288084","221498.008455","222264.728516","223031.666854","223781.525484","224548.2811","228448.707853","229214.524816","229981.82798","230748.027392","231515.188026","232281.845015","233031.822987","233798.101238","233040.900958","Mapping"
"Mixed","Both","tile","34","m160lash.wav","None","732.751405798","147","227681.927194","234564.833357","220731.288084","221498.008455","222264.728516","223031.666854","223781.525484","224548.2811","228448.707853","229214.524816","229981.82798","230748.027392","231515.188026","232281.845015","233031.822987","233798.101238","233807.416346","Mapping"
"Mixed","Both","tile","34","m160cad.wav","space","0.0380284618586","147","227681.927194","234564.833357","235331.516008","221498.008455","222264.728516","223031.666854","223781.525484","224548.2811","228448.707853","229214.524816","229981.82798","230748.027392","231515.188026","232281.845015","233031.822987","233798.101238","234574.521947","Mapping"
"Mixed","Both","tile","34","m160tile.wav","None","726.093340316","147","227681.927194","234564.833357","235331.516008","236098.668603","222264.728516","223031.666854","223781.525484","224548.2811","228448.707853","229214.524816","229981.82798","230748.027392","231515.188026","232281.845015","233031.822987","233798.101238","235340.878419","Mapping"
"Mixed","Both","tile","34","m160ball.wav","space","689.173926949","147","227681.927194","234564.833357","235331.516008","236098.668603","236864.789176","223031.666854","223781.525484","224548.2811","228448.707853","229214.524816","229981.82798","230748.027392","231515.188026","232281.845015","233031.822987","233798.101238","236108.320093","Mapping"
"Mixed","Both","tile","34","m150dime.wav","None","720.326314797","147","227681.927194","234564.833357","235331.516008","236098.668603","236864.789176","237614.653989","223781.525484","224548.2811","228448.707853","229214.524816","229981.82798","230748.027392","231515.188026","232281.845015","233031.822987","233798.101238","236873.7948","Mapping"
"Mixed","Both","tile","34","m150tile.wav","None","733.848355711","147","227681.927194","234564.833357","235331.516008","236098.668603","236864.789176","237614.653989","238381.13815","224548.2811","228448.707853","229214.524816","229981.82798","230748.027392","231515.188026","232281.845015","233031.822987","233798.101238","237624.234678","Mapping"
"Mixed","Both","tile","34","m150romp.wav","None","731.291485368","147","227681.927194","234564.833357","235331.516008","236098.668603","236864.789176","237614.653989","238381.13815","239147.793285","228448.707853","229214.524816","229981.82798","230748.027392","231515.188026","232281.845015","233031.822987","233798.101238","238390.410902","Mapping"
"Mixed","Both","ball","2","m160jaw.wav","space","344.672295498","147","242281.778543","234564.833357","235331.516008","236098.668603","236864.789176","237614.653989","238381.13815","239147.793285","228448.707853","229214.524816","229981.82798","230748.027392","231515.188026","232281.845015","233031.822987","233798.101238","239156.780978","Mapping"
"Mixed","Both","ball","2","m160cave.wav","None","720.102163497","147","242281.778543","234564.833357","235331.516008","236098.668603","236864.789176","237614.653989","238381.13815","239147.793285","243031.2303","229214.524816","229981.82798","230748.027392","231515.188026","232281.845015","233031.822987","233798.101238","242291.272663","Mapping"
"Mixed","Both","ball","2","m160ball.wav","None","734.453718644","147","242281.778543","234564.833357","235331.516008","236098.668603","236864.789176","237614.653989","238381.13815","239147.793285","243031.2303","243798.080832","229981.82798","230748.027392","231515.188026","232281.845015","233031.822987","233798.101238","243040.414936","Mapping"
"Mixed","Both","ball","2","m150knife.wav","space","493.981152074","147","242281.778543","234564.833357","235331.516008","236098.668603","236864.789176","237614.653989","238381.13815","239147.793285","243031.2303","243798.080832","244564.592819","230748.027392","231515.188026","232281.845015","233031.822987","233798.101238","243807.386974","Mapping"
"Mixed","Both","ball","2","m150cad.wav","None","727.147933329","147","242281.778543","234564.833357","235331.516008","236098.668603","236864.789176","237614.653989","238381.13815","239147.793285","243031.2303","243798.080832","244564.592819","245331.010817","231515.188026","232281.845015","233031.822987","233798.101238","244574.338607","Mapping"
"Mixed","Both","ball","2","m160ball.wav","None","724.920024397","147","242281.778543","234564.833357","235331.516008","236098.668603","236864.789176","237614.653989","238381.13815","239147.793285","243031.2303","243798.080832","244564.592819","245331.010817","246097.739226","232281.845015","233031.822987","233798.101238","245340.22668","Mapping"
"Mixed","Both","ball","2","m150jolt.wav","space","386.517780833","147","242281.778543","234564.833357","235331.516008","236098.668603","236864.789176","237614.653989","238381.13815","239147.793285","243031.2303","243798.080832","244564.592819","245331.010817","246097.739226","246847.85447","233031.822987","233798.101238","246106.816579","Mapping"
"Mixed","Both","ball","2","m160lash.wav","None","734.526065411","147","242281.778543","234564.833357","235331.516008","236098.668603","236864.789176","237614.653989","238381.13815","239147.793285","243031.2303","243798.080832","244564.592819","245331.010817","246097.739226","246847.85447","247614.259174","233798.101238","246857.339006","Mapping"
"Mixed","Both","ball","2","m160greet.wav","None","732.517979341","147","242281.778543","234564.833357","235331.516008","236098.668603","236864.789176","237614.653989","238381.13815","239147.793285","243031.2303","243798.080832","244564.592819","245331.010817","246097.739226","246847.85447","247614.259174","248381.173705","247623.310866","Mapping"
"Mixed","Both","ball","2","m150greet.wav","None","729.100058903","147","242281.778543","249147.723721","235331.516008","236098.668603","236864.789176","237614.653989","238381.13815","239147.793285","243031.2303","243798.080832","244564.592819","245331.010817","246097.739226","246847.85447","247614.259174","248381.173705","248390.25415","Mapping"
"Mixed","Both","ball","2","m160dime.wav","None","726.199077908","147","242281.778543","249147.723721","249914.589712","236098.668603","236864.789176","237614.653989","238381.13815","239147.793285","243031.2303","243798.080832","244564.592819","245331.010817","246097.739226","246847.85447","247614.259174","248381.173705","249156.627627","Mapping"
"Mixed","Both","ball","2","m160dime.wav","space","385.35930519","147","242281.778543","249147.723721","249914.589712","250681.383356","236864.789176","237614.653989","238381.13815","239147.793285","243031.2303","243798.080832","244564.592819","245331.010817","246097.739226","246847.85447","247614.259174","248381.173705","249923.928936","Mapping"
"Mixed","Both","ball","2","m150ball.wav","None","721.742023248","147","242281.778543","249147.723721","249914.589712","250681.383356","251448.309637","237614.653989","238381.13815","239147.793285","243031.2303","243798.080832","244564.592819","245331.010817","246097.739226","246847.85447","247614.259174","248381.173705","250691.794487","Mapping"
"Mixed","Both","ball","2","m150knife.wav","space","587.150474661","147","242281.778543","249147.723721","249914.589712","250681.383356","251448.309637","252197.417592","238381.13815","239147.793285","243031.2303","243798.080832","244564.592819","245331.010817","246097.739226","246847.85447","247614.259174","248381.173705","251458.141684","Mapping"
"Mixed","Both","ball","2","m150ball.wav","None","732.444704976","147","242281.778543","249147.723721","249914.589712","250681.383356","251448.309637","252197.417592","252964.498768","239147.793285","243031.2303","243798.080832","244564.592819","245331.010817","246097.739226","246847.85447","247614.259174","248381.173705","252210.16206","Mapping"
"Mixed","Both","ball","2","m150greet.wav","space","662.6761558","147","242281.778543","249147.723721","249914.589712","250681.383356","251448.309637","252197.417592","252964.498768","253731.10258","243031.2303","243798.080832","244564.592819","245331.010817","246097.739226","246847.85447","247614.259174","248381.173705","252974.57259","Mapping"
"Mixed","Both","tile","35","m150jaw.wav","None","728.666287614","147","256864.303463","249147.723721","249914.589712","250681.383356","251448.309637","252197.417592","252964.498768","253731.10258","243031.2303","243798.080832","244564.592819","245331.010817","246097.739226","246847.85447","247614.259174","248381.173705","253740.550324","Mapping"
"Mixed","Both","tile","35","m160tile.wav","None","584.025651566","147","256864.303463","249147.723721","249914.589712","250681.383356","251448.309637","252197.417592","252964.498768","253731.10258","257614.414379","243798.080832","244564.592819","245331.010817","246097.739226","246847.85447","247614.259174","248381.173705","257010.13442","Mapping"
"Mixed","Both","tile","35","m150jaw.wav","space","557.530044811","147","256864.303463","249147.723721","249914.589712","250681.383356","251448.309637","252197.417592","252964.498768","253731.10258","257614.414379","258381.061166","244564.592819","245331.010817","246097.739226","246847.85447","247614.259174","248381.173705","257623.660232","Mapping"
"Mixed","Both","tile","35","m150greet.wav","None","726.760847378","147","256864.303463","249147.723721","249914.589712","250681.383356","251448.309637","252197.417592","252964.498768","253731.10258","257614.414379","258381.061166","259147.853883","245331.010817","246097.739226","246847.85447","247614.259174","248381.173705","258394.562183","Mapping"
"Mixed","Both","tile","35","m150tile.wav","None","727.368992753","147","256864.303463","249147.723721","249914.589712","250681.383356","251448.309637","252197.417592","252964.498768","253731.10258","257614.414379","258381.061166","259147.853883","259914.034744","246097.739226","246847.85447","247614.259174","248381.173705","259157.758896","Mapping"
"Mixed","Both","tile","35","m160bluff.wav","space","568.670826266","147","256864.303463","249147.723721","249914.589712","250681.383356","251448.309637","252197.417592","252964.498768","253731.10258","257614.414379","258381.061166","259147.853883","259914.034744","260680.977102","246847.85447","247614.259174","248381.173705","259924.454841","Mapping"
"Mixed","Both","tile","35","m160reek.wav","None","725.403881865","147","256864.303463","249147.723721","249914.589712","250681.383356","251448.309637","252197.417592","252964.498768","253731.10258","257614.414379","258381.061166","259147.853883","259914.034744","260680.977102","261447.789606","247614.259174","248381.173705","260689.878844","Mapping"
"Mixed","Both","tile","35","m150ball.wav","None","722.229281673","147","256864.303463","249147.723721","249914.589712","250681.383356","251448.309637","252197.417592","252964.498768","253731.10258","257614.414379","258381.061166","259147.853883","259914.034744","260680.977102","261447.789606","262197.470461","248381.173705","261456.786883","Mapping"
"Mixed","Both","tile","35","m160dime.wav","None","734.102187678","147","256864.303463","249147.723721","249914.589712","250681.383356","251448.309637","252197.417592","252964.498768","253731.10258","257614.414379","258381.061166","259147.853883","259914.034744","260680.977102","261447.789606","262197.470461","262964.427658","262208.536113","Mapping"
"Mixed","Both","tile","35","m150dime.wav","None","732.273113332","147","256864.303463","263730.871008","249914.589712","250681.383356","251448.309637","252197.417592","252964.498768","253731.10258","257614.414379","258381.061166","259147.853883","259914.034744","260680.977102","261447.789606","262197.470461","262964.427658","262973.985777","Mapping"
"Mixed","Both","tile","35","m150tile.wav","None","730.09003466","147","256864.303463","263730.871008","264497.392271","250681.383356","251448.309637","252197.417592","252964.498768","253731.10258","257614.414379","258381.061166","259147.853883","259914.034744","260680.977102","261447.789606","262197.470461","262964.427658","263740.025964","Mapping"
"Mixed","Both","tile","35","m160park.wav","space","384.605538566","147","256864.303463","263730.871008","264497.392271","265264.558161","251448.309637","252197.417592","252964.498768","253731.10258","257614.414379","258381.061166","259147.853883","259914.034744","260680.977102","261447.789606","262197.470461","262964.427658","264508.430406","Mapping"
"Mixed","Both","tile","35","m160ball.wav","None","722.21227712","147","256864.303463","263730.871008","264497.392271","265264.558161","266031.035829","252197.417592","252964.498768","253731.10258","257614.414379","258381.061166","259147.853883","259914.034744","260680.977102","261447.789606","262197.470461","262964.427658","265274.594572","Mapping"
"Mixed","Both","tile","35","m160tile.wav","None","719.098275062","147","256864.303463","263730.871008","264497.392271","265264.558161","266031.035829","266780.754403","252964.498768","253731.10258","257614.414379","258381.061166","259147.853883","259914.034744","260680.977102","261447.789606","262197.470461","262964.427658","266041.486225","Mapping"
"Mixed","Both","tile","35","m150bluff.wav","space","471.131945262","147","256864.303463","263730.871008","264497.392271","265264.558161","266031.035829","266780.754403","267547.572782","253731.10258","257614.414379","258381.061166","259147.853883","259914.034744","260680.977102","261447.789606","262197.470461","262964.427658","266789.895137","Mapping"
"Mixed","Both","tile","35","m160done.wav","None","733.42107702","147","256864.303463","263730.871008","264497.392271","265264.558161","266031.035829","266780.754403","267547.572782","268314.029427","257614.414379","258381.061166","259147.853883","259914.034744","260680.977102","261447.789606","262197.470461","262964.427658","267557.462954","Mapping"
"Mixed","Both","done","44","m160cave.wav","None","730.36118038","147","271448.051785","263730.871008","264497.392271","265264.558161","266031.035829","266780.754403","267547.572782","268314.029427","257614.414379","258381.061166","259147.853883","259914.034744","260680.977102","261447.789606","262197.470461","262964.427658","268324.404693","Mapping"
"Mixed","Both","done","44","m160done.wav","None","717.767280294","147","271448.051785","263730.871008","264497.392271","265264.558161","266031.035829","266780.754403","267547.572782","268314.029427","272197.484374","258381.061166","259147.853883","259914.034744","260680.977102","261447.789606","262197.470461","262964.427658","271459.168451","Mapping"
"Mixed","Both","done","44","m160depth.wav","space","460.603019455","147","271448.051785","263730.871008","264497.392271","265264.558161","266031.035829","266780.754403","267547.572782","268314.029427","272197.484374","272964.222057","259147.853883","259914.034744","260680.977102","261447.789606","262197.470461","262964.427658","272208.347826","Mapping"
"Mixed","Both","done","44","m160greet.wav","None","730.042730924","147","271448.051785","263730.871008","264497.392271","265264.558161","266031.035829","266780.754403","267547.572782","268314.029427","272197.484374","272964.222057","273730.614394","259914.034744","260680.977102","261447.789606","262197.470461","262964.427658","272973.527581","Mapping"
"Mixed","Both","done","44","m150cad.wav","None","727.517087362","147","271448.051785","263730.871008","264497.392271","265264.558161","266031.035829","266780.754403","267547.572782","268314.029427","272197.484374","272964.222057","273730.614394","274497.940127","260680.977102","261447.789606","262197.470461","262964.427658","273739.707824","Mapping"
"Mixed","Both","done","44","m160greet.wav","None","722.66027052","147","271448.051785","263730.871008","264497.392271","265264.558161","266031.035829","266780.754403","267547.572782","268314.029427","272197.484374","272964.222057","273730.614394","274497.940127","275264.203847","261447.789606","262197.470461","262964.427658","274508.200381","Mapping"
"Mixed","Both","done","44","m150reek.wav","None","721.155210631","147","271448.051785","263730.871008","264497.392271","265264.558161","266031.035829","266780.754403","267547.572782","268314.029427","272197.484374","272964.222057","273730.614394","274497.940127","275264.203847","276013.910364","262197.470461","262964.427658","275273.328504","Mapping"
"Mixed","Both","done","44","m160gnash.wav","None","734.804322128","147","271448.051785","263730.871008","264497.392271","265264.558161","266031.035829","266780.754403","267547.572782","268314.029427","272197.484374","272964.222057","273730.614394","274497.940127","275264.203847","276013.910364","276780.421732","262964.427658","276023.346359","Mapping"
"Mixed","Both","done","44","m150gnash.wav","None","735.507693258","147","271448.051785","263730.871008","264497.392271","265264.558161","266031.035829","266780.754403","267547.572782","268314.029427","272197.484374","272964.222057","273730.614394","274497.940127","275264.203847","276013.910364","276780.421732","277547.488687","276789.725092","Mapping"
"Mixed","Both","done","44","m160done.wav","None","731.824810733","147","271448.051785","278313.88226","264497.392271","265264.558161","266031.035829","266780.754403","267547.572782","268314.029427","272197.484374","272964.222057","273730.614394","274497.940127","275264.203847","276013.910364","276780.421732","277547.488687","277557.095346","Mapping"
"Mixed","Both","done","44","m150reek.wav","space","473.731172504","147","271448.051785","278313.88226","279080.744541","265264.558161","266031.035829","266780.754403","267547.572782","268314.029427","272197.484374","272964.222057","273730.614394","274497.940127","275264.203847","276013.910364","276780.421732","277547.488687","278323.131823","Mapping"
"Mixed","Both","done","44","m150done.wav","None","726.597294211","147","271448.051785","278313.88226","279080.744541","279847.651652","266031.035829","266780.754403","267547.572782","268314.029427","272197.484374","272964.222057","273730.614394","274497.940127","275264.203847","276013.910364","276780.421732","277547.488687","279090.192594","Mapping"
"Mixed","Both","done","44","m160cling.wav","space","579.114420107","147","271448.051785","278313.88226","279080.744541","279847.651652","280614.004414","266780.754403","267547.572782","268314.029427","272197.484374","272964.222057","273730.614394","274497.940127","275264.203847","276013.910364","276780.421732","277547.488687","279857.72702","Mapping"
"Mixed","Both","done","44","m150romp.wav","None","723.996212007","147","271448.051785","278313.88226","279080.744541","279847.651652","280614.004414","281380.812281","267547.572782","268314.029427","272197.484374","272964.222057","273730.614394","274497.940127","275264.203847","276013.910364","276780.421732","277547.488687","280622.838138","Mapping"
"Mixed","Both","done","44","m150done.wav","None","720.895195263","147","271448.051785","278313.88226","279080.744541","279847.651652","280614.004414","281380.812281","282130.658544","268314.029427","272197.484374","272964.222057","273730.614394","274497.940127","275264.203847","276013.910364","276780.421732","277547.488687","281389.692999","Mapping"
"Mixed","Both","done","44","m150cave.wav","space","520.360200317","147","271448.051785","278313.88226","279080.744541","279847.651652","280614.004414","281380.812281","282130.658544","282897.497328","272197.484374","272964.222057","273730.614394","274497.940127","275264.203847","276013.910364","276780.421732","277547.488687","282140.452254","Mapping"
"Mixed","Both","ball","5","m160park.wav","None","730.346649187","147","286030.916179","278313.88226","279080.744541","279847.651652","280614.004414","281380.812281","282130.658544","282897.497328","272197.484374","272964.222057","273730.614394","274497.940127","275264.203847","276013.910364","276780.421732","277547.488687","282907.067814","Mapping"
"Mixed","Both","ball","5","m150bluff.wav","None","720.167090069","147","286030.916179","278313.88226","279080.744541","279847.651652","280614.004414","281380.812281","282130.658544","282897.497328","286780.559933","272964.222057","273730.614394","274497.940127","275264.203847","276013.910364","276780.421732","277547.488687","286040.633523","Mapping"
"Mixed","Both","ball","5","m160ball.wav","None","734.608305618","147","286030.916179","278313.88226","279080.744541","279847.651652","280614.004414","281380.812281","282130.658544","282897.497328","286780.559933","287547.081504","273730.614394","274497.940127","275264.203847","276013.910364","276780.421732","277547.488687","286789.998092","Mapping"
"Mixed","Both","ball","5","m160done.wav","space","472.446863074","147","286030.916179","278313.88226","279080.744541","279847.651652","280614.004414","281380.812281","282130.658544","282897.497328","286780.559933","287547.081504","288313.731692","274497.940127","275264.203847","276013.910364","276780.421732","277547.488687","287556.285","Mapping"
"Mixed","Both","ball","5","m150dime.wav","None","728.887347155","147","286030.916179","278313.88226","279080.744541","279847.651652","280614.004414","281380.812281","282130.658544","282897.497328","286780.559933","287547.081504","288313.731692","289080.60263","275264.203847","276013.910364","276780.421732","277547.488687","288322.793586","Mapping"
"Mixed","Both","ball","5","m150ball.wav","None","725.402335986","147","286030.916179","278313.88226","279080.744541","279847.651652","280614.004414","281380.812281","282130.658544","282897.497328","286780.559933","287547.081504","288313.731692","289080.60263","289847.648561","276013.910364","276780.421732","277547.488687","289090.057176","Mapping"
"Mixed","Both","ball","5","m150done.wav","space","642.667950364","147","286030.916179","278313.88226","279080.744541","279847.651652","280614.004414","281380.812281","282130.658544","282897.497328","286780.559933","287547.081504","288313.731692","289080.60263","289847.648561","290614.132103","276780.421732","277547.488687","289858.03372","Mapping"
"Mixed","Both","ball","5","m150jaw.wav","None","719.061792479","147","286030.916179","278313.88226","279080.744541","279847.651652","280614.004414","281380.812281","282130.658544","282897.497328","286780.559933","287547.081504","288313.731692","289080.60263","289847.648561","290614.132103","291363.870156","277547.488687","290623.860886","Mapping"
"Mixed","Both","ball","5","m150ball.wav","None","733.218567795","147","286030.916179","278313.88226","279080.744541","279847.651652","280614.004414","281380.812281","282130.658544","282897.497328","286780.559933","287547.081504","288313.731692","289080.60263","289847.648561","290614.132103","291363.870156","292130.520962","291373.456409","Mapping"
"Mixed","Both","ball","5","m160tile.wav","space","456.647136132","147","286030.916179","292896.994611","279080.744541","279847.651652","280614.004414","281380.812281","282130.658544","282897.497328","286780.559933","287547.081504","288313.731692","289080.60263","289847.648561","290614.132103","291363.870156","292130.520962","292140.019101","Mapping"
"Mixed","Both","ball","5","m150depth.wav","None","727.151025087","147","286030.916179","292896.994611","293663.595331","279847.651652","280614.004414","281380.812281","282130.658544","282897.497328","286780.559933","287547.081504","288313.731692","289080.60263","289847.648561","290614.132103","291363.870156","292130.520962","292906.405563","Mapping"
"Mixed","Both","ball","5","m160park.wav","None","725.285468157","147","286030.916179","292896.994611","293663.595331","294430.631677","280614.004414","281380.812281","282130.658544","282897.497328","286780.559933","287547.081504","288313.731692","289080.60263","289847.648561","290614.132103","291363.870156","292130.520962","293672.482542","Mapping"
"Mixed","Both","ball","5","m160greet.wav","None","722.053052392","147","286030.916179","292896.994611","293663.595331","294430.631677","295180.506693","281380.812281","282130.658544","282897.497328","286780.559933","287547.081504","288313.731692","289080.60263","289847.648561","290614.132103","291363.870156","292130.520962","294439.711503","Mapping"
"Mixed","Both","ball","5","m150gnash.wav","None","735.988459201","147","286030.916179","292896.994611","293663.595331","294430.631677","295180.506693","295946.903976","282130.658544","282897.497328","286780.559933","287547.081504","288313.731692","289080.60263","289847.648561","290614.132103","291363.870156","292130.520962","295189.71359","Mapping"
"Mixed","Both","ball","5","m160ball.wav","None","733.330798103","147","286030.916179","292896.994611","293663.595331","294430.631677","295180.506693","295946.903976","296713.790991","282897.497328","286780.559933","287547.081504","288313.731692","289080.60263","289847.648561","290614.132103","291363.870156","292130.520962","295956.124477","Mapping"
"Mixed","Both","ball","5","m160priest.wav","space","537.312219152","147","286030.916179","292896.994611","293663.595331","294430.631677","295180.506693","295946.903976","296713.790991","297480.458493","286780.559933","287547.081504","288313.731692","289080.60263","289847.648561","290614.132103","291363.870156","292130.520962","296723.276145","Mapping"
"Mixed","Both","tile","36","m150done.wav","None","726.276371395","147","300597.633952","292896.994611","293663.595331","294430.631677","295180.506693","295946.903976","296713.790991","297480.458493","286780.559933","287547.081504","288313.731692","289080.60263","289847.648561","290614.132103","291363.870156","292130.520962","297489.868827","Mapping"
"Mixed","Both","tile","36","m160tile.wav","None","718.63296791","147","300597.633952","292896.994611","293663.595331","294430.631677","295180.506693","295946.903976","296713.790991","297480.458493","301347.053246","287547.081504","288313.731692","289080.60263","289847.648561","290614.132103","291363.870156","292130.520962","300607.829588","Mapping"
"Mixed","Both","tile","36","m160jaw.wav","space","488.105606404","147","300597.633952","292896.994611","293663.595331","294430.631677","295180.506693","295946.903976","296713.790991","297480.458493","301347.053246","302113.947372","288313.731692","289080.60263","289847.648561","290614.132103","291363.870156","292130.520962","301356.420295","Mapping"
"Mixed","Both","tile","36","m160tile.wav","None","730.230708839","147","300597.633952","292896.994611","293663.595331","294430.631677","295180.506693","295946.903976","296713.790991","297480.458493","301347.053246","302113.947372","302880.346819","289080.60263","289847.648561","290614.132103","291363.870156","292130.520962","302123.405628","Mapping"
"Mixed","Both","tile","36","m150park.wav","space","514.700458152","147","300597.633952","292896.994611","293663.595331","294430.631677","295180.506693","295946.903976","296713.790991","297480.458493","301347.053246","302113.947372","302880.346819","303647.129333","289847.648561","290614.132103","291363.870156","292130.520962","302889.785906","Mapping"
"Mixed","Both","tile","36","m160priest.wav","None","727.543985471","147","300597.633952","292896.994611","293663.595331","294430.631677","295180.506693","295946.903976","296713.790991","297480.458493","301347.053246","302113.947372","302880.346819","303647.129333","304413.804564","290614.132103","291363.870156","292130.520962","303656.693327","Mapping"
"Mixed","Both","tile","36","m150tile.wav","None","724.617033731","147","300597.633952","292896.994611","293663.595331","294430.631677","295180.506693","295946.903976","296713.790991","297480.458493","301347.053246","302113.947372","302880.346819","303647.129333","304413.804564","305180.651387","291363.870156","292130.520962","304423.500266","Mapping"
"Mixed","Both","tile","36","m160park.wav","space","453.967214562","147","300597.633952","292896.994611","293663.595331","294430.631677","295180.506693","295946.903976","296713.790991","297480.458493","301347.053246","302113.947372","302880.346819","303647.129333","304413.804564","305180.651387","305930.345845","292130.520962","305190.469521","Mapping"
"Mixed","Both","tile","36","m160reek.wav","None","735.697217053","147","300597.633952","292896.994611","293663.595331","294430.631677","295180.506693","295946.903976","296713.790991","297480.458493","301347.053246","302113.947372","302880.346819","303647.129333","304413.804564","305180.651387","305930.345845","306696.987685","305939.674248","Mapping"
"Mixed","Both","tile","36","m150greet.wav","None","732.902901131","147","300597.633952","307463.823068","293663.595331","294430.631677","295180.506693","295946.903976","296713.790991","297480.458493","301347.053246","302113.947372","302880.346819","303647.129333","304413.804564","305180.651387","305930.345845","306696.987685","306706.347005","Mapping"
"Mixed","Both","tile","36","m150ball.wav","None","730.023871292","147","300597.633952","307463.823068","308230.258998","294430.631677","295180.506693","295946.903976","296713.790991","297480.458493","301347.053246","302113.947372","302880.346819","303647.129333","304413.804564","305180.651387","305930.345845","306696.987685","307473.309459","Mapping"
"Mixed","Both","tile","36","m160lash.wav","None","728.040519054","147","300597.633952","307463.823068","308230.258998","308997.049551","295180.506693","295946.903976","296713.790991","297480.458493","301347.053246","302113.947372","302880.346819","303647.129333","304413.804564","305180.651387","305930.345845","306696.987685","308239.185165","Mapping"
"Mixed","Both","tile","36","m150gnash.wav","None","725.97461741","147","300597.633952","307463.823068","308230.258998","308997.049551","309764.194108","295946.903976","296713.790991","297480.458493","301347.053246","302113.947372","302880.346819","303647.129333","304413.804564","305180.651387","305930.345845","306696.987685","309006.175445","Mapping"
"Mixed","Both","tile","36","m150tile.wav","None","722.039757995","147","300597.633952","307463.823068","308230.258998","308997.049551","309764.194108","310530.701767","296713.790991","297480.458493","301347.053246","302113.947372","302880.346819","303647.129333","304413.804564","305180.651387","305930.345845","306696.987685","309773.936804","Mapping"
"Mixed","Both","tile","36","m150jaw.wav","space","455.997252138","147","300597.633952","307463.823068","308230.258998","308997.049551","309764.194108","310530.701767","311280.194644","297480.458493","301347.053246","302113.947372","302880.346819","303647.129333","304413.804564","305180.651387","305930.345845","306696.987685","310540.399632","Mapping"
"Mixed","Both","tile","36","m160gnash.wav","None","733.503935626","147","300597.633952","307463.823068","308230.258998","308997.049551","309764.194108","310530.701767","311280.194644","312046.671076","301347.053246","302113.947372","302880.346819","303647.129333","304413.804564","305180.651387","305930.345845","306696.987685","311289.811506","Mapping"
"Mixed","Both","done","39","m150dime.wav","None","731.274171616","147","315163.747599","307463.823068","308230.258998","308997.049551","309764.194108","310530.701767","311280.194644","312046.671076","301347.053246","302113.947372","302880.346819","303647.129333","304413.804564","305180.651387","305930.345845","306696.987685","312055.954339","Mapping"
"Mixed","Both","done","39","m160done.wav","None","735.968362773","147","315163.747599","307463.823068","308230.258998","308997.049551","309764.194108","310530.701767","311280.194644","312046.671076","315929.774801","302113.947372","302880.346819","303647.129333","304413.804564","305180.651387","305930.345845","306696.987685","315173.216676","Mapping"
"Mixed","Both","done","39","m160lash.wav","space","425.804231549","147","315163.747599","307463.823068","308230.258998","308997.049551","309764.194108","310530.701767","311280.194644","312046.671076","315929.774801","316696.981502","302880.346819","303647.129333","304413.804564","305180.651387","305930.345845","306696.987685","315938.491348","Mapping"
"Mixed","Both","done","39","m150done.wav","None","731.817699736","147","315163.747599","307463.823068","308230.258998","308997.049551","309764.194108","310530.701767","311280.194644","312046.671076","315929.774801","316696.981502","317463.712693","303647.129333","304413.804564","305180.651387","305930.345845","306696.987685","316706.100284","Mapping"
"Mixed","Both","done","39","m150reek.wav","space","594.649184612","147","315163.747599","307463.823068","308230.258998","308997.049551","309764.194108","310530.701767","311280.194644","312046.671076","315929.774801","316696.981502","317463.712693","318230.065764","304413.804564","305180.651387","305930.345845","306696.987685","317473.637493","Mapping"
"Mixed","Both","done","39","m150priest.wav","None","725.550430478","147","315163.747599","307463.823068","308230.258998","308997.049551","309764.194108","310530.701767","311280.194644","312046.671076","315929.774801","316696.981502","317463.712693","318230.065764","318997.262572","305180.651387","305930.345845","306696.987685","318239.140644","Mapping"
"Mixed","Both","done","39","m150done.wav","None","721.301759244","147","315163.747599","307463.823068","308230.258998","308997.049551","309764.194108","310530.701767","311280.194644","312046.671076","315929.774801","316696.981502","317463.712693","318230.065764","318997.262572","319763.501558","305930.345845","306696.987685","319007.25168","Mapping"
"Mixed","Both","done","39","m160knife.wav","space","543.968429556","147","315163.747599","307463.823068","308230.258998","308997.049551","309764.194108","310530.701767","311280.194644","312046.671076","315929.774801","316696.981502","317463.712693","318230.065764","318997.262572","319763.501558","320530.523991","306696.987685","319772.317041","Mapping"
"Mixed","Both","done","39","m150ball.wav","None","719.302639132","147","315163.747599","307463.823068","308230.258998","308997.049551","309764.194108","310530.701767","311280.194644","312046.671076","315929.774801","316696.981502","317463.712693","318230.065764","318997.262572","319763.501558","320530.523991","321279.854861","320540.472597","Mapping"
"Mixed","Both","done","39","m160done.wav","None","734.647879959","147","315163.747599","322046.54215","308230.258998","308997.049551","309764.194108","310530.701767","311280.194644","312046.671076","315929.774801","316696.981502","317463.712693","318230.065764","318997.262572","319763.501558","320530.523991","321279.854861","321289.150182","Mapping"
"Mixed","Both","done","39","m150romp.wav","space","580.70975868","147","315163.747599","322046.54215","322813.313225","308997.049551","309764.194108","310530.701767","311280.194644","312046.671076","315929.774801","316696.981502","317463.712693","318230.065764","318997.262572","319763.501558","320530.523991","321279.854861","322055.533862","Mapping"
"Mixed","Both","done","39","m150cad.wav","None","728.358659311","147","315163.747599","322046.54215","322813.313225","323580.024011","309764.194108","310530.701767","311280.194644","312046.671076","315929.774801","316696.981502","317463.712693","318230.065764","318997.262572","319763.501558","320530.523991","321279.854861","322822.745819","Mapping"
"Mixed","Both","done","39","m160greet.wav","None","725.636071642","147","315163.747599","322046.54215","322813.313225","323580.024011","324346.733869","310530.701767","311280.194644","312046.671076","315929.774801","316696.981502","317463.712693","318230.065764","318997.262572","319763.501558","320530.523991","321279.854861","323589.325515","Mapping"
"Mixed","Both","done","39","m160tile.wav","None","723.052921589","147","315163.747599","322046.54215","322813.313225","323580.024011","324346.733869","325113.838542","311280.194644","312046.671076","315929.774801","316696.981502","317463.712693","318230.065764","318997.262572","319763.501558","320530.523991","321279.854861","324355.870583","Mapping"
"Mixed","Both","done","39","m160ball.wav","None","719.102294301","147","315163.747599","322046.54215","322813.313225","323580.024011","324346.733869","325113.838542","325863.205586","312046.671076","315929.774801","316696.981502","317463.712693","318230.065764","318997.262572","319763.501558","320530.523991","321279.854861","325123.725314","Mapping"
"Mixed","Both","done","39","m160depth.wav","None","734.212562791","147","315163.747599","322046.54215","322813.313225","323580.024011","324346.733869","325113.838542","325863.205586","326629.969549","315929.774801","316696.981502","317463.712693","318230.065764","318997.262572","319763.501558","320530.523991","321279.854861","325872.569853","Mapping"
"Mixed","Both","cave","14","m150tile.wav","None","731.570978765","147","329763.809805","322046.54215","322813.313225","323580.024011","324346.733869","325113.838542","325863.205586","326629.969549","315929.774801","316696.981502","317463.712693","318230.065764","318997.262572","319763.501558","320530.523991","321279.854861","326639.161606","Mapping"
"Mixed","Both","cave","14","m160cave.wav","None","719.568838133","147","329763.809805","322046.54215","322813.313225","323580.024011","324346.733869","325113.838542","325863.205586","326629.969549","330512.987633","316696.981502","317463.712693","318230.065764","318997.262572","319763.501558","320530.523991","321279.854861","329773.387093","Mapping"
"Mixed","Both","cave","14","m150priest.wav","space","393.847990897","147","329763.809805","322046.54215","322813.313225","323580.024011","324346.733869","325113.838542","325863.205586","326629.969549","330512.987633","331279.952251","317463.712693","318230.065764","318997.262572","319763.501558","320530.523991","321279.854861","330522.219264","Mapping"
"Mixed","Both","cave","14","m150jolt.wav","None","730.551631656","147","329763.809805","322046.54215","322813.313225","323580.024011","324346.733869","325113.838542","325863.205586","326629.969549","330512.987633","331279.952251","332046.666438","318230.065764","318997.262572","319763.501558","320530.523991","321279.854861","331289.391029","Mapping"
"Mixed","Both","cave","14","m150cave.wav","None","728.098025545","147","329763.809805","322046.54215","322813.313225","323580.024011","324346.733869","325113.838542","325863.205586","326629.969549","330512.987633","331279.952251","332046.666438","332813.133594","318997.262572","319763.501558","320530.523991","321279.854861","332055.93517","Mapping"
"Mixed","Both","cave","14","m150ball.wav","space","597.566551995","147","329763.809805","322046.54215","322813.313225","323580.024011","324346.733869","325113.838542","325863.205586","326629.969549","330512.987633","331279.952251","332046.666438","332813.133594","333580.142424","319763.501558","320530.523991","321279.854861","332822.521049","Mapping"
"Mixed","Both","cave","14","m160done.wav","None","721.657000366","147","329763.809805","322046.54215","322813.313225","323580.024011","324346.733869","325113.838542","325863.205586","326629.969549","330512.987633","331279.952251","332046.666438","332813.133594","333580.142424","334330.140801","320530.523991","321279.854861","333589.279139","Mapping"
"Mixed","Both","cave","14","m160dime.wav","None","735.445549246","147","329763.809805","322046.54215","322813.313225","323580.024011","324346.733869","325113.838542","325863.205586","326629.969549","330512.987633","331279.952251","332046.666438","332813.133594","333580.142424","334330.140801","335096.628981","321279.854861","334339.57556","Mapping"
"Mixed","Both","cave","14","m160done.wav","None","732.687097508","147","329763.809805","322046.54215","322813.313225","323580.024011","324346.733869","325113.838542","325863.205586","326629.969549","330512.987633","331279.952251","332046.666438","332813.133594","333580.142424","334330.140801","335096.628981","335863.170958","335106.279543","Mapping"
"Mixed","Both","cave","14","m160cave.wav","None","730.513294111","147","329763.809805","336629.640897","322813.313225","323580.024011","324346.733869","325113.838542","325863.205586","326629.969549","330512.987633","331279.952251","332046.666438","332813.133594","333580.142424","334330.140801","335096.628981","335863.170958","335872.478337","Mapping"
"Mixed","Both","cave","14","m150priest.wav","space","477.211236721","147","329763.809805","336629.640897","337396.978998","323580.024011","324346.733869","325113.838542","325863.205586","326629.969549","330512.987633","331279.952251","332046.666438","332813.133594","333580.142424","334330.140801","335096.628981","335863.170958","336638.789979","Mapping"
"Mixed","Both","cave","14","m150jolt.wav","None","722.80558222","147","329763.809805","336629.640897","337396.978998","338163.448627","324346.733869","325113.838542","325863.205586","326629.969549","330512.987633","331279.952251","332046.666438","332813.133594","333580.142424","334330.140801","335096.628981","335863.170958","337407.092084","Mapping"
"Mixed","Both","cave","14","m160tile.wav","None","720.378255937","147","329763.809805","336629.640897","337396.978998","338163.448627","338913.009523","325113.838542","325863.205586","326629.969549","330512.987633","331279.952251","332046.666438","332813.133594","333580.142424","334330.140801","335096.628981","335863.170958","338173.62695","Mapping"
"Mixed","Both","cave","14","m160jaw.wav","None","735.577875865","147","329763.809805","336629.640897","337396.978998","338163.448627","338913.009523","339679.866857","325863.205586","326629.969549","330512.987633","331279.952251","332046.666438","332813.133594","333580.142424","334330.140801","335096.628981","335863.170958","338922.443972","Mapping"
"Mixed","Both","cave","14","m150cave.wav","None","733.232789906","147","329763.809805","336629.640897","337396.978998","338163.448627","338913.009523","339679.866857","340446.554764","326629.969549","330512.987633","331279.952251","332046.666438","332813.133594","333580.142424","334330.140801","335096.628981","335863.170958","339688.87341","Mapping"
"Mixed","Both","cave","14","m160romp.wav","space","547.840835876","147","329763.809805","336629.640897","337396.978998","338163.448627","338913.009523","339679.866857","340446.554764","341213.131368","330512.987633","331279.952251","332046.666438","332813.133594","333580.142424","334330.140801","335096.628981","335863.170958","340456.133907","Mapping"
"Mixed","Both","tile","30","m150lash.wav","None","726.561120828","147","344330.138637","336629.640897","337396.978998","338163.448627","338913.009523","339679.866857","340446.554764","341213.131368","330512.987633","331279.952251","332046.666438","332813.133594","333580.142424","334330.140801","335096.628981","335863.170958","341222.371347","Mapping"
"Mixed","Both","tile","30","m160tile.wav","None","723.845953355","147","344330.138637","336629.640897","337396.978998","338163.448627","338913.009523","339679.866857","340446.554764","341213.131368","345096.286417","331279.952251","332046.666438","332813.133594","333580.142424","334330.140801","335096.628981","335863.170958","344339.606168","Mapping"
"Mixed","Both","tile","30","m150bluff.wav","space","514.326975797","147","344330.138637","336629.640897","337396.978998","338163.448627","338913.009523","339679.866857","340446.554764","341213.131368","345096.286417","345846.273663","332046.666438","332813.133594","333580.142424","334330.140801","335096.628981","335863.170958","345105.545873","Mapping"
"Mixed","Both","tile","30","m150jaw.wav","None","735.764616984","147","344330.138637","336629.640897","337396.978998","338163.448627","338913.009523","339679.866857","340446.554764","341213.131368","345096.286417","345846.273663","346613.034844","332813.133594","333580.142424","334330.140801","335096.628981","335863.170958","345855.677195","Mapping"
"Mixed","Both","tile","30","m160park.wav","None","733.936470235","147","344330.138637","336629.640897","337396.978998","338163.448627","338913.009523","339679.866857","340446.554764","341213.131368","345096.286417","345846.273663","346613.034844","347379.654733","333580.142424","334330.140801","335096.628981","335863.170958","346622.15981","Mapping"
"Mixed","Both","tile","30","m160ball.wav","None","732.019590563","147","344330.138637","336629.640897","337396.978998","338163.448627","338913.009523","339679.866857","340446.554764","341213.131368","345096.286417","345846.273663","346613.034844","347379.654733","348146.122199","334330.140801","335096.628981","335863.170958","347388.761148","Mapping"
"Mixed","Both","tile","30","m160cling.wav","None","729.736339417","147","344330.138637","336629.640897","337396.978998","338163.448627","338913.009523","339679.866857","340446.554764","341213.131368","345096.286417","345846.273663","346613.034844","347379.654733","348146.122199","348913.134429","335096.628981","335863.170958","348155.341772","Mapping"
"Mixed","Both","tile","30","m150depth.wav","None","727.195236948","147","344330.138637","336629.640897","337396.978998","338163.448627","338913.009523","339679.866857","340446.554764","341213.131368","345096.286417","345846.273663","346613.034844","347379.654733","348146.122199","348913.134429","349679.439269","335863.170958","348922.132634","Mapping"
"Mixed","Both","tile","30","m150tile.wav","None","725.30030855","147","344330.138637","336629.640897","337396.978998","338163.448627","338913.009523","339679.866857","340446.554764","341213.131368","345096.286417","345846.273663","346613.034844","347379.654733","348146.122199","348913.134429","349679.439269","350446.8222","349688.361417","Mapping"
"Mixed","Both","tile","30","m150park.wav","space","410.953050945","147","344330.138637","351196.16791","337396.978998","338163.448627","338913.009523","339679.866857","340446.554764","341213.131368","345096.286417","345846.273663","346613.034844","347379.654733","348146.122199","348913.134429","349679.439269","350446.8222","350456.82182","Mapping"
"Mixed","Both","tile","30","m160knife.wav","None","735.11102295","147","344330.138637","351196.16791","351962.870657","338163.448627","338913.009523","339679.866857","340446.554764","341213.131368","345096.286417","345846.273663","346613.034844","347379.654733","348146.122199","348913.134429","349679.439269","350446.8222","351205.801468","Mapping"
"Mixed","Both","tile","30","m160tile.wav","None","732.795926859","147","344330.138637","351196.16791","351962.870657","352729.57155","338913.009523","339679.866857","340446.554764","341213.131368","345096.286417","345846.273663","346613.034844","347379.654733","348146.122199","348913.134429","349679.439269","350446.8222","351972.244199","Mapping"
"Mixed","Both","tile","30","m160ball.wav","space","697.134852177","147","344330.138637","351196.16791","351962.870657","352729.57155","353496.326547","339679.866857","340446.554764","341213.131368","345096.286417","345846.273663","346613.034844","347379.654733","348146.122199","348913.134429","349679.439269","350446.8222","352738.644884","Mapping"
"Mixed","Both","tile","30","m160lash.wav","None","726.318419096","147","344330.138637","351196.16791","351962.870657","352729.57155","353496.326547","354263.648261","340446.554764","341213.131368","345096.286417","345846.273663","346613.034844","347379.654733","348146.122199","348913.134429","349679.439269","350446.8222","353505.974327","Mapping"
"Mixed","Both","tile","30","m150tile.wav","None","723.047974869","147","344330.138637","351196.16791","351962.870657","352729.57155","353496.326547","354263.648261","355029.721839","341213.131368","345096.286417","345846.273663","346613.034844","347379.654733","348146.122199","348913.134429","349679.439269","350446.8222","354273.510917","Mapping"
"Mixed","Both","tile","30","m150park.wav","space","597.092278884","147","344330.138637","351196.16791","351962.870657","352729.57155","353496.326547","354263.648261","355029.721839","355779.216571","345096.286417","345846.273663","346613.034844","347379.654733","348146.122199","348913.134429","349679.439269","350446.8222","355038.617398","Mapping"
"Mixed","Both","cave","22","m160romp.wav","None","735.283542075","147","358912.748271","351196.16791","351962.870657","352729.57155","353496.326547","354263.648261","355029.721839","355779.216571","345096.286417","345846.273663","346613.034844","347379.654733","348146.122199","348913.134429","349679.439269","350446.8222","355788.619485","Mapping"
"Mixed","Both","cave","22","m160done.wav","None","721.013918053","147","358912.748271","351196.16791","351962.870657","352729.57155","353496.326547","354263.648261","355029.721839","355779.216571","359662.954413","345846.273663","346613.034844","347379.654733","348146.122199","348913.134429","349679.439269","350446.8222","358921.569009","Mapping"
"Mixed","Both","cave","22","m160cling.wav","None","734.588209423","147","358912.748271","351196.16791","351962.870657","352729.57155","353496.326547","354263.648261","355029.721839","355779.216571","359662.954413","360429.490206","346613.034844","347379.654733","348146.122199","348913.134429","349679.439269","350446.8222","359672.210778","Mapping"
"Mixed","Both","cave","22","m150ball.wav","None","731.604987988","147","358912.748271","351196.16791","351962.870657","352729.57155","353496.326547","354263.648261","355029.721839","355779.216571","359662.954413","360429.490206","361195.933247","347379.654733","348146.122199","348913.134429","349679.439269","350446.8222","360439.365847","Mapping"
"Mixed","Both","cave","22","m160park.wav","None","730.306765647","147","358912.748271","351196.16791","351962.870657","352729.57155","353496.326547","354263.648261","355029.721839","355779.216571","359662.954413","360429.490206","361195.933247","361962.921671","348146.122199","348913.134429","349679.439269","350446.8222","361204.814893","Mapping"
"Mixed","Both","cave","22","m150done.wav","None","727.155353525","147","358912.748271","351196.16791","351962.870657","352729.57155","353496.326547","354263.648261","355029.721839","355779.216571","359662.954413","360429.490206","361195.933247","361962.921671","362729.464884","348913.134429","349679.439269","350446.8222","361972.115892","Mapping"
"Mixed","Both","cave","22","m150cave.wav","None","724.618888693","147","358912.748271","351196.16791","351962.870657","352729.57155","353496.326547","354263.648261","355029.721839","355779.216571","359662.954413","360429.490206","361195.933247","361962.921671","362729.464884","363496.117546","349679.439269","350446.8222","362738.845847","Mapping"
"Mixed","Both","cave","22","m150bluff.wav","space","642.288902891","147","358912.748271","351196.16791","351962.870657","352729.57155","353496.326547","354263.648261","355029.721839","355779.216571","359662.954413","360429.490206","361195.933247","361962.921671","362729.464884","363496.117546","364246.11685","350446.8222","363505.303419","Mapping"
"Mixed","Both","cave","22","m150cave.wav","None","734.97900553","147","358912.748271","351196.16791","351962.870657","352729.57155","353496.326547","354263.648261","355029.721839","355779.216571","359662.954413","360429.490206","361195.933247","361962.921671","362729.464884","363496.117546","364246.11685","365012.620798","364255.574178","Mapping"
"Mixed","Both","cave","22","m160cad.wav","None","733.15240466","147","358912.748271","365779.324473","351962.870657","352729.57155","353496.326547","354263.648261","355029.721839","355779.216571","359662.954413","360429.490206","361195.933247","361962.921671","362729.464884","363496.117546","364246.11685","365012.620798","365021.601998","Mapping"
"Mixed","Both","cave","22","m160cave.wav","space","0.0272073084489","147","358912.748271","365779.324473","366546.186136","352729.57155","353496.326547","354263.648261","355029.721839","355779.216571","359662.954413","360429.490206","361195.933247","361962.921671","362729.464884","363496.117546","364246.11685","365012.620798","365788.434908","Mapping"
"Mixed","Both","cave","22","m150done.wav","space","664.131747675","147","358912.748271","365779.324473","366546.186136","367313.180743","353496.326547","354263.648261","355029.721839","355779.216571","359662.954413","360429.490206","361195.933247","361962.921671","362729.464884","363496.117546","364246.11685","365012.620798","366555.441883","Mapping"
"Mixed","Both","cave","22","m160ball.wav","None","722.097882652","147","358912.748271","365779.324473","366546.186136","367313.180743","368079.495168","354263.648261","355029.721839","355779.216571","359662.954413","360429.490206","361195.933247","361962.921671","362729.464884","363496.117546","364246.11685","365012.620798","367323.043399","Mapping"
"Mixed","Both","cave","22","m150romp.wav","None","720.989802503","147","358912.748271","365779.324473","366546.186136","367313.180743","368079.495168","368829.112952","355029.721839","355779.216571","359662.954413","360429.490206","361195.933247","361962.921671","362729.464884","363496.117546","364246.11685","365012.620798","368088.47575","Mapping"
"Mixed","Both","cave","22","m160cave.wav","None","735.512330895","147","358912.748271","365779.324473","366546.186136","367313.180743","368079.495168","368829.112952","369596.097975","355779.216571","359662.954413","360429.490206","361195.933247","361962.921671","362729.464884","363496.117546","364246.11685","365012.620798","368838.267598","Mapping"
"Mixed","Both","cave","22","m150jolt.wav","space","494.240858359","147","358912.748271","365779.324473","366546.186136","367313.180743","368079.495168","368829.112952","369596.097975","370362.550291","359662.954413","360429.490206","361195.933247","361962.921671","362729.464884","363496.117546","364246.11685","365012.620798","369605.304563","Mapping"
"Mixed","Both","cave","21","m150jaw.wav","None","729.133449728","147","373496.372305","365779.324473","366546.186136","367313.180743","368079.495168","368829.112952","369596.097975","370362.550291","359662.954413","360429.490206","361195.933247","361962.921671","362729.464884","363496.117546","364246.11685","365012.620798","370371.623316","Mapping"
"Mixed","Both","cave","21","m160bluff.wav","None","719.502674765","147","373496.372305","365779.324473","366546.186136","367313.180743","368079.495168","368829.112952","369596.097975","370362.550291","374245.910631","360429.490206","361195.933247","361962.921671","362729.464884","363496.117546","364246.11685","365012.620798","373506.73304","Mapping"
"Mixed","Both","cave","21","m150bluff.wav","None","734.731666278","147","373496.372305","365779.324473","366546.186136","367313.180743","368079.495168","368829.112952","369596.097975","370362.550291","374245.910631","375012.434366","361195.933247","361962.921671","362729.464884","363496.117546","364246.11685","365012.620798","374255.705886","Mapping"
"Mixed","Both","cave","21","m150cave.wav","None","733.326778864","147","373496.372305","365779.324473","366546.186136","367313.180743","368079.495168","368829.112952","369596.097975","370362.550291","374245.910631","375012.434366","375779.27686","361962.921671","362729.464884","363496.117546","364246.11685","365012.620798","375021.337964","Mapping"
"Mixed","Both","cave","21","m150gnash.wav","space","591.139748925","147","373496.372305","365779.324473","366546.186136","367313.180743","368079.495168","368829.112952","369596.097975","370362.550291","374245.910631","375012.434366","375779.27686","376546.023819","362729.464884","363496.117546","364246.11685","365012.620798","375788.305364","Mapping"
"Mixed","Both","cave","21","m160romp.wav","None","726.078499923","147","373496.372305","365779.324473","366546.186136","367313.180743","368079.495168","368829.112952","369596.097975","370362.550291","374245.910631","375012.434366","375779.27686","376546.023819","377312.989056","363496.117546","364246.11685","365012.620798","376555.807017","Mapping"
"Mixed","Both","cave","21","m150ball.wav","None","723.159586661","147","373496.372305","365779.324473","366546.186136","367313.180743","368079.495168","368829.112952","369596.097975","370362.550291","374245.910631","375012.434366","375779.27686","376546.023819","377312.989056","378079.533506","364246.11685","365012.620798","377322.848619","Mapping"
"Mixed","Both","cave","21","m150cave.wav","None","720.589731121","147","373496.372305","365779.324473","366546.186136","367313.180743","368079.495168","368829.112952","369596.097975","370362.550291","374245.910631","375012.434366","375779.27686","376546.023819","377312.989056","378079.533506","378829.334629","365012.620798","378089.679365","Mapping"
"Mixed","Both","cave","21","m160lash.wav","space","548.343862174","147","373496.372305","365779.324473","366546.186136","367313.180743","368079.495168","368829.112952","369596.097975","370362.550291","374245.910631","375012.434366","375779.27686","376546.023819","377312.989056","378079.533506","378829.334629","379595.769632","378839.000959","Mapping"
"Mixed","Both","cave","21","m160cave.wav","None","734.737231396","147","373496.372305","380362.365714","366546.186136","367313.180743","368079.495168","368829.112952","369596.097975","370362.550291","374245.910631","375012.434366","375779.27686","376546.023819","377312.989056","378079.533506","378829.334629","379595.769632","379604.66179","Mapping"
"Mixed","Both","cave","21","m160reek.wav","space","728.220149293","147","373496.372305","380362.365714","381129.187184","367313.180743","368079.495168","368829.112952","369596.097975","370362.550291","374245.910631","375012.434366","375779.27686","376546.023819","377312.989056","378079.533506","378829.334629","379595.769632","380371.141313","Mapping"
"Mixed","Both","cave","21","m160cave.wav","None","728.285694262","147","373496.372305","380362.365714","381129.187184","381896.026896","368079.495168","368829.112952","369596.097975","370362.550291","374245.910631","375012.434366","375779.27686","376546.023819","377312.989056","378079.533506","378829.334629","379595.769632","381138.385734","Mapping"
"Mixed","Both","cave","21","m160cad.wav","space","697.660448262","147","373496.372305","380362.365714","381129.187184","381896.026896","382662.546612","368829.112952","369596.097975","370362.550291","374245.910631","375012.434366","375779.27686","376546.023819","377312.989056","378079.533506","378829.334629","379595.769632","381905.644685","Mapping"
"Mixed","Both","cave","21","m150park.wav","None","722.776829032","147","373496.372305","380362.365714","381129.187184","381896.026896","382662.546612","383412.879206","369596.097975","370362.550291","374245.910631","375012.434366","375779.27686","376546.023819","377312.989056","378079.533506","378829.334629","379595.769632","382671.343853","Mapping"
"Mixed","Both","cave","21","m150bluff.wav","None","735.751322587","147","373496.372305","380362.365714","381129.187184","381896.026896","382662.546612","383412.879206","384178.971643","370362.550291","374245.910631","375012.434366","375779.27686","376546.023819","377312.989056","378079.533506","378829.334629","379595.769632","383422.513073","Mapping"
"Mixed","Both","cave","21","m160ball.wav","None","734.544306644","147","373496.372305","380362.365714","381129.187184","381896.026896","382662.546612","383412.879206","384178.971643","384945.606372","374245.910631","375012.434366","375779.27686","376546.023819","377312.989056","378079.533506","378829.334629","379595.769632","384188.007258","Mapping"
"Mixed","Both","tile","28","m160reek.wav","None","732.051744591","147","388079.456521","380362.365714","381129.187184","381896.026896","382662.546612","383412.879206","384178.971643","384945.606372","374245.910631","375012.434366","375779.27686","376546.023819","377312.989056","378079.533506","378829.334629","379595.769632","384955.058136","Mapping"
"Mixed","Both","tile","28","m150ball.wav","None","719.76114437","147","388079.456521","380362.365714","381129.187184","381896.026896","382662.546612","383412.879206","384178.971643","384945.606372","388828.640533","375012.434366","375779.27686","376546.023819","377312.989056","378079.533506","378829.334629","379595.769632","388089.43048","Mapping"
"Mixed","Both","tile","28","m160tile.wav","None","736.165306764","147","388079.456521","380362.365714","381129.187184","381896.026896","382662.546612","383412.879206","384178.971643","384945.606372","388828.640533","389595.921746","375779.27686","376546.023819","377312.989056","378079.533506","378829.334629","379595.769632","388837.529909","Mapping"
"Mixed","Both","tile","28","m150cad.wav","space","526.197717409","147","388079.456521","380362.365714","381129.187184","381896.026896","382662.546612","383412.879206","384178.971643","384945.606372","388828.640533","389595.921746","390362.468978","376546.023819","377312.989056","378079.533506","378829.334629","379595.769632","389605.013321","Mapping"
"Mixed","Both","tile","28","m150knife.wav","None","729.379243217","147","388079.456521","380362.365714","381129.187184","381896.026896","382662.546612","383412.879206","384178.971643","384945.606372","388828.640533","389595.921746","390362.468978","391129.054858","377312.989056","378079.533506","378829.334629","379595.769632","390372.224969","Mapping"
"Mixed","Both","tile","28","m150tile.wav","None","727.465146105","147","388079.456521","380362.365714","381129.187184","381896.026896","382662.546612","383412.879206","384178.971643","384945.606372","388828.640533","389595.921746","390362.468978","391129.054858","391895.777083","378079.533506","378829.334629","379595.769632","391138.505075","Mapping"
"Mixed","Both","tile","28","m160depth.wav","space","569.962555892","147","388079.456521","380362.365714","381129.187184","381896.026896","382662.546612","383412.879206","384178.971643","384945.606372","388828.640533","389595.921746","390362.468978","391129.054858","391895.777083","392662.779111","378829.334629","379595.769632","391905.247087","Mapping"
"Mixed","Both","tile","28","m150tile.wav","None","721.409351914","147","388079.456521","380362.365714","381129.187184","381896.026896","382662.546612","383412.879206","384178.971643","384945.606372","388828.640533","389595.921746","390362.468978","391129.054858","391895.777083","392662.779111","393412.772232","379595.769632","392672.22871","Mapping"
"Mixed","Both","tile","28","m160cave.wav","space","637.064477894","147","388079.456521","380362.365714","381129.187184","381896.026896","382662.546612","383412.879206","384178.971643","384945.606372","388828.640533","389595.921746","390362.468978","391129.054858","391895.777083","392662.779111","393412.772232","394178.990194","393422.089504","Mapping"
"Mixed","Both","tile","28","m160cling.wav","None","732.820042409","147","388079.456521","394945.735916","381129.187184","381896.026896","382662.546612","383412.879206","384178.971643","384945.606372","388828.640533","389595.921746","390362.468978","391129.054858","391895.777083","392662.779111","393412.772232","394178.990194","394188.363427","Mapping"
"Mixed","Both","tile","28","m160tile.wav","None","730.407556519","147","388079.456521","394945.735916","395712.412693","381896.026896","382662.546612","383412.879206","384178.971643","384945.606372","388828.640533","389595.921746","390362.468978","391129.054858","391895.777083","392662.779111","393412.772232","394178.990194","394955.409976","Mapping"
"Mixed","Both","tile","28","m160reek.wav","space","721.393584041","147","388079.456521","394945.735916","395712.412693","396479.163981","382662.546612","383412.879206","384178.971643","384945.606372","388828.640533","389595.921746","390362.468978","391129.054858","391895.777083","392662.779111","393412.772232","394178.990194","395721.719763","Mapping"
"Mixed","Both","tile","28","m160greet.wav","None","724.515006295","147","388079.456521","394945.735916","395712.412693","396479.163981","397246.192598","383412.879206","384178.971643","384945.606372","388828.640533","389595.921746","390362.468978","391129.054858","391895.777083","392662.779111","393412.772232","394178.990194","396488.8232","Mapping"
"Mixed","Both","tile","28","m150cad.wav","None","722.120761639","147","388079.456521","394945.735916","395712.412693","396479.163981","397246.192598","398012.722826","384178.971643","384945.606372","388828.640533","389595.921746","390362.468978","391129.054858","391895.777083","392662.779111","393412.772232","394178.990194","397255.973013","Mapping"
"Mixed","Both","tile","28","m150gnash.wav","None","720.753902686","147","388079.456521","394945.735916","395712.412693","396479.163981","397246.192598","398012.722826","398762.347102","384945.606372","388828.640533","389595.921746","390362.468978","391129.054858","391895.777083","392662.779111","393412.772232","394178.990194","398022.519936","Mapping"
"Mixed","Both","tile","28","m150cling.wav","None","736.329787411","147","388079.456521","394945.735916","395712.412693","396479.163981","397246.192598","398012.722826","398762.347102","399528.641739","388828.640533","389595.921746","390362.468978","391129.054858","391895.777083","392662.779111","393412.772232","394178.990194","398771.532666","Mapping"
"Mixed","Both","tile","32","m150priest.wav","None","734.983643168","147","402662.506419","394945.735916","395712.412693","396479.163981","397246.192598","398012.722826","398762.347102","399528.641739","388828.640533","389595.921746","390362.468978","391129.054858","391895.777083","392662.779111","393412.772232","394178.990194","399537.982509","Mapping"
"Mixed","Both","tile","32","m150tile.wav","None","719.947885606","147","402662.506419","394945.735916","395712.412693","396479.163981","397246.192598","398012.722826","398762.347102","399528.641739","403411.985383","389595.921746","390362.468978","391129.054858","391895.777083","392662.779111","393412.772232","394178.990194","402672.593844","Mapping"
"Mixed","Both","tile","32","m150bluff.wav","space","573.240420315","147","402662.506419","394945.735916","395712.412693","396479.163981","397246.192598","398012.722826","398762.347102","399528.641739","403411.985383","404178.877964","390362.468978","391129.054858","391895.777083","392662.779111","393412.772232","394178.990194","403421.763635","Mapping"
"Mixed","Both","tile","32","m160gnash.wav","None","731.676407158","147","402662.506419","394945.735916","395712.412693","396479.163981","397246.192598","398012.722826","398762.347102","399528.641739","403411.985383","404178.877964","404945.260097","391129.054858","391895.777083","392662.779111","393412.772232","394178.990194","404188.420933","Mapping"
"Mixed","Both","tile","32","m150tile.wav","None","730.051697115","147","402662.506419","394945.735916","395712.412693","396479.163981","397246.192598","398012.722826","398762.347102","399528.641739","403411.985383","404178.877964","404945.260097","405712.128871","391895.777083","392662.779111","393412.772232","394178.990194","404954.475961","Mapping"
"Mixed","Both","tile","32","m160gnash.wav","space","529.709008406","147","402662.506419","394945.735916","395712.412693","396479.163981","397246.192598","398012.722826","398762.347102","399528.641739","403411.985383","404178.877964","404945.260097","405712.128871","406478.775349","392662.779111","393412.772232","394178.990194","405721.240852","Mapping"
"Mixed","Both","tile","32","m160jolt.wav","None","724.647332798","147","402662.506419","394945.735916","395712.412693","396479.163981","397246.192598","398012.722826","398762.347102","399528.641739","403411.985383","404178.877964","404945.260097","405712.128871","406478.775349","407245.683697","393412.772232","394178.990194","406488.143326","Mapping"
"Mixed","Both","tile","32","m150bluff.wav","None","722.590397112","147","402662.506419","394945.735916","395712.412693","396479.163981","397246.192598","398012.722826","398762.347102","399528.641739","403411.985383","404178.877964","404945.260097","405712.128871","406478.775349","407245.683697","408012.696546","394178.990194","407254.798151","Mapping"
"Mixed","Both","tile","32","m160tile.wav","None","719.381478499","147","402662.506419","394945.735916","395712.412693","396479.163981","397246.192598","398012.722826","398762.347102","399528.641739","403411.985383","404178.877964","404945.260097","405712.128871","406478.775349","407245.683697","408012.696546","408762.055241","408022.726465","Mapping"
"Mixed","Both","tile","32","m150knife.wav","space","511.445781798","147","402662.506419","409528.578668","395712.412693","396479.163981","397246.192598","398012.722826","398762.347102","399528.641739","403411.985383","404178.877964","404945.260097","405712.128871","406478.775349","407245.683697","408012.696546","408762.055241","408771.485053","Mapping"
"Mixed","Both","tile","32","m160greet.wav","None","732.118835323","147","402662.506419","409528.578668","410295.173822","396479.163981","397246.192598","398012.722826","398762.347102","399528.641739","403411.985383","404178.877964","404945.260097","405712.128871","406478.775349","407245.683697","408012.696546","408762.055241","409537.821738","Mapping"
"Mixed","Both","tile","32","m160cave.wav","None","730.005939258","147","402662.506419","409528.578668","410295.173822","411061.936549","397246.192598","398012.722826","398762.347102","399528.641739","403411.985383","404178.877964","404945.260097","405712.128871","406478.775349","407245.683697","408012.696546","408762.055241","410304.388758","Mapping"
"Mixed","Both","tile","32","m160tile.wav","None","727.988887113","147","402662.506419","409528.578668","410295.173822","411061.936549","411828.620437","398012.722826","398762.347102","399528.641739","403411.985383","404178.877964","404945.260097","405712.128871","406478.775349","407245.683697","408012.696546","408762.055241","411070.975565","Mapping"
"Mixed","Both","tile","32","m150depth.wav","space","469.072227133","147","402662.506419","409528.578668","410295.173822","411061.936549","411828.620437","412596.026246","398762.347102","399528.641739","403411.985383","404178.877964","404945.260097","405712.128871","406478.775349","407245.683697","408012.696546","408762.055241","411837.800745","Mapping"
"Mixed","Both","tile","32","m160depth.wav","None","720.762559562","147","402662.506419","409528.578668","410295.173822","411061.936549","411828.620437","412596.026246","413362.491857","399528.641739","403411.985383","404178.877964","404945.260097","405712.128871","406478.775349","407245.683697","408012.696546","408762.055241","412605.849946","Mapping"
"Mixed","Both","tile","32","m150priest.wav","None","719.041696168","147","402662.506419","409528.578668","410295.173822","411061.936549","411828.620437","412596.026246","413362.491857","414111.755018","403411.985383","404178.877964","404945.260097","405712.128871","406478.775349","407245.683697","408012.696546","408762.055241","413372.275364","Mapping"
"Mixed","Both","ball","7","m160tile.wav","None","734.833384515","147","417245.850342","409528.578668","410295.173822","411061.936549","411828.620437","412596.026246","413362.491857","414111.755018","403411.985383","404178.877964","404945.260097","405712.128871","406478.775349","407245.683697","408012.696546","408762.055241","414121.024986","Mapping"
"Mixed","Both","ball","7","m150cave.wav","None","717.741000466","147","417245.850342","409528.578668","410295.173822","411061.936549","411828.620437","412596.026246","413362.491857","414111.755018","417995.014876","404178.877964","404945.260097","405712.128871","406478.775349","407245.683697","408012.696546","408762.055241","417256.864671","Mapping"
"Mixed","Both","ball","7","m150priest.wav","None","735.386806191","147","417245.850342","409528.578668","410295.173822","411061.936549","411828.620437","412596.026246","413362.491857","414111.755018","417995.014876","418762.257441","404945.260097","405712.128871","406478.775349","407245.683697","408012.696546","408762.055241","418004.165813","Mapping"
"Mixed","Both","ball","7","m160ball.wav","None","732.366174809","147","417245.850342","409528.578668","410295.173822","411061.936549","411828.620437","412596.026246","413362.491857","414111.755018","417995.014876","418762.257441","419528.610513","405712.128871","406478.775349","407245.683697","408012.696546","408762.055241","418771.673649","Mapping"
"Mixed","Both","ball","7","m150priest.wav","space","384.677576134","147","417245.850342","409528.578668","410295.173822","411061.936549","411828.620437","412596.026246","413362.491857","414111.755018","417995.014876","418762.257441","419528.610513","420295.103331","406478.775349","407245.683697","408012.696546","408762.055241","419538.090101","Mapping"
"Mixed","Both","ball","7","m160knife.wav","None","727.298810263","147","417245.850342","409528.578668","410295.173822","411061.936549","411828.620437","412596.026246","413362.491857","414111.755018","417995.014876","418762.257441","419528.610513","420295.103331","421062.057127","407245.683697","408012.696546","408762.055241","420304.263852","Mapping"
"Mixed","Both","ball","7","m160park.wav","None","724.53386581","147","417245.850342","409528.578668","410295.173822","411061.936549","411828.620437","412596.026246","413362.491857","414111.755018","417995.014876","418762.257441","419528.610513","420295.103331","421062.057127","421828.818927","408012.696546","408762.055241","421071.524968","Mapping"
"Mixed","Both","ball","7","m160ball.wav","None","721.637831535","147","417245.850342","409528.578668","410295.173822","411061.936549","411828.620437","412596.026246","413362.491857","414111.755018","417995.014876","418762.257441","419528.610513","420295.103331","421062.057127","421828.818927","422595.262277","408762.055241","421839.153691","Mapping"
"Mixed","Both","ball","7","m150romp.wav","space","510.522587691","147","417245.850342","409528.578668","410295.173822","411061.936549","411828.620437","412596.026246","413362.491857","414111.755018","417995.014876","418762.257441","419528.610513","420295.103331","421062.057127","421828.818927","422595.262277","423345.312904","422604.179478","Mapping"
"Mixed","Both","ball","7","m160romp.wav","None","733.561442001","147","417245.850342","424111.61558","410295.173822","411061.936549","411828.620437","412596.026246","413362.491857","414111.755018","417995.014876","418762.257441","419528.610513","420295.103331","421062.057127","421828.818927","422595.262277","423345.312904","423354.787546","Mapping"
"Mixed","Both","ball","7","m150cave.wav","None","732.391527039","147","417245.850342","424111.61558","424878.510016","411061.936549","411828.620437","412596.026246","413362.491857","414111.755018","417995.014876","418762.257441","419528.610513","420295.103331","421062.057127","421828.818927","422595.262277","423345.312904","424120.592143","Mapping"
"Mixed","Both","ball","7","m160bluff.wav","None","730.043967604","147","417245.850342","424111.61558","424878.510016","425645.239043","411828.620437","412596.026246","413362.491857","414111.755018","417995.014876","418762.257441","419528.610513","420295.103331","421062.057127","421828.818927","422595.262277","423345.312904","424887.462462","Mapping"
"Mixed","Both","ball","7","m150ball.wav","None","727.529454278","147","417245.850342","424111.61558","424878.510016","425645.239043","426411.590877","412596.026246","413362.491857","414111.755018","417995.014876","418762.257441","419528.610513","420295.103331","421062.057127","421828.818927","422595.262277","423345.312904","425655.147765","Mapping"
"Mixed","Both","ball","7","m150park.wav","space","725.892995484","147","417245.850342","424111.61558","424878.510016","425645.239043","426411.590877","427178.950929","413362.491857","414111.755018","417995.014876","418762.257441","419528.610513","420295.103331","421062.057127","421828.818927","422595.262277","423345.312904","426420.758509","Mapping"
"Mixed","Both","ball","7","m150ball.wav","None","723.658284638","147","417245.850342","424111.61558","424878.510016","425645.239043","426411.590877","427178.950929","427945.236909","414111.755018","417995.014876","418762.257441","419528.610513","420295.103331","421062.057127","421828.818927","422595.262277","423345.312904","427187.793928","Mapping"
"Mixed","Both","ball","7","m160knife.wav","space","624.265595456","147","417245.850342","424111.61558","424878.510016","425645.239043","426411.590877","427178.950929","427945.236909","428695.131404","417995.014876","418762.257441","419528.610513","420295.103331","421062.057127","421828.818927","422595.262277","423345.312904","427954.37517","Mapping"
"Mixed","Both","cave","16","m150park.wav","None","734.43702329","147","431828.73545","424111.61558","424878.510016","425645.239043","426411.590877","427178.950929","427945.236909","428695.131404","417995.014876","418762.257441","419528.610513","420295.103331","421062.057127","421828.818927","422595.262277","423345.312904","428704.535554","Mapping"
"Mixed","Both","cave","16","m150cave.wav","None","719.740120578","147","431828.73545","424111.61558","424878.510016","425645.239043","426411.590877","427178.950929","427945.236909","428695.131404","432578.270684","418762.257441","419528.610513","420295.103331","421062.057127","421828.818927","422595.262277","423345.312904","431838.847609","Mapping"
"Mixed","Both","cave","16","m160jolt.wav","space","518.7806295","147","431828.73545","424111.61558","424878.510016","425645.239043","426411.590877","427178.950929","427945.236909","428695.131404","432578.270684","433345.243649","419528.610513","420295.103331","421062.057127","421828.818927","422595.262277","423345.312904","432587.815818","Mapping"
"Mixed","Both","cave","16","m160cad.wav","None","731.360431295","147","431828.73545","424111.61558","424878.510016","425645.239043","426411.590877","427178.950929","427945.236909","428695.131404","432578.270684","433345.243649","434111.725337","420295.103331","421062.057127","421828.818927","422595.262277","423345.312904","433354.768377","Mapping"
"Mixed","Both","cave","16","m150cave.wav","None","729.552380741","147","431828.73545","424111.61558","424878.510016","425645.239043","426411.590877","427178.950929","427945.236909","428695.131404","432578.270684","433345.243649","434111.725337","434878.374288","421062.057127","421828.818927","422595.262277","423345.312904","434121.297369","Mapping"
"Mixed","Both","cave","16","m160greet.wav","space","418.523489381","147","431828.73545","424111.61558","424878.510016","425645.239043","426411.590877","427178.950929","427945.236909","428695.131404","432578.270684","433345.243649","434111.725337","434878.374288","435645.527502","421828.818927","422595.262277","423345.312904","434888.016193","Mapping"
"Mixed","Both","cave","16","m160cad.wav","None","723.210600554","147","431828.73545","424111.61558","424878.510016","425645.239043","426411.590877","427178.950929","427945.236909","428695.131404","432578.270684","433345.243649","434111.725337","434878.374288","435645.527502","436412.306925","422595.262277","423345.312904","435655.783427","Mapping"
"Mixed","Both","cave","16","m160cave.wav","None","721.582489437","147","431828.73545","424111.61558","424878.510016","425645.239043","426411.590877","427178.950929","427945.236909","428695.131404","432578.270684","433345.243649","434111.725337","434878.374288","435645.527502","436412.306925","437178.709464","423345.312904","436422.100634","Mapping"
"Mixed","Both","cave","16","m150cling.wav","space","565.959368949","147","431828.73545","424111.61558","424878.510016","425645.239043","426411.590877","427178.950929","427945.236909","428695.131404","432578.270684","433345.243649","434111.725337","434878.374288","435645.527502","436412.306925","437178.709464","437928.127212","437188.529144","Mapping"
"Mixed","Both","cave","16","m150priest.wav","None","733.977281256","147","431828.73545","438694.811408","424878.510016","425645.239043","426411.590877","427178.950929","427945.236909","428695.131404","432578.270684","433345.243649","434111.725337","434878.374288","435645.527502","436412.306925","437178.709464","437928.127212","437937.294225","Mapping"
"Mixed","Both","cave","16","m160done.wav","None","731.887573143","147","431828.73545","438694.811408","439461.442427","425645.239043","426411.590877","427178.950929","427945.236909","428695.131404","432578.270684","433345.243649","434111.725337","434878.374288","435645.527502","436412.306925","437178.709464","437928.127212","438704.027272","Mapping"
"Mixed","Both","cave","16","m160cave.wav","None","730.657369248","147","431828.73545","438694.811408","439461.442427","440228.286776","426411.590877","427178.950929","427945.236909","428695.131404","432578.270684","433345.243649","434111.725337","434878.374288","435645.527502","436412.306925","437178.709464","437928.127212","439470.51607","Mapping"
"Mixed","Both","cave","16","m160gnash.wav","space","492.750020581","147","431828.73545","438694.811408","439461.442427","440228.286776","440995.049194","427178.950929","427945.236909","428695.131404","432578.270684","433345.243649","434111.725337","434878.374288","435645.527502","436412.306925","437178.709464","437928.127212","440237.714424","Mapping"
"Mixed","Both","cave","16","m150cling.wav","None","724.939811509","147","431828.73545","438694.811408","439461.442427","440228.286776","440995.049194","441762.208283","427945.236909","428695.131404","432578.270684","433345.243649","434111.725337","434878.374288","435645.527502","436412.306925","437178.709464","437928.127212","441004.322255","Mapping"
