"Condition","Talker","Target","Trial","current_stimulus","response_response","response_time_response","subject_nr","time_Audio1","time_Audio10","time_Audio11","time_Audio12","time_Audio13","time_Audio14","time_Audio15","time_Audio16","time_Audio2","time_Audio3","time_Audio4","time_Audio5","time_Audio6","time_Audio7","time_Audio8","time_Audio9","time_response","title"
"Mixed","Both","cave","14","m160jolt.wav","NA","NA","135","136710.214433","NA","NA","NA","NA","NA","NA","NA","NA","NA","NA","NA","NA","NA","NA","NA","NA","Mapping"
"Mixed","Both","cave","14","m160knife.wav","None","715.564984828","135","136710.214433","NA","NA","NA","NA","NA","NA","NA","137459.154046","NA","NA","NA","NA","NA","NA","NA","136724.839871","Mapping"
"Mixed","Both","cave","14","m160cling.wav","None","735.759560019","135","136710.214433","NA","NA","NA","NA","NA","NA","NA","137459.154046","138226.015812","NA","NA","NA","NA","NA","NA","137468.807052","Mapping"
"Mixed","Both","cave","14","m150cave.wav","None","733.264841139","135","136710.214433","NA","NA","NA","NA","NA","NA","NA","137459.154046","138226.015812","138992.852843","NA","NA","NA","NA","NA","138235.43601","Mapping"
"Mixed","Both","cave","14","m160jolt.wav","space","501.199437771","135","136710.214433","NA","NA","NA","NA","NA","NA","NA","137459.154046","138226.015812","138992.852843","139759.408527","NA","NA","NA","NA","139002.303031","Mapping"
"Mixed","Both","cave","14","m150gnash.wav","None","727.964994032","135","136710.214433","NA","NA","NA","NA","NA","NA","NA","137459.154046","138226.015812","138992.852843","139759.408527","140526.416531","NA","NA","NA","139768.762253","Mapping"
"Mixed","Both","cave","14","m160bluff.wav","None","725.012390409","135","136710.214433","NA","NA","NA","NA","NA","NA","NA","137459.154046","138226.015812","138992.852843","139759.408527","140526.416531","141293.189255","NA","NA","140536.280393","Mapping"
"Mixed","Both","cave","14","m150gnash.wav","None","721.960541327","135","136710.214433","NA","NA","NA","NA","NA","NA","NA","137459.154046","138226.015812","138992.852843","139759.408527","140526.416531","141293.189255","142059.671046","NA","141303.418868","Mapping"
"Mixed","Both","cave","14","m150gnash.wav","None","720.010586083","135","136710.214433","NA","NA","NA","NA","NA","NA","NA","137459.154046","138226.015812","138992.852843","139759.408527","140526.416531","141293.189255","142059.671046","142809.095752","142069.485131","Mapping"
"Mixed","Both","cave","14","m150greet.wav","None","735.464608762","135","136710.214433","143576.030791","NA","NA","NA","NA","NA","NA","137459.154046","138226.015812","138992.852843","139759.408527","140526.416531","141293.189255","142059.671046","142809.095752","142818.169367","Mapping"
"Mixed","Both","cave","14","m160cave.wav","None","732.268685009","135","136710.214433","143576.030791","144342.890392","NA","NA","NA","NA","NA","137459.154046","138226.015812","138992.852843","139759.408527","140526.416531","141293.189255","142059.671046","142809.095752","143585.42471","Mapping"
"Mixed","Both","cave","14","m150bluff.wav","space","414.893120527","135","136710.214433","143576.030791","144342.890392","145109.522751","NA","NA","NA","NA","137459.154046","138226.015812","138992.852843","139759.408527","140526.416531","141293.189255","142059.671046","142809.095752","144352.458066","Mapping"
"Mixed","Both","cave","14","m150cave.wav","None","726.910095196","135","136710.214433","143576.030791","144342.890392","145109.522751","145876.262393","NA","NA","NA","137459.154046","138226.015812","138992.852843","139759.408527","140526.416531","141293.189255","142059.671046","142809.095752","145118.908631","Mapping"
"Mixed","Both","cave","14","m150cad.wav","space","513.574404176","135","136710.214433","143576.030791","144342.890392","145109.522751","145876.262393","146643.424984","NA","NA","137459.154046","138226.015812","138992.852843","139759.408527","140526.416531","141293.189255","142059.671046","142809.095752","145885.744116","Mapping"
"Mixed","Both","cave","14","m160cave.wav","None","720.473109279","135","136710.214433","143576.030791","144342.890392","145109.522751","145876.262393","146643.424984","147409.806293","NA","137459.154046","138226.015812","138992.852843","139759.408527","140526.416531","141293.189255","142059.671046","142809.095752","146653.832063","Mapping"
"Mixed","Both","cave","14","m160bluff.wav","space","387.642285321","135","136710.214433","143576.030791","144342.890392","145109.522751","145876.262393","146643.424984","147409.806293","148159.380021","137459.154046","138226.015812","138992.852843","139759.408527","140526.416531","141293.189255","142059.671046","142809.095752","147419.64202","Mapping"
"Mixed","Both","ball","12","m160gnash.wav","None","734.212766401","135","151760.086543","143576.030791","144342.890392","145109.522751","145876.262393","146643.424984","147409.806293","148159.380021","137459.154046","138226.015812","138992.852843","139759.408527","140526.416531","141293.189255","142059.671046","142809.095752","148168.401386","Mapping"
"Mixed","Both","ball","12","m150jaw.wav","None","721.030239481","135","151760.086543","143576.030791","144342.890392","145109.522751","145876.262393","146643.424984","147409.806293","148159.380021","152526.465689","138226.015812","138992.852843","139759.408527","140526.416531","141293.189255","142059.671046","142809.095752","151770.096335","Mapping"
"Mixed","Both","ball","12","m150cling.wav","None","718.591172248","135","151760.086543","143576.030791","144342.890392","145109.522751","145876.262393","146643.424984","147409.806293","148159.380021","152526.465689","153275.611212","138992.852843","139759.408527","140526.416531","141293.189255","142059.671046","142809.095752","152537.134947","Mapping"
"Mixed","Both","ball","12","m150park.wav","None","735.607446637","135","151760.086543","143576.030791","144342.890392","145109.522751","145876.262393","146643.424984","147409.806293","148159.380021","152526.465689","153275.611212","154043.237254","139759.408527","140526.416531","141293.189255","142059.671046","142809.095752","153284.636287","Mapping"
"Mixed","Both","ball","12","m160depth.wav","None","731.433917303","135","151760.086543","143576.030791","144342.890392","145109.522751","145876.262393","146643.424984","147409.806293","148159.380021","152526.465689","153275.611212","154043.237254","154809.33938","140526.416531","141293.189255","142059.671046","142809.095752","154052.894897","Mapping"
"Mixed","Both","ball","12","m150romp.wav","None","729.706566781","135","151760.086543","143576.030791","144342.890392","145109.522751","145876.262393","146643.424984","147409.806293","148159.380021","152526.465689","153275.611212","154043.237254","154809.33938","155576.060162","141293.189255","142059.671046","142809.095752","154818.85604","Mapping"
"Mixed","Both","ball","12","m160depth.wav","None","727.546682581","135","151760.086543","143576.030791","144342.890392","145109.522751","145876.262393","146643.424984","147409.806293","148159.380021","152526.465689","153275.611212","154043.237254","154809.33938","155576.060162","156342.431888","142059.671046","142809.095752","155585.303205","Mapping"
"Mixed","Both","ball","12","m160ball.wav","None","725.621770136","135","151760.086543","143576.030791","144342.890392","145109.522751","145876.262393","146643.424984","147409.806293","148159.380021","152526.465689","153275.611212","154043.237254","154809.33938","155576.060162","156342.431888","157109.743501","142809.095752","156351.571667","Mapping"
"Mixed","Both","ball","12","m160greet.wav","space","359.43641467","135","151760.086543","143576.030791","144342.890392","145109.522751","145876.262393","146643.424984","147409.806293","148159.380021","152526.465689","153275.611212","154043.237254","154809.33938","155576.060162","156342.431888","157109.743501","157876.177988","157119.67538","Mapping"
"Mixed","Both","ball","12","m150depth.wav","None","720.173829235","135","151760.086543","158625.719562","144342.890392","145109.522751","145876.262393","146643.424984","147409.806293","148159.380021","152526.465689","153275.611212","154043.237254","154809.33938","155576.060162","156342.431888","157109.743501","157876.177988","157885.674243","Mapping"
"Mixed","Both","ball","12","m150ball.wav","None","735.198719427","135","151760.086543","158625.719562","159392.576689","145109.522751","145876.262393","146643.424984","147409.806293","148159.380021","152526.465689","153275.611212","154043.237254","154809.33938","155576.060162","156342.431888","157109.743501","157876.177988","158635.087819","Mapping"
"Mixed","Both","ball","12","m160gnash.wav","space","372.997678351","135","151760.086543","158625.719562","159392.576689","160159.153397","145876.262393","146643.424984","147409.806293","148159.380021","152526.465689","153275.611212","154043.237254","154809.33938","155576.060162","156342.431888","157109.743501","157876.177988","159402.108809","Mapping"
"Mixed","Both","ball","12","m160ball.wav","None","730.377472471","135","151760.086543","158625.719562","159392.576689","160159.153397","160925.56346","146643.424984","147409.806293","148159.380021","152526.465689","153275.611212","154043.237254","154809.33938","155576.060162","156342.431888","157109.743501","157876.177988","160168.132405","Mapping"
"Mixed","Both","ball","12","m160lash.wav","space","448.361427989","135","151760.086543","158625.719562","159392.576689","160159.153397","160925.56346","161692.602382","147409.806293","148159.380021","152526.465689","153275.611212","154043.237254","154809.33938","155576.060162","156342.431888","157109.743501","157876.177988","160934.718079","Mapping"
"Mixed","Both","ball","12","m150ball.wav","None","725.154919084","135","151760.086543","158625.719562","159392.576689","160159.153397","160925.56346","161692.602382","162459.470331","148159.380021","152526.465689","153275.611212","154043.237254","154809.33938","155576.060162","156342.431888","157109.743501","157876.177988","161701.956417","Mapping"
"Mixed","Both","ball","12","m150done.wav","space","321.134492289","135","151760.086543","158625.719562","159392.576689","160159.153397","160925.56346","161692.602382","162459.470331","163226.322511","152526.465689","153275.611212","154043.237254","154809.33938","155576.060162","156342.431888","157109.743501","157876.177988","162469.889158","Mapping"
"Mixed","Both","ball","7","m160cling.wav","None","719.92309019","135","166342.371908","158625.719562","159392.576689","160159.153397","160925.56346","161692.602382","162459.470331","163226.322511","152526.465689","153275.611212","154043.237254","154809.33938","155576.060162","156342.431888","157109.743501","157876.177988","163235.949237","Mapping"
"Mixed","Both","ball","7","m150ball.wav","None","720.968095586","135","166342.371908","158625.719562","159392.576689","160159.153397","160925.56346","161692.602382","162459.470331","163226.322511","167092.107025","153275.611212","154043.237254","154809.33938","155576.060162","156342.431888","157109.743501","157876.177988","166351.99647","Mapping"
"Mixed","Both","ball","7","m150jaw.wav","space","321.833533235","135","166342.371908","158625.719562","159392.576689","160159.153397","160925.56346","161692.602382","162459.470331","163226.322511","167092.107025","167859.036499","154043.237254","154809.33938","155576.060162","156342.431888","157109.743501","157876.177988","167101.128389","Mapping"
"Mixed","Both","ball","7","m160romp.wav","None","732.934026048","135","166342.371908","158625.719562","159392.576689","160159.153397","160925.56346","161692.602382","162459.470331","163226.322511","167092.107025","167859.036499","168625.813241","154809.33938","155576.060162","156342.431888","157109.743501","157876.177988","167868.964978","Mapping"
"Mixed","Both","ball","7","m160cave.wav","None","731.292625424","135","166342.371908","158625.719562","159392.576689","160159.153397","160925.56346","161692.602382","162459.470331","163226.322511","167092.107025","167859.036499","168625.813241","169392.32224","155576.060162","156342.431888","157109.743501","157876.177988","168634.976516","Mapping"
"Mixed","Both","ball","7","m150greet.wav","None","728.91446529","135","166342.371908","158625.719562","159392.576689","160159.153397","160925.56346","161692.602382","162459.470331","163226.322511","167092.107025","167859.036499","168625.813241","169392.32224","170158.991081","156342.431888","157109.743501","157876.177988","169401.89486","Mapping"
"Mixed","Both","ball","7","m160ball.wav","None","726.892781444","135","166342.371908","158625.719562","159392.576689","160159.153397","160925.56346","161692.602382","162459.470331","163226.322511","167092.107025","167859.036499","168625.813241","169392.32224","170158.991081","170925.756693","157109.743501","157876.177988","170168.381599","Mapping"
"Mixed","Both","ball","7","m160bluff.wav","space","351.886405144","135","166342.371908","158625.719562","159392.576689","160159.153397","160925.56346","161692.602382","162459.470331","163226.322511","167092.107025","167859.036499","168625.813241","169392.32224","170158.991081","170925.756693","171692.38627","157876.177988","170935.009011","Mapping"
"Mixed","Both","ball","7","m150park.wav","None","721.983729396","135","166342.371908","158625.719562","159392.576689","160159.153397","160925.56346","161692.602382","162459.470331","163226.322511","167092.107025","167859.036499","168625.813241","169392.32224","170158.991081","170925.756693","171692.38627","172459.611623","171701.845733","Mapping"
"Mixed","Both","ball","7","m150lash.wav","None","718.473685905","135","166342.371908","173208.771058","159392.576689","160159.153397","160925.56346","161692.602382","162459.470331","163226.322511","167092.107025","167859.036499","168625.813241","169392.32224","170158.991081","170925.756693","171692.38627","172459.611623","172469.85484","Mapping"
"Mixed","Both","ball","7","m160park.wav","None","734.414346982","135","166342.371908","173208.771058","173975.707025","160159.153397","160925.56346","161692.602382","162459.470331","163226.322511","167092.107025","167859.036499","168625.813241","169392.32224","170158.991081","170925.756693","171692.38627","172459.611623","173218.429938","Mapping"
"Mixed","Both","ball","7","m150park.wav","None","732.390808407","135","166342.371908","173208.771058","173975.707025","174742.419769","160925.56346","161692.602382","162459.470331","163226.322511","167092.107025","167859.036499","168625.813241","169392.32224","170158.991081","170925.756693","171692.38627","172459.611623","173984.819287","Mapping"
"Mixed","Both","ball","7","m150ball.wav","None","729.848477524","135","166342.371908","173208.771058","173975.707025","174742.419769","175508.999568","161692.602382","162459.470331","163226.322511","167092.107025","167859.036499","168625.813241","169392.32224","170158.991081","170925.756693","171692.38627","172459.611623","174751.785861","Mapping"
"Mixed","Both","ball","7","m160priest.wav","space","296.211422421","135","166342.371908","173208.771058","173975.707025","174742.419769","175508.999568","176275.651095","162459.470331","163226.322511","167092.107025","167859.036499","168625.813241","169392.32224","170158.991081","170925.756693","171692.38627","172459.611623","175518.552092","Mapping"
"Mixed","Both","ball","7","m160ball.wav","None","724.670135416","135","166342.371908","173208.771058","173975.707025","174742.419769","175508.999568","176275.651095","177042.617052","163226.322511","167092.107025","167859.036499","168625.813241","169392.32224","170158.991081","170925.756693","171692.38627","172459.611623","176285.602762","Mapping"
"Mixed","Both","ball","7","m150jolt.wav","space","442.305343691","135","166342.371908","173208.771058","173975.707025","174742.419769","175508.999568","176275.651095","177042.617052","177808.849959","167092.107025","167859.036499","168625.813241","169392.32224","170158.991081","170925.756693","171692.38627","172459.611623","177052.48246","Mapping"
"Mixed","Both","ball","8","m150cave.wav","None","721.517805476","135","180926.161401","173208.771058","173975.707025","174742.419769","175508.999568","176275.651095","177042.617052","177808.849959","167092.107025","167859.036499","168625.813241","169392.32224","170158.991081","170925.756693","171692.38627","172459.611623","177817.621203","Mapping"
"Mixed","Both","ball","8","m150tile.wav","None","720.646245871","135","180926.161401","173208.771058","173975.707025","174742.419769","175508.999568","176275.651095","177042.617052","177808.849959","181675.723071","167859.036499","168625.813241","169392.32224","170158.991081","170925.756693","171692.38627","172459.611623","180936.03021","Mapping"
"Mixed","Both","ball","8","m150ball.wav","None","736.423354596","135","180926.161401","173208.771058","173975.707025","174742.419769","175508.999568","176275.651095","177042.617052","177808.849959","181675.723071","182442.097579","168625.813241","169392.32224","170158.991081","170925.756693","171692.38627","172459.611623","181684.756494","Mapping"
"Mixed","Both","ball","8","m150depth.wav","space","331.385748461","135","180926.161401","173208.771058","173975.707025","174742.419769","175508.999568","176275.651095","177042.617052","177808.849959","181675.723071","182442.097579","183208.614307","169392.32224","170158.991081","170925.756693","171692.38627","172459.611623","182451.297955","Mapping"
"Mixed","Both","ball","8","m160ball.wav","None","732.261264697","135","180926.161401","173208.771058","173975.707025","174742.419769","175508.999568","176275.651095","177042.617052","177808.849959","181675.723071","182442.097579","183208.614307","183975.54811","170158.991081","170925.756693","171692.38627","172459.611623","183217.503655","Mapping"
"Mixed","Both","ball","8","m160cling.wav","space","317.961757071","135","180926.161401","173208.771058","173975.707025","174742.419769","175508.999568","176275.651095","177042.617052","177808.849959","181675.723071","182442.097579","183208.614307","183975.54811","184741.891392","170925.756693","171692.38627","172459.611623","183984.670884","Mapping"
"Mixed","Both","ball","8","m150done.wav","None","730.105400085","135","180926.161401","173208.771058","173975.707025","174742.419769","175508.999568","176275.651095","177042.617052","177808.849959","181675.723071","182442.097579","183208.614307","183975.54811","184741.891392","185508.967414","171692.38627","172459.611623","184750.843502","Mapping"
"Mixed","Both","ball","8","m150park.wav","None","726.650080644","135","180926.161401","173208.771058","173975.707025","174742.419769","175508.999568","176275.651095","177042.617052","177808.849959","181675.723071","182442.097579","183208.614307","183975.54811","184741.891392","185508.967414","186275.506093","172459.611623","185518.883217","Mapping"
"Mixed","Both","ball","8","m160cling.wav","None","725.373195019","135","180926.161401","173208.771058","173975.707025","174742.419769","175508.999568","176275.651095","177042.617052","177808.849959","181675.723071","182442.097579","183208.614307","183975.54811","184741.891392","185508.967414","186275.506093","187042.635602","186284.693484","Mapping"
"Mixed","Both","ball","8","m160lash.wav","None","722.100287676","135","180926.161401","187808.598292","173975.707025","174742.419769","175508.999568","176275.651095","177042.617052","177808.849959","181675.723071","182442.097579","183208.614307","183975.54811","184741.891392","185508.967414","186275.506093","187042.635602","187052.487716","Mapping"
"Mixed","Both","ball","8","m150ball.wav","None","721.655387431","135","180926.161401","187808.598292","188558.712454","174742.419769","175508.999568","176275.651095","177042.617052","177808.849959","181675.723071","182442.097579","183208.614307","183975.54811","184741.891392","185508.967414","186275.506093","187042.635602","187817.714882","Mapping"
"Mixed","Both","ball","8","m150bluff.wav","space","318.022046238","135","180926.161401","187808.598292","188558.712454","189325.114479","175508.999568","176275.651095","177042.617052","177808.849959","181675.723071","182442.097579","183208.614307","183975.54811","184741.891392","185508.967414","186275.506093","187042.635602","188568.542307","Mapping"
"Mixed","Both","ball","8","m160lash.wav","None","734.030353837","135","180926.161401","187808.598292","188558.712454","189325.114479","190091.904516","176275.651095","177042.617052","177808.849959","181675.723071","182442.097579","183208.614307","183975.54811","184741.891392","185508.967414","186275.506093","187042.635602","189334.073391","Mapping"
"Mixed","Both","ball","8","m160jolt.wav","None","731.613547076","135","180926.161401","187808.598292","188558.712454","189325.114479","190091.904516","190858.904791","177042.617052","177808.849959","181675.723071","182442.097579","183208.614307","183975.54811","184741.891392","185508.967414","186275.506093","187042.635602","190100.959581","Mapping"
"Mixed","Both","ball","8","m160ball.wav","None","728.739473037","135","180926.161401","187808.598292","188558.712454","189325.114479","190091.904516","190858.904791","191625.449654","177808.849959","181675.723071","182442.097579","183208.614307","183975.54811","184741.891392","185508.967414","186275.506093","187042.635602","190868.404447","Mapping"
"Mixed","Both","ball","8","m160romp.wav","space","259.829157032","135","180926.161401","187808.598292","188558.712454","189325.114479","190091.904516","190858.904791","191625.449654","192392.372326","181675.723071","182442.097579","183208.614307","183975.54811","184741.891392","185508.967414","186275.506093","187042.635602","191634.664561","Mapping"
"Mixed","Both","ball","10","m160tile.wav","None","723.004309926","135","195508.827358","187808.598292","188558.712454","189325.114479","190091.904516","190858.904791","191625.449654","192392.372326","181675.723071","182442.097579","183208.614307","183975.54811","184741.891392","185508.967414","186275.506093","187042.635602","192402.7927","Mapping"
"Mixed","Both","ball","10","m160done.wav","None","721.037659328","135","195508.827358","187808.598292","188558.712454","189325.114479","190091.904516","190858.904791","191625.449654","192392.372326","196258.997172","182442.097579","183208.614307","183975.54811","184741.891392","185508.967414","186275.506093","187042.635602","195518.472944","Mapping"
"Mixed","Both","ball","10","m160ball.wav","None","735.208922531","135","195508.827358","187808.598292","188558.712454","189325.114479","190091.904516","190858.904791","191625.449654","192392.372326","196258.997172","197024.806202","183208.614307","183975.54811","184741.891392","185508.967414","186275.506093","187042.635602","196268.961515","Mapping"
"Mixed","Both","ball","10","m150romp.wav","space","372.759305872","135","195508.827358","187808.598292","188558.712454","189325.114479","190091.904516","190858.904791","191625.449654","192392.372326","196258.997172","197024.806202","197791.858418","183975.54811","184741.891392","185508.967414","186275.506093","187042.635602","197033.669271","Mapping"
"Mixed","Both","ball","10","m150dime.wav","None","731.588503812","135","195508.827358","187808.598292","188558.712454","189325.114479","190091.904516","190858.904791","191625.449654","192392.372326","196258.997172","197024.806202","197791.858418","198558.431725","184741.891392","185508.967414","186275.506093","187042.635602","197801.362094","Mapping"
"Mixed","Both","ball","10","m150bluff.wav","None","729.803646915","135","195508.827358","187808.598292","188558.712454","189325.114479","190091.904516","190858.904791","191625.449654","192392.372326","196258.997172","197024.806202","197791.858418","198558.431725","199325.114788","185508.967414","186275.506093","187042.635602","198567.762572","Mapping"
"Mixed","Both","ball","10","m160cling.wav","None","727.496906184","135","195508.827358","187808.598292","188558.712454","189325.114479","190091.904516","190858.904791","191625.449654","192392.372326","196258.997172","197024.806202","197791.858418","198558.431725","199325.114788","200091.467036","186275.506093","187042.635602","199334.96721","Mapping"
"Mixed","Both","ball","10","m150ball.wav","None","726.663993672","135","195508.827358","187808.598292","188558.712454","189325.114479","190091.904516","190858.904791","191625.449654","192392.372326","196258.997172","197024.806202","197791.858418","198558.431725","199325.114788","200091.467036","200859.35371","187042.635602","200100.316809","Mapping"
"Mixed","Both","ball","10","m150greet.wav","space","361.068230122","135","195508.827358","187808.598292","188558.712454","189325.114479","190091.904516","190858.904791","191625.449654","192392.372326","196258.997172","197024.806202","197791.858418","198558.431725","199325.114788","200091.467036","200859.35371","201625.577651","200869.246635","Mapping"
"Mixed","Both","ball","10","m150jolt.wav","None","719.762938097","135","195508.827358","202375.252787","188558.712454","189325.114479","190091.904516","190858.904791","191625.449654","192392.372326","196258.997172","197024.806202","197791.858418","198558.431725","199325.114788","200091.467036","200859.35371","201625.577651","201636.003281","Mapping"
"Mixed","Both","ball","10","m160done.wav","None","735.920020379","135","195508.827358","202375.252787","203141.489714","189325.114479","190091.904516","190858.904791","191625.449654","192392.372326","196258.997172","197024.806202","197791.858418","198558.431725","199325.114788","200091.467036","200859.35371","201625.577651","202384.613316","Mapping"
"Mixed","Both","ball","10","m150ball.wav","None","734.356841072","135","195508.827358","202375.252787","203141.489714","203908.26522","190091.904516","190858.904791","191625.449654","192392.372326","196258.997172","197024.806202","197791.858418","198558.431725","199325.114788","200091.467036","200859.35371","201625.577651","203150.671849","Mapping"
"Mixed","Both","ball","10","m160reek.wav","space","344.644641038","135","195508.827358","202375.252787","203141.489714","203908.26522","204675.219119","190858.904791","191625.449654","192392.372326","196258.997172","197024.806202","197791.858418","198558.431725","199325.114788","200091.467036","200859.35371","201625.577651","203917.646153","Mapping"
"Mixed","Both","ball","10","m150reek.wav","None","728.869635146","135","195508.827358","202375.252787","203141.489714","203908.26522","204675.219119","205441.894762","191625.449654","192392.372326","196258.997172","197024.806202","197791.858418","198558.431725","199325.114788","200091.467036","200859.35371","201625.577651","204684.907679","Mapping"
"Mixed","Both","ball","10","m160ball.wav","None","727.107038256","135","195508.827358","202375.252787","203141.489714","203908.26522","204675.219119","205441.894762","206208.131069","192392.372326","196258.997172","197024.806202","197791.858418","198558.431725","199325.114788","200091.467036","200859.35371","201625.577651","205451.229628","Mapping"
"Mixed","Both","ball","10","m160bluff.wav","space","413.186484482","135","195508.827358","202375.252787","203141.489714","203908.26522","204675.219119","205441.894762","206208.131069","206975.206783","196258.997172","197024.806202","197791.858418","198558.431725","199325.114788","200091.467036","200859.35371","201625.577651","206217.066484","Mapping"
"Mixed","Both","done","45","m150lash.wav","None","722.674113233","135","210092.085382","202375.252787","203141.489714","203908.26522","204675.219119","205441.894762","206208.131069","206975.206783","196258.997172","197024.806202","197791.858418","198558.431725","199325.114788","200091.467036","200859.35371","201625.577651","206984.841856","Mapping"
"Mixed","Both","done","45","m150done.wav","None","726.093878038","135","210092.085382","202375.252787","203141.489714","203908.26522","204675.219119","205441.894762","206208.131069","206975.206783","210858.599637","197024.806202","197791.858418","198558.431725","199325.114788","200091.467036","200859.35371","201625.577651","210097.086259","Mapping"
"Mixed","Both","done","45","m160jaw.wav","space","321.343493648","135","210092.085382","202375.252787","203141.489714","203908.26522","204675.219119","205441.894762","206208.131069","206975.206783","210858.599637","211608.398752","197791.858418","198558.431725","199325.114788","200091.467036","200859.35371","201625.577651","210868.786275","Mapping"
"Mixed","Both","done","45","m150cling.wav","None","734.184631612","135","210092.085382","202375.252787","203141.489714","203908.26522","204675.219119","205441.894762","206208.131069","206975.206783","210858.599637","211608.398752","212374.929392","198558.431725","199325.114788","200091.467036","200859.35371","201625.577651","211617.514414","Mapping"
"Mixed","Both","done","45","m160cad.wav","None","732.284762431","135","210092.085382","202375.252787","203141.489714","203908.26522","204675.219119","205441.894762","206208.131069","206975.206783","210858.599637","211608.398752","212374.929392","213141.612147","199325.114788","200091.467036","200859.35371","201625.577651","212384.109054","Mapping"
"Mixed","Both","done","45","m160jolt.wav","None","729.469740298","135","210092.085382","202375.252787","203141.489714","203908.26522","204675.219119","205441.894762","206208.131069","206975.206783","210858.599637","211608.398752","212374.929392","213141.612147","213907.818774","200091.467036","200859.35371","201625.577651","213151.624411","Mapping"
"Mixed","Both","done","45","m150reek.wav","None","729.437895119","135","210092.085382","202375.252787","203141.489714","203908.26522","204675.219119","205441.894762","206208.131069","206975.206783","210858.599637","211608.398752","212374.929392","213141.612147","213907.818774","214674.957558","200859.35371","201625.577651","213916.834882","Mapping"
"Mixed","Both","done","45","m150jolt.wav","None","726.045646705","135","210092.085382","202375.252787","203141.489714","203908.26522","204675.219119","205441.894762","206208.131069","206975.206783","210858.599637","211608.398752","212374.929392","213141.612147","213907.818774","214674.957558","215442.015648","201625.577651","214684.778136","Mapping"
"Mixed","Both","done","45","m150lash.wav","None","723.383047618","135","210092.085382","202375.252787","203141.489714","203908.26522","204675.219119","205441.894762","206208.131069","206975.206783","210858.599637","211608.398752","212374.929392","213141.612147","213907.818774","214674.957558","215442.015648","216207.772738","215452.133032","Mapping"
"Mixed","Both","done","45","m160done.wav","None","726.805903949","135","210092.085382","216975.430315","203141.489714","203908.26522","204675.219119","205441.894762","206208.131069","206975.206783","210858.599637","211608.398752","212374.929392","213141.612147","213907.818774","214674.957558","215442.015648","216207.772738","216216.771842","Mapping"
"Mixed","Both","done","45","m150romp.wav","space","309.023869224","135","210092.085382","216975.430315","217741.969612","203908.26522","204675.219119","205441.894762","206208.131069","206975.206783","210858.599637","211608.398752","212374.929392","213141.612147","213907.818774","214674.957558","215442.015648","216207.772738","216985.010356","Mapping"
"Mixed","Both","done","45","m150done.wav","None","721.457207575","135","210092.085382","216975.430315","217741.969612","218508.5726","204675.219119","205441.894762","206208.131069","206975.206783","210858.599637","211608.398752","212374.929392","213141.612147","213907.818774","214674.957558","215442.015648","216207.772738","217751.458447","Mapping"
"Mixed","Both","done","45","m160park.wav","space","390.945491847","135","210092.085382","216975.430315","217741.969612","218508.5726","219257.941345","205441.894762","206208.131069","206975.206783","210858.599637","211608.398752","212374.929392","213141.612147","213907.818774","214674.957558","215442.015648","216207.772738","218519.08758","Mapping"
"Mixed","Both","done","45","m160jolt.wav","None","734.715790953","135","210092.085382","216975.430315","217741.969612","218508.5726","219257.941345","220024.592254","206208.131069","206975.206783","210858.599637","211608.398752","212374.929392","213141.612147","213907.818774","214674.957558","215442.015648","216207.772738","219266.951271","Mapping"
"Mixed","Both","done","45","m160done.wav","None","732.453261502","135","210092.085382","216975.430315","217741.969612","218508.5726","219257.941345","220024.592254","220791.493903","206975.206783","210858.599637","211608.398752","212374.929392","213141.612147","213907.818774","214674.957558","215442.015648","216207.772738","220033.993284","Mapping"
"Mixed","Both","done","45","m160cave.wav","space","428.85878263","135","210092.085382","216975.430315","217741.969612","218508.5726","219257.941345","220024.592254","220791.493903","221558.036292","210858.599637","211608.398752","212374.929392","213141.612147","213907.818774","214674.957558","215442.015648","216207.772738","220801.111663","Mapping"
"Mixed","Both","tile","30","m150jolt.wav","None","727.457331493","135","224692.090391","216975.430315","217741.969612","218508.5726","219257.941345","220024.592254","220791.493903","221558.036292","210858.599637","211608.398752","212374.929392","213141.612147","213907.818774","214674.957558","215442.015648","216207.772738","221567.706303","Mapping"
"Mixed","Both","tile","30","m160cad.wav","None","719.938239548","135","224692.090391","216975.430315","217741.969612","218508.5726","219257.941345","220024.592254","220791.493903","221558.036292","225441.604448","211608.398752","212374.929392","213141.612147","213907.818774","214674.957558","215442.015648","216207.772738","224702.013305","Mapping"
"Mixed","Both","tile","30","m150tile.wav","None","735.743791796","135","224692.090391","216975.430315","217741.969612","218508.5726","219257.941345","220024.592254","220791.493903","221558.036292","225441.604448","226207.847867","212374.929392","213141.612147","213907.818774","214674.957558","215442.015648","216207.772738","225450.861403","Mapping"
"Mixed","Both","tile","30","m160reek.wav","space","317.027126439","135","224692.090391","216975.430315","217741.969612","218508.5726","219257.941345","220024.592254","220791.493903","221558.036292","225441.604448","226207.847867","226974.831137","213141.612147","213907.818774","214674.957558","215442.015648","216207.772738","226216.859338","Mapping"
"Mixed","Both","tile","30","m150park.wav","None","730.692211073","135","224692.090391","216975.430315","217741.969612","218508.5726","219257.941345","220024.592254","220791.493903","221558.036292","225441.604448","226207.847867","226974.831137","227741.419903","213907.818774","214674.957558","215442.015648","216207.772738","226984.8029","Mapping"
"Mixed","Both","tile","30","m150done.wav","None","730.095506646","135","224692.090391","216975.430315","217741.969612","218508.5726","219257.941345","220024.592254","220791.493903","221558.036292","225441.604448","226207.847867","226974.831137","227741.419903","228507.916534","214674.957558","215442.015648","216207.772738","227750.219281","Mapping"
"Mixed","Both","tile","30","m150lash.wav","None","727.491341066","135","224692.090391","216975.430315","217741.969612","218508.5726","219257.941345","220024.592254","220791.493903","221558.036292","225441.604448","226207.847867","226974.831137","227741.419903","228507.916534","229274.735015","215442.015648","216207.772738","228517.650234","Mapping"
"Mixed","Both","tile","30","m150tile.wav","None","726.498894859","135","224692.090391","216975.430315","217741.969612","218508.5726","219257.941345","220024.592254","220791.493903","221558.036292","225441.604448","226207.847867","226974.831137","227741.419903","228507.916534","229274.735015","230041.812583","216207.772738","229283.815432","Mapping"
"Mixed","Both","tile","30","m160reek.wav","space","298.602258787","135","224692.090391","216975.430315","217741.969612","218508.5726","219257.941345","220024.592254","220791.493903","221558.036292","225441.604448","226207.847867","226974.831137","227741.419903","228507.916534","229274.735015","230041.812583","230808.530892","230051.2334","Mapping"
"Mixed","Both","tile","30","m150jolt.wav","None","721.383005846","135","224692.090391","231575.224468","217741.969612","218508.5726","219257.941345","220024.592254","220791.493903","221558.036292","225441.604448","226207.847867","226974.831137","227741.419903","228507.916534","229274.735015","230041.812583","230808.530892","230817.98881","Mapping"
"Mixed","Both","tile","30","m150lash.wav","None","719.913196284","135","224692.090391","231575.224468","232324.087715","218508.5726","219257.941345","220024.592254","220791.493903","221558.036292","225441.604448","226207.847867","226974.831137","227741.419903","228507.916534","229274.735015","230041.812583","230808.530892","231584.614985","Mapping"
"Mixed","Both","tile","30","m160ball.wav","None","736.504976638","135","224692.090391","231575.224468","232324.087715","233091.21135","219257.941345","220024.592254","220791.493903","221558.036292","225441.604448","226207.847867","226974.831137","227741.419903","228507.916534","229274.735015","230041.812583","230808.530892","232332.931614","Mapping"
"Mixed","Both","tile","30","m160tile.wav","None","733.73076506","135","224692.090391","231575.224468","232324.087715","233091.21135","233857.963049","220024.592254","220791.493903","221558.036292","225441.604448","226207.847867","226974.831137","227741.419903","228507.916534","229274.735015","230041.812583","230808.530892","233100.576515","Mapping"
"Mixed","Both","tile","30","m160knife.wav","space","354.123272933","135","224692.090391","231575.224468","232324.087715","233091.21135","233857.963049","234624.24697","220791.493903","221558.036292","225441.604448","226207.847867","226974.831137","227741.419903","228507.916534","229274.735015","230041.812583","230808.530892","233867.638625","Mapping"
"Mixed","Both","tile","30","m160tile.wav","None","730.387365911","135","224692.090391","231575.224468","232324.087715","233091.21135","233857.963049","234624.24697","235391.245699","221558.036292","225441.604448","226207.847867","226974.831137","227741.419903","228507.916534","229274.735015","230041.812583","230808.530892","234632.9335","Mapping"
"Mixed","Both","tile","30","m160ball.wav","space","500.724238344","135","224692.090391","231575.224468","232324.087715","233091.21135","233857.963049","234624.24697","235391.245699","236157.672767","225441.604448","226207.847867","226974.831137","227741.419903","228507.916534","229274.735015","230041.812583","230808.530892","235400.983109","Mapping"
"Mixed","Both","cave","23","m160jaw.wav","None","726.02431383","135","239275.127974","231575.224468","232324.087715","233091.21135","233857.963049","234624.24697","235391.245699","236157.672767","225441.604448","226207.847867","226974.831137","227741.419903","228507.916534","229274.735015","230041.812583","230808.530892","236166.512647","Mapping"
"Mixed","Both","cave","23","m160cave.wav","None","721.136595123","135","239275.127974","231575.224468","232324.087715","233091.21135","233857.963049","234624.24697","235391.245699","236157.672767","240041.615331","226207.847867","226974.831137","227741.419903","228507.916534","229274.735015","230041.812583","230808.530892","239284.523129","Mapping"
"Mixed","Both","cave","23","m160reek.wav","space","313.968476374","135","239275.127974","231575.224468","232324.087715","233091.21135","233857.963049","234624.24697","235391.245699","236157.672767","240041.615331","240790.97913","226974.831137","227741.419903","228507.916534","229274.735015","230041.812583","230808.530892","240051.636253","Mapping"
"Mixed","Both","cave","23","m150cave.wav","None","734.54481829","135","239275.127974","231575.224468","232324.087715","233091.21135","233857.963049","234624.24697","235391.245699","236157.672767","240041.615331","240790.97913","241557.6557","227741.419903","228507.916534","229274.735015","230041.812583","230808.530892","240800.057073","Mapping"
"Mixed","Both","cave","23","m160jolt.wav","space","463.059213012","135","239275.127974","231575.224468","232324.087715","233091.21135","233857.963049","234624.24697","235391.245699","236157.672767","240041.615331","240790.97913","241557.6557","242324.489949","228507.916534","229274.735015","230041.812583","230808.530892","241566.550613","Mapping"
"Mixed","Both","cave","23","m150dime.wav","None","729.96936366","135","239275.127974","231575.224468","232324.087715","233091.21135","233857.963049","234624.24697","235391.245699","236157.672767","240041.615331","240790.97913","241557.6557","242324.489949","243091.057691","229274.735015","230041.812583","230808.530892","242333.502966","Mapping"
"Mixed","Both","cave","23","m160park.wav","None","727.757229935","135","239275.127974","231575.224468","232324.087715","233091.21135","233857.963049","234624.24697","235391.245699","236157.672767","240041.615331","240790.97913","241557.6557","242324.489949","243091.057691","243857.739517","230041.812583","230808.530892","243100.534467","Mapping"
"Mixed","Both","cave","23","m150reek.wav","None","726.379553787","135","239275.127974","231575.224468","232324.087715","233091.21135","233857.963049","234624.24697","235391.245699","236157.672767","240041.615331","240790.97913","241557.6557","242324.489949","243091.057691","243857.739517","244624.912002","230808.530892","243866.827354","Mapping"
"Mixed","Both","cave","23","m150romp.wav","None","723.727775272","135","239275.127974","231575.224468","232324.087715","233091.21135","233857.963049","234624.24697","235391.245699","236157.672767","240041.615331","240790.97913","241557.6557","242324.489949","243091.057691","243857.739517","244624.912002","245391.609905","244634.266346","Mapping"
"Mixed","Both","cave","23","m150cave.wav","None","721.292418428","135","239275.127974","246157.916395","232324.087715","233091.21135","233857.963049","234624.24697","235391.245699","236157.672767","240041.615331","240790.97913","241557.6557","242324.489949","243091.057691","243857.739517","244624.912002","245391.609905","245401.532509","Mapping"
"Mixed","Both","cave","23","m160cad.wav","space","270.087833051","135","239275.127974","246157.916395","246907.469717","233091.21135","233857.963049","234624.24697","235391.245699","236157.672767","240041.615331","240790.97913","241557.6557","242324.489949","243091.057691","243857.739517","244624.912002","245391.609905","246167.450987","Mapping"
"Mixed","Both","cave","23","m160cave.wav","None","735.510675237","135","239275.127974","246157.916395","246907.469717","247674.441857","233857.963049","234624.24697","235391.245699","236157.672767","240041.615331","240790.97913","241557.6557","242324.489949","243091.057691","243857.739517","244624.912002","245391.609905","246916.416571","Mapping"
"Mixed","Both","cave","23","m160tile.wav","space","417.980833445","135","239275.127974","246157.916395","246907.469717","247674.441857","248440.670745","234624.24697","235391.245699","236157.672767","240041.615331","240790.97913","241557.6557","242324.489949","243091.057691","243857.739517","244624.912002","245391.609905","247683.495376","Mapping"
"Mixed","Both","cave","23","m150reek.wav","None","731.599943247","135","239275.127974","246157.916395","246907.469717","247674.441857","248440.670745","249207.409768","235391.245699","236157.672767","240041.615331","240790.97913","241557.6557","242324.489949","243091.057691","243857.739517","244624.912002","245391.609905","248449.379536","Mapping"
"Mixed","Both","cave","23","m150priest.wav","None","728.873963468","135","239275.127974","246157.916395","246907.469717","247674.441857","248440.670745","249207.409768","249974.334605","236157.672767","240041.615331","240790.97913","241557.6557","242324.489949","243091.057691","243857.739517","244624.912002","245391.609905","249217.040204","Mapping"
"Mixed","Both","cave","23","m150greet.wav","None","727.392714471","135","239275.127974","246157.916395","246907.469717","247674.441857","248440.670745","249207.409768","249974.334605","250740.577715","240041.615331","240790.97913","241557.6557","242324.489949","243091.057691","243857.739517","244624.912002","245391.609905","249983.379158","Mapping"
"Mixed","Both","done","40","m150gnash.wav","None","726.379863452","135","253874.531641","246157.916395","246907.469717","247674.441857","248440.670745","249207.409768","249974.334605","250740.577715","240041.615331","240790.97913","241557.6557","242324.489949","243091.057691","243857.739517","244624.912002","245391.609905","250749.334736","Mapping"
"Mixed","Both","done","40","m150cling.wav","None","720.026354305","135","253874.531641","246157.916395","246907.469717","247674.441857","248440.670745","249207.409768","249974.334605","250740.577715","254623.801142","240790.97913","241557.6557","242324.489949","243091.057691","243857.739517","244624.912002","245391.609905","253884.380972","Mapping"
"Mixed","Both","done","40","m160park.wav","None","736.901954748","135","253874.531641","246157.916395","246907.469717","247674.441857","248440.670745","249207.409768","249974.334605","250740.577715","254623.801142","255390.900662","241557.6557","242324.489949","243091.057691","243857.739517","244624.912002","245391.609905","254632.603303","Mapping"
"Mixed","Both","done","40","m150ball.wav","None","734.379719943","135","253874.531641","246157.916395","246907.469717","247674.441857","248440.670745","249207.409768","249974.334605","250740.577715","254623.801142","255390.900662","256157.377197","242324.489949","243091.057691","243857.739517","244624.912002","245391.609905","255400.039512","Mapping"
"Mixed","Both","done","40","m160done.wav","None","732.211488299","135","253874.531641","246157.916395","246907.469717","247674.441857","248440.670745","249207.409768","249974.334605","250740.577715","254623.801142","255390.900662","256157.377197","256924.216392","243091.057691","243857.739517","244624.912002","245391.609905","256167.246005","Mapping"
"Mixed","Both","done","40","m160bluff.wav","space","320.152867585","135","253874.531641","246157.916395","246907.469717","247674.441857","248440.670745","249207.409768","249974.334605","250740.577715","254623.801142","255390.900662","256157.377197","256924.216392","257690.930991","243857.739517","244624.912002","245391.609905","256933.221062","Mapping"
"Mixed","Both","done","40","m160cling.wav","None","728.798524942","135","253874.531641","246157.916395","246907.469717","247674.441857","248440.670745","249207.409768","249974.334605","250740.577715","254623.801142","255390.900662","256157.377197","256924.216392","257690.930991","258457.020133","244624.912002","245391.609905","257700.111271","Mapping"
"Mixed","Both","done","40","m160done.wav","None","728.337856941","135","253874.531641","246157.916395","246907.469717","247674.441857","248440.670745","249207.409768","249974.334605","250740.577715","254623.801142","255390.900662","256157.377197","256924.216392","257690.930991","258457.020133","259224.22137","245391.609905","258465.668326","Mapping"
"Mixed","Both","done","40","m150ball.wav","space","339.9866377","135","253874.531641","246157.916395","246907.469717","247674.441857","248440.670745","249207.409768","249974.334605","250740.577715","254623.801142","255390.900662","256157.377197","256924.216392","257690.930991","258457.020133","259224.22137","259991.09643","259233.306115","Mapping"
"Mixed","Both","done","40","m150cave.wav","None","722.309288569","135","253874.531641","260757.735281","246907.469717","247674.441857","248440.670745","249207.409768","249974.334605","250740.577715","254623.801142","255390.900662","256157.377197","256924.216392","257690.930991","258457.020133","259224.22137","259991.09643","260000.961529","Mapping"
"Mixed","Both","done","40","m160jaw.wav","None","720.649338327","135","253874.531641","260757.735281","261524.312917","247674.441857","248440.670745","249207.409768","249974.334605","250740.577715","254623.801142","255390.900662","256157.377197","256924.216392","257690.930991","258457.020133","259224.22137","259991.09643","260767.659123","Mapping"
"Mixed","Both","done","40","m160romp.wav","None","719.18138396","135","253874.531641","260757.735281","261524.312917","262273.881079","248440.670745","249207.409768","249974.334605","250740.577715","254623.801142","255390.900662","256157.377197","256924.216392","257690.930991","258457.020133","259224.22137","259991.09643","261534.038578","Mapping"
"Mixed","Both","done","40","m150done.wav","None","735.148942564","135","253874.531641","260757.735281","261524.312917","262273.881079","263040.780563","249207.409768","249974.334605","250740.577715","254623.801142","255390.900662","256157.377197","256924.216392","257690.930991","258457.020133","259224.22137","259991.09643","262283.194921","Mapping"
"Mixed","Both","done","40","m150romp.wav","space","298.705213703","135","253874.531641","260757.735281","261524.312917","262273.881079","263040.780563","263806.988118","249974.334605","250740.577715","254623.801142","255390.900662","256157.377197","256924.216392","257690.930991","258457.020133","259224.22137","259991.09643","263050.524466","Mapping"
"Mixed","Both","done","40","m150done.wav","None","731.788848061","135","253874.531641","260757.735281","261524.312917","262273.881079","263040.780563","263806.988118","264573.730233","250740.577715","254623.801142","255390.900662","256157.377197","256924.216392","257690.930991","258457.020133","259224.22137","259991.09643","263815.743903","Mapping"
"Mixed","Both","done","40","m160ball.wav","space","342.67799044","135","253874.531641","260757.735281","261524.312917","262273.881079","263040.780563","263806.988118","264573.730233","265340.736691","254623.801142","255390.900662","256157.377197","256924.216392","257690.930991","258457.020133","259224.22137","259991.09643","264582.526211","Mapping"
"Mixed","Both","done","44","m160greet.wav","None","726.768493652","135","268474.547471","260757.735281","261524.312917","262273.881079","263040.780563","263806.988118","264573.730233","265340.736691","254623.801142","255390.900662","256157.377197","256924.216392","257690.930991","258457.020133","259224.22137","259991.09643","265349.886673","Mapping"
"Mixed","Both","done","44","m160done.wav","None","721.296128351","135","268474.547471","260757.735281","261524.312917","262273.881079","263040.780563","263806.988118","264573.730233","265340.736691","269240.964954","255390.900662","256157.377197","256924.216392","257690.930991","258457.020133","259224.22137","259991.09643","268483.868115","Mapping"
"Mixed","Both","done","44","m160romp.wav","space","298.68820915","135","268474.547471","260757.735281","261524.312917","262273.881079","263040.780563","263806.988118","264573.730233","265340.736691","269240.964954","269990.267537","256157.377197","256924.216392","257690.930991","258457.020133","259224.22137","259991.09643","269250.430601","Mapping"
"Mixed","Both","done","44","m160done.wav","None","740.478161257","135","268474.547471","260757.735281","261524.312917","262273.881079","263040.780563","263806.988118","264573.730233","265340.736691","269240.964954","269990.267537","270757.259464","256924.216392","257690.930991","258457.020133","259224.22137","259991.09643","269993.932476","Mapping"
"Mixed","Both","done","44","m150cave.wav","space","342.501761392","135","268474.547471","260757.735281","261524.312917","262273.881079","263040.780563","263806.988118","264573.730233","265340.736691","269240.964954","269990.267537","270757.259464","271523.868635","257690.930991","258457.020133","259224.22137","259991.09643","270766.609789","Mapping"
"Mixed","Both","done","44","m160lash.wav","None","730.737659149","135","268474.547471","260757.735281","261524.312917","262273.881079","263040.780563","263806.988118","264573.730233","265340.736691","269240.964954","269990.267537","270757.259464","271523.868635","272290.464511","258457.020133","259224.22137","259991.09643","271532.946578","Mapping"
"Mixed","Both","done","44","m150jolt.wav","None","728.709792718","135","268474.547471","260757.735281","261524.312917","262273.881079","263040.780563","263806.988118","264573.730233","265340.736691","269240.964954","269990.267537","270757.259464","271523.868635","272290.464511","273057.095633","259224.22137","259991.09643","272300.012707","Mapping"
"Mixed","Both","done","44","m160park.wav","None","727.726930752","135","268474.547471","260757.735281","261524.312917","262273.881079","263040.780563","263806.988118","264573.730233","265340.736691","269240.964954","269990.267537","270757.259464","271523.868635","272290.464511","273057.095633","273823.911641","259991.09643","273066.049289","Mapping"
"Mixed","Both","done","44","m150jaw.wav","None","725.96340673","135","268474.547471","260757.735281","261524.312917","262273.881079","263040.780563","263806.988118","264573.730233","265340.736691","269240.964954","269990.267537","270757.259464","271523.868635","272290.464511","273057.095633","273823.911641","274590.372408","273832.912291","Mapping"
"Mixed","Both","done","44","m150done.wav","None","724.770307541","135","268474.547471","275356.997965","261524.312917","262273.881079","263040.780563","263806.988118","264573.730233","265340.736691","269240.964954","269990.267537","270757.259464","271523.868635","272290.464511","273057.095633","273823.911641","274590.372408","274599.123247","Mapping"
"Mixed","Both","done","44","m150ball.wav","space","279.129294213","135","268474.547471","275356.997965","276123.978762","262273.881079","263040.780563","263806.988118","264573.730233","265340.736691","269240.964954","269990.267537","270757.259464","271523.868635","272290.464511","273057.095633","273823.911641","274590.372408","275365.891951","Mapping"
"Mixed","Both","done","44","m160tile.wav","None","720.413129777","135","268474.547471","275356.997965","276123.978762","276873.601648","263040.780563","263806.988118","264573.730233","265340.736691","269240.964954","269990.267537","270757.259464","271523.868635","272290.464511","273057.095633","273823.911641","274590.372408","276132.841521","Mapping"
"Mixed","Both","done","44","m150knife.wav","None","735.600644723","135","268474.547471","275356.997965","276123.978762","276873.601648","277640.477326","263806.988118","264573.730233","265340.736691","269240.964954","269990.267537","270757.259464","271523.868635","272290.464511","273057.095633","273823.911641","274590.372408","276882.725658","Mapping"
"Mixed","Both","done","44","m160park.wav","None","733.382327016","135","268474.547471","275356.997965","276123.978762","276873.601648","277640.477326","278407.005803","264573.730233","265340.736691","269240.964954","269990.267537","270757.259464","271523.868635","272290.464511","273057.095633","273823.911641","274590.372408","277649.967707","Mapping"
"Mixed","Both","done","44","m150done.wav","None","732.072051149","135","268474.547471","275356.997965","276123.978762","276873.601648","277640.477326","278407.005803","279173.751319","265340.736691","269240.964954","269990.267537","270757.259464","271523.868635","272290.464511","273057.095633","273823.911641","274590.372408","278416.40003","Mapping"
"Mixed","Both","done","44","m150knife.wav","space","293.762152549","135","268474.547471","275356.997965","276123.978762","276873.601648","277640.477326","278407.005803","279173.751319","279939.905696","269240.964954","269990.267537","270757.259464","271523.868635","272290.464511","273057.095633","273823.911641","274590.372408","279183.11432","Mapping"
"Mixed","Both","done","42","m150bluff.wav","None","732.290636282","135","283074.149627","275356.997965","276123.978762","276873.601648","277640.477326","278407.005803","279173.751319","279939.905696","269240.964954","269990.267537","270757.259464","271523.868635","272290.464511","273057.095633","273823.911641","274590.372408","279948.581714","Mapping"
"Mixed","Both","done","42","m160greet.wav","None","720.865450334","135","283074.149627","275356.997965","276123.978762","276873.601648","277640.477326","278407.005803","279173.751319","279939.905696","283840.9038","269990.267537","270757.259464","271523.868635","272290.464511","273057.095633","273823.911641","274590.372408","283083.976697","Mapping"
"Mixed","Both","done","42","m150done.wav","None","719.107800629","135","283074.149627","275356.997965","276123.978762","276873.601648","277640.477326","278407.005803","279173.751319","279939.905696","283840.9038","284589.767666","270757.259464","271523.868635","272290.464511","273057.095633","273823.911641","274590.372408","283850.922557","Mapping"
"Mixed","Both","done","42","m150cad.wav","space","390.3800142","135","283074.149627","275356.997965","276123.978762","276873.601648","277640.477326","278407.005803","279173.751319","279939.905696","283840.9038","284589.767666","285356.942623","271523.868635","272290.464511","273057.095633","273823.911641","274590.372408","284598.467181","Mapping"
"Mixed","Both","done","42","m160cling.wav","None","733.112728223","135","283074.149627","275356.997965","276123.978762","276873.601648","277640.477326","278407.005803","279173.751319","279939.905696","283840.9038","284589.767666","285356.942623","286123.678246","272290.464511","273057.095633","273823.911641","274590.372408","285365.978828","Mapping"
"Mixed","Both","done","42","m160done.wav","None","731.100628618","135","283074.149627","275356.997965","276123.978762","276873.601648","277640.477326","278407.005803","279173.751319","279939.905696","283840.9038","284589.767666","285356.942623","286123.678246","286890.190027","273057.095633","273823.911641","274590.372408","286133.128434","Mapping"
"Mixed","Both","done","42","m150romp.wav","space","305.269888137","135","283074.149627","275356.997965","276123.978762","276873.601648","277640.477326","278407.005803","279173.751319","279939.905696","283840.9038","284589.767666","285356.942623","286123.678246","286890.190027","287656.686968","273823.911641","274590.372408","286899.52242","Mapping"
"Mixed","Both","done","42","m160reek.wav","None","728.003640659","135","283074.149627","275356.997965","276123.978762","276873.601648","277640.477326","278407.005803","279173.751319","279939.905696","283840.9038","284589.767666","285356.942623","286123.678246","286890.190027","287656.686968","288423.637466","274590.372408","287665.407198","Mapping"
"Mixed","Both","done","42","m150done.wav","None","726.227440871","135","283074.149627","275356.997965","276123.978762","276873.601648","277640.477326","278407.005803","279173.751319","279939.905696","283840.9038","284589.767666","285356.942623","286123.678246","286890.190027","287656.686968","288423.637466","289190.629084","288432.712008","Mapping"
"Mixed","Both","done","42","m160cad.wav","space","308.580823708","135","283074.149627","289957.147976","276123.978762","276873.601648","277640.477326","278407.005803","279173.751319","279939.905696","283840.9038","284589.767666","285356.942623","286123.678246","286890.190027","287656.686968","288423.637466","289190.629084","289200.178826","Mapping"
"Mixed","Both","done","42","m150cad.wav","None","721.05373675","135","283074.149627","289957.147976","290724.010669","276873.601648","277640.477326","278407.005803","279173.751319","279939.905696","283840.9038","284589.767666","285356.942623","286123.678246","286890.190027","287656.686968","288423.637466","289190.629084","289967.176936","Mapping"
"Mixed","Both","done","42","m150jolt.wav","None","720.164554194","135","283074.149627","289957.147976","290724.010669","291473.308305","277640.477326","278407.005803","279173.751319","279939.905696","283840.9038","284589.767666","285356.942623","286123.678246","286890.190027","287656.686968","288423.637466","289190.629084","290733.594111","Mapping"
"Mixed","Both","done","42","m160lash.wav","None","736.519197933","135","283074.149627","289957.147976","290724.010669","291473.308305","292240.066497","278407.005803","279173.751319","279939.905696","283840.9038","284589.767666","285356.942623","286123.678246","286890.190027","287656.686968","288423.637466","289190.629084","291482.437571","Mapping"
"Mixed","Both","done","42","m150romp.wav","None","735.081851948","135","283074.149627","289957.147976","290724.010669","291473.308305","292240.066497","293006.780168","279173.751319","279939.905696","283840.9038","284589.767666","285356.942623","286123.678246","286890.190027","287656.686968","288423.637466","289190.629084","292249.030665","Mapping"
"Mixed","Both","done","42","m160done.wav","None","734.098990448","135","283074.149627","289957.147976","290724.010669","291473.308305","292240.066497","293006.780168","293773.318538","279939.905696","283840.9038","284589.767666","285356.942623","286123.678246","286890.190027","287656.686968","288423.637466","289190.629084","293015.906961","Mapping"
"Mixed","Both","done","42","m160greet.wav","space","318.405420519","135","283074.149627","289957.147976","290724.010669","291473.308305","292240.066497","293006.780168","293773.318538","294540.209675","283840.9038","284589.767666","285356.942623","286123.678246","286890.190027","287656.686968","288423.637466","289190.629084","293782.267866","Mapping"
"Mixed","Both","done","43","m160bluff.wav","None","729.445315432","135","297673.877925","289957.147976","290724.010669","291473.308305","292240.066497","293006.780168","293773.318538","294540.209675","283840.9038","284589.767666","285356.942623","286123.678246","286890.190027","287656.686968","288423.637466","289190.629084","294549.82187","Mapping"
"Mixed","Both","done","43","m160lash.wav","None","721.1570004","135","297673.877925","289957.147976","290724.010669","291473.308305","292240.066497","293006.780168","293773.318538","294540.209675","298440.420933","284589.767666","285356.942623","286123.678246","286890.190027","287656.686968","288423.637466","289190.629084","297683.47868","Mapping"
"Mixed","Both","done","43","m150gnash.wav","None","720.207219943","135","297673.877925","289957.147976","290724.010669","291473.308305","292240.066497","293006.780168","293773.318538","294540.209675","298440.420933","299190.523037","285356.942623","286123.678246","286890.190027","287656.686968","288423.637466","289190.629084","298450.039621","Mapping"
"Mixed","Both","done","43","m160lash.wav","None","735.990202986","135","297673.877925","289957.147976","290724.010669","291473.308305","292240.066497","293006.780168","293773.318538","294540.209675","298440.420933","299190.523037","299956.519427","286123.678246","286890.190027","287656.686968","288423.637466","289190.629084","299199.531726","Mapping"
"Mixed","Both","done","43","m150done.wav","None","735.190989915","135","297673.877925","289957.147976","290724.010669","291473.308305","292240.066497","293006.780168","293773.318538","294540.209675","298440.420933","299190.523037","299956.519427","300723.195379","286890.190027","287656.686968","288423.637466","289190.629084","299965.563362","Mapping"
"Mixed","Both","done","43","m160jolt.wav","space","381.992145441","135","297673.877925","289957.147976","290724.010669","291473.308305","292240.066497","293006.780168","293773.318538","294540.209675","298440.420933","299190.523037","299956.519427","300723.195379","301490.04385","287656.686968","288423.637466","289190.629084","300726.56784","Mapping"
"Mixed","Both","done","43","m160done.wav","None","730.447345879","135","297673.877925","289957.147976","290724.010669","291473.308305","292240.066497","293006.780168","293773.318538","294540.209675","298440.420933","299190.523037","299956.519427","300723.195379","301490.04385","302256.594278","288423.637466","289190.629084","301499.407778","Mapping"
"Mixed","Both","done","43","m160priest.wav","None","728.896842338","135","297673.877925","289957.147976","290724.010669","291473.308305","292240.066497","293006.780168","293773.318538","294540.209675","298440.420933","299190.523037","299956.519427","300723.195379","301490.04385","302256.594278","303023.431927","289190.629084","302266.277892","Mapping"
"Mixed","Both","done","43","m160done.wav","space","20.0576116331","135","297673.877925","289957.147976","290724.010669","291473.308305","292240.066497","293006.780168","293773.318538","294540.209675","298440.420933","299190.523037","299956.519427","300723.195379","301490.04385","302256.594278","303023.431927","303789.982664","303032.470606","Mapping"
"Mixed","Both","done","43","m160romp.wav","space","341.099042445","135","297673.877925","304556.92667","290724.010669","291473.308305","292240.066497","293006.780168","293773.318538","294540.209675","298440.420933","299190.523037","299956.519427","300723.195379","301490.04385","302256.594278","303023.431927","303789.982664","303799.387713","Mapping"
"Mixed","Both","done","43","m150priest.wav","None","722.154083662","135","297673.877925","304556.92667","305323.918597","291473.308305","292240.066497","293006.780168","293773.318538","294540.209675","298440.420933","299190.523037","299956.519427","300723.195379","301490.04385","302256.594278","303023.431927","303789.982664","304566.684176","Mapping"
"Mixed","Both","done","43","m150reek.wav","None","720.376647543","135","297673.877925","304556.92667","305323.918597","306090.602897","292240.066497","293006.780168","293773.318538","294540.209675","298440.420933","299190.523037","299956.519427","300723.195379","301490.04385","302256.594278","303023.431927","303789.982664","305333.676412","Mapping"
"Mixed","Both","done","43","m150done.wav","None","719.47664395","135","297673.877925","304556.92667","305323.918597","306090.602897","306839.601562","293006.780168","293773.318538","294540.209675","298440.420933","299190.523037","299956.519427","300723.195379","301490.04385","302256.594278","303023.431927","303789.982664","306100.104408","Mapping"
"Mixed","Both","done","43","m150cave.wav","space","283.710622694","135","297673.877925","304556.92667","305323.918597","306090.602897","306839.601562","307606.476313","293773.318538","294540.209675","298440.420933","299190.523037","299956.519427","300723.195379","301490.04385","302256.594278","303023.431927","303789.982664","306848.717225","Mapping"
"Mixed","Both","done","43","m150reek.wav","None","733.006681781","135","297673.877925","304556.92667","305323.918597","306090.602897","306839.601562","307606.476313","308373.310871","294540.209675","298440.420933","299190.523037","299956.519427","300723.195379","301490.04385","302256.594278","303023.431927","303789.982664","307615.918462","Mapping"
"Mixed","Both","done","43","m150romp.wav","None","731.186887715","135","297673.877925","304556.92667","305323.918597","306090.602897","306839.601562","307606.476313","308373.310871","309139.860371","298440.420933","299190.523037","299956.519427","300723.195379","301490.04385","302256.594278","303023.431927","303789.982664","308382.918119","Mapping"
"Mixed","Both","cave","17","m150dime.wav","None","730.155486148","135","312273.629721","304556.92667","305323.918597","306090.602897","306839.601562","307606.476313","308373.310871","309139.860371","298440.420933","299190.523037","299956.519427","300723.195379","301490.04385","302256.594278","303023.431927","303789.982664","309149.25027","Mapping"
"Mixed","Both","cave","17","m150cave.wav","None","720.573281404","135","312273.629721","304556.92667","305323.918597","306090.602897","306839.601562","307606.476313","308373.310871","309139.860371","313040.380802","299190.523037","299956.519427","300723.195379","301490.04385","302256.594278","303023.431927","303789.982664","312283.739375","Mapping"
"Mixed","Both","cave","17","m150greet.wav","space","586.205062922","135","312273.629721","304556.92667","305323.918597","306090.602897","306839.601562","307606.476313","308373.310871","309139.860371","313040.380802","313789.788194","299956.519427","300723.195379","301490.04385","302256.594278","303023.431927","303789.982664","313050.118521","Mapping"
"Mixed","Both","cave","17","m150cave.wav","None","734.371062834","135","312273.629721","304556.92667","305323.918597","306090.602897","306839.601562","307606.476313","308373.310871","309139.860371","313040.380802","313789.788194","314556.312033","300723.195379","301490.04385","302256.594278","303023.431927","303789.982664","313799.17933","Mapping"
"Mixed","Both","cave","17","m160priest.wav","space","423.049727455","135","312273.629721","304556.92667","305323.918597","306090.602897","306839.601562","307606.476313","308373.310871","309139.860371","313040.380802","313789.788194","314556.312033","315323.080738","301490.04385","302256.594278","303023.431927","303789.982664","314565.232299","Mapping"
"Mixed","Both","cave","17","m150gnash.wav","None","730.866275728","135","312273.629721","304556.92667","305323.918597","306090.602897","306839.601562","307606.476313","308373.310871","309139.860371","313040.380802","313789.788194","314556.312033","315323.080738","316089.795027","302256.594278","303023.431927","303789.982664","315332.131783","Mapping"
"Mixed","Both","cave","17","m160bluff.wav","None","728.801925667","135","312273.629721","304556.92667","305323.918597","306090.602897","306839.601562","307606.476313","308373.310871","309139.860371","313040.380802","313789.788194","314556.312033","315323.080738","316089.795027","316855.97352","303023.431927","303789.982664","316099.45298","Mapping"
"Mixed","Both","cave","17","m160done.wav","None","728.878600989","135","312273.629721","304556.92667","305323.918597","306090.602897","306839.601562","307606.476313","308373.310871","309139.860371","313040.380802","313789.788194","314556.312033","315323.080738","316089.795027","316855.97352","317622.975959","303789.982664","316864.831332","Mapping"
"Mixed","Both","cave","17","m160jaw.wav","None","726.859081537","135","312273.629721","304556.92667","305323.918597","306090.602897","306839.601562","307606.476313","308373.310871","309139.860371","313040.380802","313789.788194","314556.312033","315323.080738","316089.795027","316855.97352","317622.975959","318389.823193","317632.136142","Mapping"
"Mixed","Both","cave","17","m160cave.wav","None","725.28755432","135","312273.629721","319156.716803","305323.918597","306090.602897","306839.601562","307606.476313","308373.310871","309139.860371","313040.380802","313789.788194","314556.312033","315323.080738","316089.795027","316855.97352","317622.975959","318389.823193","318398.995125","Mapping"
"Mixed","Both","cave","17","m150reek.wav","space","357.085152064","135","312273.629721","319156.716803","319923.438513","306090.602897","306839.601562","307606.476313","308373.310871","309139.860371","313040.380802","313789.788194","314556.312033","315323.080738","316089.795027","316855.97352","317622.975959","318389.823193","319167.147379","Mapping"
"Mixed","Both","cave","17","m150lash.wav","None","720.817528199","135","312273.629721","319156.716803","319923.438513","320689.998834","306839.601562","307606.476313","308373.310871","309139.860371","313040.380802","313789.788194","314556.312033","315323.080738","316089.795027","316855.97352","317622.975959","318389.823193","319932.820374","Mapping"
"Mixed","Both","cave","17","m150bluff.wav","None","719.434287399","135","312273.629721","319156.716803","319923.438513","320689.998834","321439.635942","307606.476313","308373.310871","309139.860371","313040.380802","313789.788194","314556.312033","315323.080738","316089.795027","316855.97352","317622.975959","318389.823193","320699.499108","Mapping"
"Mixed","Both","cave","17","m160jaw.wav","None","735.791713465","135","312273.629721","319156.716803","319923.438513","320689.998834","321439.635942","322206.072285","308373.310871","309139.860371","313040.380802","313789.788194","314556.312033","315323.080738","316089.795027","316855.97352","317622.975959","318389.823193","321448.989668","Mapping"
"Mixed","Both","cave","17","m160cave.wav","None","735.272302292","135","312273.629721","319156.716803","319923.438513","320689.998834","321439.635942","322206.072285","322972.629206","309139.860371","313040.380802","313789.788194","314556.312033","315323.080738","316089.795027","316855.97352","317622.975959","318389.823193","322214.946793","Mapping"
"Mixed","Both","cave","17","m160gnash.wav","space","342.660676222","135","312273.629721","319156.716803","319923.438513","320689.998834","321439.635942","322206.072285","322972.629206","323739.609384","313040.380802","313789.788194","314556.312033","315323.080738","316089.795027","316855.97352","317622.975959","318389.823193","322981.497839","Mapping"
"Mixed","Both","done","39","m160knife.wav","None","730.842160061","135","326873.424183","319156.716803","319923.438513","320689.998834","321439.635942","322206.072285","322972.629206","323739.609384","313040.380802","313789.788194","314556.312033","315323.080738","316089.795027","316855.97352","317622.975959","318389.823193","323748.88087","Mapping"
"Mixed","Both","done","39","m150jaw.wav","None","720.669125207","135","326873.424183","319156.716803","319923.438513","320689.998834","321439.635942","322206.072285","322972.629206","323739.609384","327639.932254","313789.788194","314556.312033","315323.080738","316089.795027","316855.97352","317622.975959","318389.823193","326883.631227","Mapping"
"Mixed","Both","done","39","m160lash.wav","None","720.450848807","135","326873.424183","319156.716803","319923.438513","320689.998834","321439.635942","322206.072285","322972.629206","323739.609384","327639.932254","328406.568941","314556.312033","315323.080738","316089.795027","316855.97352","317622.975959","318389.823193","327649.351525","Mapping"
"Mixed","Both","done","39","m160park.wav","None","719.427176286","135","326873.424183","319156.716803","319923.438513","320689.998834","321439.635942","322206.072285","322972.629206","323739.609384","327639.932254","328406.568941","329155.527414","315323.080738","316089.795027","316855.97352","317622.975959","318389.823193","328415.996559","Mapping"
"Mixed","Both","done","39","m150done.wav","None","736.627100036","135","326873.424183","319156.716803","319923.438513","320689.998834","321439.635942","322206.072285","322972.629206","323739.609384","327639.932254","328406.568941","329155.527414","329922.706082","316089.795027","316855.97352","317622.975959","318389.823193","329164.370695","Mapping"
"Mixed","Both","done","39","m150cad.wav","space","391.735738609","135","326873.424183","319156.716803","319923.438513","320689.998834","321439.635942","322206.072285","322972.629206","323739.609384","327639.932254","328406.568941","329155.527414","329922.706082","330689.501374","316855.97352","317622.975959","318389.823193","329932.274683","Mapping"
"Mixed","Both","done","39","m150ball.wav","None","731.842644047","135","326873.424183","319156.716803","319923.438513","320689.998834","321439.635942","322206.072285","322972.629206","323739.609384","327639.932254","328406.568941","329155.527414","329922.706082","330689.501374","331456.126932","317622.975959","318389.823193","330698.878907","Mapping"
"Mixed","Both","done","39","m160done.wav","None","736.172305886","135","326873.424183","319156.716803","319923.438513","320689.998834","321439.635942","322206.072285","322972.629206","323739.609384","327639.932254","328406.568941","329155.527414","329922.706082","330689.501374","331456.126932","332222.868429","318389.823193","331460.290567","Mapping"
"Mixed","Both","done","39","m160knife.wav","space","388.105426915","135","326873.424183","319156.716803","319923.438513","320689.998834","321439.635942","322206.072285","322972.629206","323739.609384","327639.932254","328406.568941","329155.527414","329922.706082","330689.501374","331456.126932","332222.868429","332989.177083","332231.877735","Mapping"
"Mixed","Both","done","39","m150priest.wav","None","728.242322337","135","326873.424183","333756.052142","319923.438513","320689.998834","321439.635942","322206.072285","322972.629206","323739.609384","327639.932254","328406.568941","329155.527414","329922.706082","330689.501374","331456.126932","332222.868429","332989.177083","332997.858666","Mapping"
"Mixed","Both","done","39","m150done.wav","None","725.640629884","135","326873.424183","333756.052142","334522.868768","320689.998834","321439.635942","322206.072285","322972.629206","323739.609384","327639.932254","328406.568941","329155.527414","329922.706082","330689.501374","331456.126932","332222.868429","332989.177083","333765.862827","Mapping"
"Mixed","Both","done","39","m160depth.wav","space","368.004840333","135","326873.424183","333756.052142","334522.868768","335289.872753","321439.635942","322206.072285","322972.629206","323739.609384","327639.932254","328406.568941","329155.527414","329922.706082","330689.501374","331456.126932","332222.868429","332989.177083","334531.952896","Mapping"
"Mixed","Both","done","39","m160done.wav","None","722.005681135","135","326873.424183","333756.052142","334522.868768","335289.872753","336056.475741","322206.072285","322972.629206","323739.609384","327639.932254","328406.568941","329155.527414","329922.706082","330689.501374","331456.126932","332222.868429","332989.177083","335299.283367","Mapping"
"Mixed","Both","done","39","m150depth.wav","space","337.944239378","135","326873.424183","333756.052142","334522.868768","335289.872753","336056.475741","336805.895191","322972.629206","323739.609384","327639.932254","328406.568941","329155.527414","329922.706082","330689.501374","331456.126932","332222.868429","332989.177083","336065.977252","Mapping"
"Mixed","Both","done","39","m160ball.wav","None","736.195184756","135","326873.424183","333756.052142","334522.868768","335289.872753","336056.475741","336805.895191","337572.681209","323739.609384","327639.932254","328406.568941","329155.527414","329922.706082","330689.501374","331456.126932","332222.868429","332989.177083","336814.846992","Mapping"
"Mixed","Both","done","39","m150jaw.wav","None","734.807306435","135","326873.424183","333756.052142","334522.868768","335289.872753","336056.475741","336805.895191","337572.681209","338339.273375","327639.932254","328406.568941","329155.527414","329922.706082","330689.501374","331456.126932","332222.868429","332989.177083","337581.719887","Mapping"
"Mixed","Both","tile","34","m150reek.wav","None","733.766938094","135","341473.133931","333756.052142","334522.868768","335289.872753","336056.475741","336805.895191","337572.681209","338339.273375","327639.932254","328406.568941","329155.527414","329922.706082","330689.501374","331456.126932","332222.868429","332989.177083","338348.569904","Mapping"
"Mixed","Both","tile","34","m150tile.wav","None","720.399525948","135","341473.133931","333756.052142","334522.868768","335289.872753","336056.475741","336805.895191","337572.681209","338339.273375","342239.631181","328406.568941","329155.527414","329922.706082","330689.501374","331456.126932","332222.868429","332989.177083","341482.779826","Mapping"
"Mixed","Both","tile","34","m150ball.wav","space","370.652290527","135","341473.133931","333756.052142","334522.868768","335289.872753","336056.475741","336805.895191","337572.681209","338339.273375","342239.631181","342988.973647","329155.527414","329922.706082","330689.501374","331456.126932","332222.868429","332989.177083","342249.15588","Mapping"
"Mixed","Both","tile","34","m160tile.wav","None","735.280341003","135","341473.133931","333756.052142","334522.868768","335289.872753","336056.475741","336805.895191","337572.681209","338339.273375","342239.631181","342988.973647","343755.42854","329922.706082","330689.501374","331456.126932","332222.868429","332989.177083","342997.704698","Mapping"
"Mixed","Both","tile","34","m150bluff.wav","space","383.415887598","135","341473.133931","333756.052142","334522.868768","335289.872753","336056.475741","336805.895191","337572.681209","338339.273375","342239.631181","342988.973647","343755.42854","344522.553721","330689.501374","331456.126932","332222.868429","332989.177083","343764.393017","Mapping"
"Mixed","Both","tile","34","m150priest.wav","None","733.544952236","135","341473.133931","333756.052142","334522.868768","335289.872753","336056.475741","336805.895191","337572.681209","338339.273375","342239.631181","342988.973647","343755.42854","344522.553721","345289.262136","331456.126932","332222.868429","332989.177083","344531.459764","Mapping"
"Mixed","Both","tile","34","m150tile.wav","None","732.260028366","135","341473.133931","333756.052142","334522.868768","335289.872753","336056.475741","336805.895191","337572.681209","338339.273375","342239.631181","342988.973647","343755.42854","344522.553721","345289.262136","346055.864815","332222.868429","332989.177083","345298.595766","Mapping"
"Mixed","Both","tile","34","m160ball.wav","space","410.955490544","135","341473.133931","333756.052142","334522.868768","335289.872753","336056.475741","336805.895191","337572.681209","338339.273375","342239.631181","342988.973647","343755.42854","344522.553721","345289.262136","346055.864815","346822.499338","332989.177083","346064.748288","Mapping"
"Mixed","Both","tile","34","m150depth.wav","None","734.146293718","135","341473.133931","333756.052142","334522.868768","335289.872753","336056.475741","336805.895191","337572.681209","338339.273375","342239.631181","342988.973647","343755.42854","344522.553721","345289.262136","346055.864815","346822.499338","347589.175289","346826.670084","Mapping"
"Mixed","Both","tile","34","m160park.wav","None","727.896975819","135","341473.133931","348355.72108","334522.868768","335289.872753","336056.475741","336805.895191","337572.681209","338339.273375","342239.631181","342988.973647","343755.42854","344522.553721","345289.262136","346055.864815","346822.499338","347589.175289","347598.602908","Mapping"
"Mixed","Both","tile","34","m150cad.wav","None","727.617792785","135","341473.133931","348355.72108","349122.354366","335289.872753","336056.475741","336805.895191","337572.681209","338339.273375","342239.631181","342988.973647","343755.42854","344522.553721","345289.262136","346055.864815","346822.499338","347589.175289","348364.716783","Mapping"
"Mixed","Both","tile","34","m160tile.wav","None","726.819507312","135","341473.133931","348355.72108","349122.354366","349889.189543","336056.475741","336805.895191","337572.681209","338339.273375","342239.631181","342988.973647","343755.42854","344522.553721","345289.262136","346055.864815","346822.499338","347589.175289","349131.219598","Mapping"
"Mixed","Both","tile","34","m160ball.wav","space","353.316949215","135","341473.133931","348355.72108","349122.354366","349889.189543","350656.165083","336805.895191","337572.681209","338339.273375","342239.631181","342988.973647","343755.42854","344522.553721","345289.262136","346055.864815","346822.499338","347589.175289","349898.34076","Mapping"
"Mixed","Both","tile","34","m160greet.wav","None","722.096268553","135","341473.133931","348355.72108","349122.354366","349889.189543","350656.165083","351422.893286","337572.681209","338339.273375","342239.631181","342988.973647","343755.42854","344522.553721","345289.262136","346055.864815","346822.499338","347589.175289","350666.153542","Mapping"
"Mixed","Both","tile","34","m160bluff.wav","None","721.495545004","135","341473.133931","348355.72108","349122.354366","349889.189543","350656.165083","351422.893286","352189.646841","338339.273375","342239.631181","342988.973647","343755.42854","344522.553721","345289.262136","346055.864815","346822.499338","347589.175289","351432.364189","Mapping"
"Mixed","Both","tile","34","m160romp.wav","None","719.861255493","135","341473.133931","348355.72108","349122.354366","349889.189543","350656.165083","351422.893286","352189.646841","352956.168206","342239.631181","342988.973647","343755.42854","344522.553721","345289.262136","346055.864815","346822.499338","347589.175289","352199.697134","Mapping"
"Mixed","Both","tile","32","m160reek.wav","None","719.436760526","135","356072.772569","348355.72108","349122.354366","349889.189543","350656.165083","351422.893286","352189.646841","352956.168206","342239.631181","342988.973647","343755.42854","344522.553721","345289.262136","346055.864815","346822.499338","347589.175289","352965.579748","Mapping"
"Mixed","Both","tile","32","m150tile.wav","None","721.308804117","135","356072.772569","348355.72108","349122.354366","349889.189543","350656.165083","351422.893286","352189.646841","352956.168206","356839.43028","342988.973647","343755.42854","344522.553721","345289.262136","346055.864815","346822.499338","347589.175289","356082.306853","Mapping"
"Mixed","Both","tile","32","m160park.wav","space","402.583079878","135","356072.772569","348355.72108","349122.354366","349889.189543","350656.165083","351422.893286","352189.646841","352956.168206","356839.43028","357588.578276","343755.42854","344522.553721","345289.262136","346055.864815","346822.499338","347589.175289","356848.975385","Mapping"
"Mixed","Both","tile","32","m150tile.wav","None","735.442657489","135","356072.772569","348355.72108","349122.354366","349889.189543","350656.165083","351422.893286","352189.646841","352956.168206","356839.43028","357588.578276","358355.407269","344522.553721","345289.262136","346055.864815","346822.499338","347589.175289","357598.18707","Mapping"
"Mixed","Both","tile","32","m150cad.wav","space","463.279035408","135","356072.772569","348355.72108","349122.354366","349889.189543","350656.165083","351422.893286","352189.646841","352956.168206","356839.43028","357588.578276","358355.407269","359122.093424","345289.262136","346055.864815","346822.499338","347589.175289","358364.24684","Mapping"
"Mixed","Both","tile","32","m150cave.wav","None","732.360818423","135","356072.772569","348355.72108","349122.354366","349889.189543","350656.165083","351422.893286","352189.646841","352956.168206","356839.43028","357588.578276","358355.407269","359122.093424","359888.900466","346055.864815","346822.499338","347589.175289","359130.998231","Mapping"
"Mixed","Both","tile","32","m150priest.wav","None","730.923472438","135","356072.772569","348355.72108","349122.354366","349889.189543","350656.165083","351422.893286","352189.646841","352956.168206","356839.43028","357588.578276","358355.407269","359122.093424","359888.900466","360655.533443","346822.499338","347589.175289","359898.093112","Mapping"
"Mixed","Both","tile","32","m160tile.wav","None","730.413645972","135","356072.772569","348355.72108","349122.354366","349889.189543","350656.165083","351422.893286","352189.646841","352956.168206","356839.43028","357588.578276","358355.407269","359122.093424","359888.900466","360655.533443","361422.260408","347589.175289","360664.571194","Mapping"
"Mixed","Both","tile","32","m150bluff.wav","space","347.899925895","135","356072.772569","348355.72108","349122.354366","349889.189543","350656.165083","351422.893286","352189.646841","352956.168206","356839.43028","357588.578276","358355.407269","359122.093424","359888.900466","360655.533443","361422.260408","362188.996649","361431.577343","Mapping"
"Mixed","Both","tile","32","m150done.wav","None","726.965437178","135","356072.772569","362955.179779","349122.354366","349889.189543","350656.165083","351422.893286","352189.646841","352956.168206","356839.43028","357588.578276","358355.407269","359122.093424","359888.900466","360655.533443","361422.260408","362188.996649","362198.07923","Mapping"
"Mixed","Both","tile","32","m160priest.wav","None","726.80683108","135","356072.772569","362955.179779","363722.477788","349889.189543","350656.165083","351422.893286","352189.646841","352956.168206","356839.43028","357588.578276","358355.407269","359122.093424","359888.900466","360655.533443","361422.260408","362188.996649","362963.966482","Mapping"
"Mixed","Both","tile","32","m160park.wav","None","724.848219194","135","356072.772569","362955.179779","363722.477788","364489.41561","350656.165083","351422.893286","352189.646841","352956.168206","356839.43028","357588.578276","358355.407269","359122.093424","359888.900466","360655.533443","361422.260408","362188.996649","363731.643846","Mapping"
"Mixed","Both","tile","32","m150dime.wav","None","722.776449751","135","356072.772569","362955.179779","363722.477788","364489.41561","365255.926155","351422.893286","352189.646841","352956.168206","356839.43028","357588.578276","358355.407269","359122.093424","359888.900466","360655.533443","361422.260408","362188.996649","364499.323065","Mapping"
"Mixed","Both","tile","32","m160tile.wav","None","722.451199777","135","356072.772569","362955.179779","363722.477788","364489.41561","365255.926155","366022.60087","352189.646841","352956.168206","356839.43028","357588.578276","358355.407269","359122.093424","359888.900466","360655.533443","361422.260408","362188.996649","365265.390564","Mapping"
"Mixed","Both","tile","32","m160priest.wav","space","546.597193461","135","356072.772569","362955.179779","363722.477788","364489.41561","365255.926155","366022.60087","366789.17665","352956.168206","356839.43028","357588.578276","358355.407269","359122.093424","359888.900466","360655.533443","361422.260408","362188.996649","366032.744533","Mapping"
"Mixed","Both","tile","32","m160knife.wav","None","719.916288275","135","356072.772569","362955.179779","363722.477788","364489.41561","365255.926155","366022.60087","366789.17665","367555.876409","356839.43028","357588.578276","358355.407269","359122.093424","359888.900466","360655.533443","361422.260408","362188.996649","366798.810796","Mapping"
"Mixed","Both","done","48","m160park.wav","None","719.093578402","135","370672.642778","362955.179779","363722.477788","364489.41561","365255.926155","366022.60087","366789.17665","367555.876409","356839.43028","357588.578276","358355.407269","359122.093424","359888.900466","360655.533443","361422.260408","362188.996649","367565.385339","Mapping"
"Mixed","Both","done","48","m150jaw.wav","None","720.429824665","135","370672.642778","362955.179779","363722.477788","364489.41561","365255.926155","366022.60087","366789.17665","367555.876409","371439.023161","357588.578276","358355.407269","359122.093424","359888.900466","360655.533443","361422.260408","362188.996649","370682.966381","Mapping"
"Mixed","Both","done","48","m150done.wav","None","720.158989076","135","370672.642778","362955.179779","363722.477788","364489.41561","365255.926155","366022.60087","366789.17665","367555.876409","371439.023161","372205.765895","358355.407269","359122.093424","359888.900466","360655.533443","361422.260408","362188.996649","371449.00389","Mapping"
"Mixed","Both","done","48","m150priest.wav","space","412.060166243","135","370672.642778","362955.179779","363722.477788","364489.41561","365255.926155","366022.60087","366789.17665","367555.876409","371439.023161","372205.765895","372954.905234","359122.093424","359888.900466","360655.533443","361422.260408","362188.996649","372215.215773","Mapping"
"Mixed","Both","done","48","m160jaw.wav","None","735.028055962","135","370672.642778","362955.179779","363722.477788","364489.41561","365255.926155","366022.60087","366789.17665","367555.876409","371439.023161","372205.765895","372954.905234","373722.035979","359888.900466","360655.533443","361422.260408","362188.996649","372963.720998","Mapping"
"Mixed","Both","done","48","m160done.wav","None","733.249073382","135","370672.642778","362955.179779","363722.477788","364489.41561","365255.926155","366022.60087","366789.17665","367555.876409","371439.023161","372205.765895","372954.905234","373722.035979","374488.703584","360655.533443","361422.260408","362188.996649","373731.206366","Mapping"
"Mixed","Both","done","48","m150park.wav","space","313.262324315","135","370672.642778","362955.179779","363722.477788","364489.41561","365255.926155","366022.60087","366789.17665","367555.876409","371439.023161","372205.765895","372954.905234","373722.035979","374488.703584","375255.114266","361422.260408","362188.996649","374497.988055","Mapping"
"Mixed","Both","done","48","m150cling.wav","None","733.048729133","135","370672.642778","362955.179779","363722.477788","364489.41561","365255.926155","366022.60087","366789.17665","367555.876409","371439.023161","372205.765895","372954.905234","373722.035979","374488.703584","375255.114266","376022.07744","362188.996649","375263.96002","Mapping"
"Mixed","Both","done","48","m160depth.wav","None","731.826258358","135","370672.642778","362955.179779","363722.477788","364489.41561","365255.926155","366022.60087","366789.17665","367555.876409","371439.023161","372205.765895","372954.905234","373722.035979","374488.703584","375255.114266","376022.07744","376788.763904","376031.083346","Mapping"
"Mixed","Both","done","48","m160lash.wav","None","730.071391445","135","370672.642778","377555.152016","363722.477788","364489.41561","365255.926155","366022.60087","366789.17665","367555.876409","371439.023161","372205.765895","372954.905234","373722.035979","374488.703584","375255.114266","376022.07744","376788.763904","376798.50657","Mapping"
"Mixed","Both","done","48","m150tile.wav","None","729.94463006","135","370672.642778","377555.152016","378321.764278","364489.41561","365255.926155","366022.60087","366789.17665","367555.876409","371439.023161","372205.765895","372954.905234","373722.035979","374488.703584","375255.114266","376022.07744","376788.763904","377564.370633","Mapping"
"Mixed","Both","done","48","m150done.wav","space","424.512116704","135","370672.642778","377555.152016","378321.764278","379088.5639","365255.926155","366022.60087","366789.17665","367555.876409","371439.023161","372205.765895","372954.905234","373722.035979","374488.703584","375255.114266","376022.07744","376788.763904","378330.650844","Mapping"
"Mixed","Both","done","48","m150cave.wav","None","725.988140795","135","370672.642778","377555.152016","378321.764278","379088.5639","379855.222538","366022.60087","366789.17665","367555.876409","371439.023161","372205.765895","372954.905234","373722.035979","374488.703584","375255.114266","376022.07744","376788.763904","379098.164346","Mapping"
"Mixed","Both","done","48","m160jaw.wav","None","725.985667203","135","370672.642778","377555.152016","378321.764278","379088.5639","379855.222538","380622.344936","366789.17665","367555.876409","371439.023161","372205.765895","372954.905234","373722.035979","374488.703584","375255.114266","376022.07744","376788.763904","379864.117451","Mapping"
"Mixed","Both","done","48","m160done.wav","None","723.914206959","135","370672.642778","377555.152016","378321.764278","379088.5639","379855.222538","380622.344936","381388.872486","367555.876409","371439.023161","372205.765895","372954.905234","373722.035979","374488.703584","375255.114266","376022.07744","376788.763904","380631.84521","Mapping"
"Mixed","Both","done","48","m160ball.wav","space","412.616369314","135","370672.642778","377555.152016","378321.764278","379088.5639","379855.222538","380622.344936","381388.872486","382155.000892","371439.023161","372205.765895","372954.905234","373722.035979","374488.703584","375255.114266","376022.07744","376788.763904","381398.508486","Mapping"
"Mixed","Both","cave","15","m150dime.wav","None","721.854494885","135","385272.527828","377555.152016","378321.764278","379088.5639","379855.222538","380622.344936","381388.872486","382155.000892","371439.023161","372205.765895","372954.905234","373722.035979","374488.703584","375255.114266","376022.07744","376788.763904","382163.897042","Mapping"
"Mixed","Both","cave","15","m150reek.wav","None","720.140748192","135","385272.527828","377555.152016","378321.764278","379088.5639","379855.222538","380622.344936","381388.872486","382155.000892","386038.780522","372205.765895","372954.905234","373722.035979","374488.703584","375255.114266","376022.07744","376788.763904","385281.971832","Mapping"
"Mixed","Both","cave","15","m150cave.wav","None","718.747613486","135","385272.527828","377555.152016","378321.764278","379088.5639","379855.222538","380622.344936","381388.872486","382155.000892","386038.780522","386788.355486","372954.905234","373722.035979","374488.703584","375255.114266","376022.07744","376788.763904","386049.008899","Mapping"
"Mixed","Both","cave","15","m160bluff.wav","space","405.520843808","135","385272.527828","377555.152016","378321.764278","379088.5639","379855.222538","380622.344936","381388.872486","382155.000892","386038.780522","386788.355486","387554.950126","373722.035979","374488.703584","375255.114266","376022.07744","376788.763904","386797.50825","Mapping"
"Mixed","Both","cave","15","m160knife.wav","None","733.44539851","135","385272.527828","377555.152016","378321.764278","379088.5639","379855.222538","380622.344936","381388.872486","382155.000892","386038.780522","386788.355486","387554.950126","388321.841881","374488.703584","375255.114266","376022.07744","376788.763904","387564.499867","Mapping"
"Mixed","Both","cave","15","m150gnash.wav","None","732.210560236","135","385272.527828","377555.152016","378321.764278","379088.5639","379855.222538","380622.344936","381388.872486","382155.000892","386038.780522","386788.355486","387554.950126","388321.841881","389088.453216","375255.114266","376022.07744","376788.763904","388331.434289","Mapping"
"Mixed","Both","cave","15","m160cad.wav","None","731.466999277","135","385272.527828","377555.152016","378321.764278","379088.5639","379855.222538","380622.344936","381388.872486","382155.000892","386038.780522","386788.355486","387554.950126","388321.841881","389088.453216","389855.003953","376022.07744","376788.763904","389097.998629","Mapping"
"Mixed","Both","cave","15","m160done.wav","None","730.53082265","135","385272.527828","377555.152016","378321.764278","379088.5639","379855.222538","380622.344936","381388.872486","382155.000892","386038.780522","386788.355486","387554.950126","388321.841881","389088.453216","389855.003953","390621.89107","376788.763904","389864.644591","Mapping"
"Mixed","Both","cave","15","m150ball.wav","None","730.041092262","135","385272.527828","377555.152016","378321.764278","379088.5639","379855.222538","380622.344936","381388.872486","382155.000892","386038.780522","386788.355486","387554.950126","388321.841881","389088.453216","389855.003953","390621.89107","391388.370697","390630.938096","Mapping"
"Mixed","Both","cave","15","m160cave.wav","None","729.107080027","135","385272.527828","392154.927309","378321.764278","379088.5639","379855.222538","380622.344936","381388.872486","382155.000892","386038.780522","386788.355486","387554.950126","388321.841881","389088.453216","389855.003953","390621.89107","391388.370697","391397.554996","Mapping"
"Mixed","Both","cave","15","m150bluff.wav","space","375.0181254","135","385272.527828","392154.927309","392921.848744","379088.5639","379855.222538","380622.344936","381388.872486","382155.000892","386038.780522","386788.355486","387554.950126","388321.841881","389088.453216","389855.003953","390621.89107","391388.370697","392163.921157","Mapping"
"Mixed","Both","cave","15","m150park.wav","None","724.980236031","135","385272.527828","392154.927309","392921.848744","393688.884265","379855.222538","380622.344936","381388.872486","382155.000892","386038.780522","386788.355486","387554.950126","388321.841881","389088.453216","389855.003953","390621.89107","391388.370697","392931.463722","Mapping"
"Mixed","Both","cave","15","m160cave.wav","None","723.889472894","135","385272.527828","392154.927309","392921.848744","393688.884265","394455.241769","380622.344936","381388.872486","382155.000892","386038.780522","386788.355486","387554.950126","388321.841881","389088.453216","389855.003953","390621.89107","391388.370697","393698.239537","Mapping"
"Mixed","Both","cave","15","m160romp.wav","space","386.232455727","135","385272.527828","392154.927309","392921.848744","393688.884265","394455.241769","395222.155784","381388.872486","382155.000892","386038.780522","386788.355486","387554.950126","388321.841881","389088.453216","389855.003953","390621.89107","391388.370697","394464.619301","Mapping"
