"Condition","Talker","Target","Trial","current_stimulus","response_response","response_time_response","subject_nr","time_Audio1","time_Audio10","time_Audio11","time_Audio12","time_Audio13","time_Audio14","time_Audio15","time_Audio16","time_Audio2","time_Audio3","time_Audio4","time_Audio5","time_Audio6","time_Audio7","time_Audio8","time_Audio9","time_response","title"
"Mixed","Both","done","40","m150jaw.wav","NA","NA","148","250556.247726","NA","NA","NA","NA","NA","NA","NA","NA","NA","NA","NA","NA","NA","NA","NA","NA","Mapping"
"Mixed","Both","done","40","m160lash.wav","None","719.209518284","148","250556.247726","NA","NA","NA","NA","NA","NA","NA","251322.602138","NA","NA","NA","NA","NA","NA","NA","250569.893703","Mapping"
"Mixed","Both","done","40","m150dime.wav","None","724.600571208","148","250556.247726","NA","NA","NA","NA","NA","NA","NA","251322.602138","252089.238206","NA","NA","NA","NA","NA","NA","251331.485921","Mapping"
"Mixed","Both","done","40","m160park.wav","space","704.280162696","148","250556.247726","NA","NA","NA","NA","NA","NA","NA","251322.602138","252089.238206","252856.004747","NA","NA","NA","NA","NA","252099.203168","Mapping"
"Mixed","Both","done","40","m150done.wav","None","723.771987483","148","250556.247726","NA","NA","NA","NA","NA","NA","NA","251322.602138","252089.238206","252856.004747","253622.281247","NA","NA","NA","NA","252865.635491","Mapping"
"Mixed","Both","done","40","m160priest.wav","None","726.161277853","148","250556.247726","NA","NA","NA","NA","NA","NA","NA","251322.602138","252089.238206","252856.004747","253622.281247","254389.107457","NA","NA","NA","253631.063311","Mapping"
"Mixed","Both","done","40","m160done.wav","space","277.495623101","148","250556.247726","NA","NA","NA","NA","NA","NA","NA","251322.602138","252089.238206","252856.004747","253622.281247","254389.107457","255155.395397","NA","NA","254397.966815","Mapping"
"Mixed","Both","done","40","m160cad.wav","None","725.913630333","148","250556.247726","NA","NA","NA","NA","NA","NA","NA","251322.602138","252089.238206","252856.004747","253622.281247","254389.107457","255155.395397","255922.042287","NA","255164.172824","Mapping"
"Mixed","Both","done","40","m150reek.wav","space","240.514489356","148","250556.247726","NA","NA","NA","NA","NA","NA","NA","251322.602138","252089.238206","252856.004747","253622.281247","254389.107457","255155.395397","255922.042287","256688.793987","255930.923287","Mapping"
"Mixed","Both","done","40","m160done.wav","None","725.58466997","148","250556.247726","257456.056749","NA","NA","NA","NA","NA","NA","251322.602138","252089.238206","252856.004747","253622.281247","254389.107457","255155.395397","255922.042287","256688.793987","256697.498139","Mapping"
"Mixed","Both","done","40","m150park.wav","space","385.188687127","148","250556.247726","257456.056749","258222.285019","NA","NA","NA","NA","NA","251322.602138","252089.238206","252856.004747","253622.281247","254389.107457","255155.395397","255922.042287","256688.793987","257466.210925","Mapping"
"Mixed","Both","done","40","m150cave.wav","None","721.467719413","148","250556.247726","257456.056749","258222.285019","258989.120504","NA","NA","NA","NA","251322.602138","252089.238206","252856.004747","253622.281247","254389.107457","255155.395397","255922.042287","256688.793987","258231.171584","Mapping"
"Mixed","Both","done","40","m160cling.wav","None","721.258718055","148","250556.247726","257456.056749","258222.285019","258989.120504","259756.384813","NA","NA","NA","251322.602138","252089.238206","252856.004747","253622.281247","254389.107457","255155.395397","255922.042287","256688.793987","258998.056537","Mapping"
"Mixed","Both","done","40","m150done.wav","None","720.209384337","148","250556.247726","257456.056749","258222.285019","258989.120504","259756.384813","260505.466028","NA","NA","251322.602138","252089.238206","252856.004747","253622.281247","254389.107457","255155.395397","255922.042287","256688.793987","259765.786461","Mapping"
"Mixed","Both","done","40","m150cling.wav","space","353.183386382","148","250556.247726","257456.056749","258222.285019","258989.120504","259756.384813","260505.466028","261272.461974","NA","251322.602138","252089.238206","252856.004747","253622.281247","254389.107457","255155.395397","255922.042287","256688.793987","260514.189968","Mapping"
"Mixed","Both","done","40","m160reek.wav","None","734.155569226","148","250556.247726","257456.056749","258222.285019","258989.120504","259756.384813","260505.466028","261272.461974","262039.160187","251322.602138","252089.238206","252856.004747","253622.281247","254389.107457","255155.395397","255922.042287","256688.793987","261281.512092","Mapping"
"Mixed","Both","ball","3","m150romp.wav","None","734.036228154","148","265206.453805","257456.056749","258222.285019","258989.120504","259756.384813","260505.466028","261272.461974","262039.160187","251322.602138","252089.238206","252856.004747","253622.281247","254389.107457","255155.395397","255922.042287","256688.793987","262048.422088","Mapping"
"Mixed","Both","ball","3","m160knife.wav","None","722.905684263","148","265206.453805","257456.056749","258222.285019","258989.120504","259756.384813","260505.466028","261272.461974","262039.160187","265972.497498","252089.238206","252856.004747","253622.281247","254389.107457","255155.395397","255922.042287","256688.793987","265216.111448","Mapping"
"Mixed","Both","ball","3","m160jaw.wav","None","725.765535608","148","265206.453805","257456.056749","258222.285019","258989.120504","259756.384813","260505.466028","261272.461974","262039.160187","265972.497498","266739.118726","252856.004747","253622.281247","254389.107457","255155.395397","255922.042287","256688.793987","265981.510825","Mapping"
"Mixed","Both","ball","3","m150ball.wav","None","726.929573342","148","265206.453805","257456.056749","258222.285019","258989.120504","259756.384813","260505.466028","261272.461974","262039.160187","265972.497498","266739.118726","267506.378707","253622.281247","254389.107457","255155.395397","255922.042287","256688.793987","266748.198834","Mapping"
"Mixed","Both","ball","3","m150knife.wav","space","319.713841658","148","265206.453805","257456.056749","258222.285019","258989.120504","259756.384813","260505.466028","261272.461974","262039.160187","265972.497498","266739.118726","267506.378707","268272.433839","254389.107457","255155.395397","255922.042287","256688.793987","267515.515702","Mapping"
"Mixed","Both","ball","3","m150ball.wav","None","727.599860635","148","265206.453805","257456.056749","258222.285019","258989.120504","259756.384813","260505.466028","261272.461974","262039.160187","265972.497498","266739.118726","267506.378707","268272.433839","269039.650844","255155.395397","255922.042287","256688.793987","268281.514875","Mapping"
"Mixed","Both","ball","3","m160depth.wav","space","466.068705078","148","265206.453805","257456.056749","258222.285019","258989.120504","259756.384813","260505.466028","261272.461974","262039.160187","265972.497498","266739.118726","267506.378707","268272.433839","269039.650844","269805.572724","255922.042287","256688.793987","269049.086501","Mapping"
"Mixed","Both","ball","3","m150cave.wav","None","724.554195534","148","265206.453805","257456.056749","258222.285019","258989.120504","259756.384813","260505.466028","261272.461974","262039.160187","265972.497498","266739.118726","267506.378707","268272.433839","269039.650844","269805.572724","270572.180039","256688.793987","269814.572137","Mapping"
"Mixed","Both","ball","3","m160ball.wav","None","721.290254034","148","265206.453805","257456.056749","258222.285019","258989.120504","259756.384813","260505.466028","261272.461974","262039.160187","265972.497498","266739.118726","267506.378707","268272.433839","269039.650844","269805.572724","270572.180039","271338.874232","270580.956848","Mapping"
"Mixed","Both","ball","3","m160cave.wav","space","383.416815195","148","265206.453805","272105.605526","258222.285019","258989.120504","259756.384813","260505.466028","261272.461974","262039.160187","265972.497498","266739.118726","267506.378707","268272.433839","269039.650844","269805.572724","270572.180039","271338.874232","271347.739774","Mapping"
"Mixed","Both","ball","3","m160bluff.wav","None","720.634806901","148","265206.453805","272105.605526","272872.144824","258989.120504","259756.384813","260505.466028","261272.461974","262039.160187","265972.497498","266739.118726","267506.378707","268272.433839","269039.650844","269805.572724","270572.180039","271338.874232","272114.715933","Mapping"
"Mixed","Both","ball","3","m160done.wav","None","720.807016362","148","265206.453805","272105.605526","272872.144824","273622.267643","259756.384813","260505.466028","261272.461974","262039.160187","265972.497498","266739.118726","267506.378707","268272.433839","269039.650844","269805.572724","270572.180039","271338.874232","272881.07251","Mapping"
"Mixed","Both","ball","3","m160ball.wav","None","733.947186265","148","265206.453805","272105.605526","272872.144824","273622.267643","274388.65761","260505.466028","261272.461974","262039.160187","265972.497498","266739.118726","267506.378707","268272.433839","269039.650844","269805.572724","270572.180039","271338.874232","273631.326418","Mapping"
"Mixed","Both","ball","3","m150jolt.wav","space","405.661517754","148","265206.453805","272105.605526","272872.144824","273622.267643","274388.65761","275155.698078","261272.461974","262039.160187","265972.497498","266739.118726","267506.378707","268272.433839","269039.650844","269805.572724","270572.180039","271338.874232","274397.47121","Mapping"
"Mixed","Both","ball","3","m150greet.wav","None","730.297087692","148","265206.453805","272105.605526","272872.144824","273622.267643","274388.65761","275155.698078","275922.171521","262039.160187","265972.497498","266739.118726","267506.378707","268272.433839","269039.650844","269805.572724","270572.180039","271338.874232","275164.840329","Mapping"
"Mixed","Both","ball","3","m150gnash.wav","None","731.048378628","148","265206.453805","272105.605526","272872.144824","273622.267643","274388.65761","275155.698078","275922.171521","276688.944245","265972.497498","266739.118726","267506.378707","268272.433839","269039.650844","269805.572724","270572.180039","271338.874232","275931.013566","Mapping"
"Mixed","Both","cave","15","m150cling.wav","None","730.950061232","148","279822.425445","272105.605526","272872.144824","273622.267643","274388.65761","275155.698078","275922.171521","276688.944245","265972.497498","266739.118726","267506.378707","268272.433839","269039.650844","269805.572724","270572.180039","271338.874232","276697.985088","Mapping"
"Mixed","Both","cave","15","m150jolt.wav","None","719.880733173","148","279822.425445","272105.605526","272872.144824","273622.267643","274388.65761","275155.698078","275922.171521","276688.944245","280571.777496","266739.118726","267506.378707","268272.433839","269039.650844","269805.572724","270572.180039","271338.874232","279831.968385","Mapping"
"Mixed","Both","cave","15","m160dime.wav","None","734.454848804","148","279822.425445","272105.605526","272872.144824","273622.267643","274388.65761","275155.698078","275922.171521","276688.944245","280571.777496","281338.590411","267506.378707","268272.433839","269039.650844","269805.572724","270572.180039","271338.874232","280580.627888","Mapping"
"Mixed","Both","cave","15","m160jolt.wav","None","739.69100602","148","279822.425445","272105.605526","272872.144824","273622.267643","274388.65761","275155.698078","275922.171521","276688.944245","280571.777496","281338.590411","282105.167428","268272.433839","269039.650844","269805.572724","270572.180039","271338.874232","281341.996882","Mapping"
"Mixed","Both","cave","15","m150cave.wav","None","734.458867926","148","279822.425445","272105.605526","272872.144824","273622.267643","274388.65761","275155.698078","275922.171521","276688.944245","280571.777496","281338.590411","282105.167428","282871.782473","269039.650844","269805.572724","270572.180039","271338.874232","282113.916721","Mapping"
"Mixed","Both","cave","15","m150bluff.wav","space","346.290988382","148","279822.425445","272105.605526","272872.144824","273622.267643","274388.65761","275155.698078","275922.171521","276688.944245","280571.777496","281338.590411","282105.167428","282871.782473","283638.824177","269805.572724","270572.180039","271338.874232","282880.653889","Mapping"
"Mixed","Both","cave","15","m150cave.wav","None","730.298633687","148","279822.425445","272105.605526","272872.144824","273622.267643","274388.65761","275155.698078","275922.171521","276688.944245","280571.777496","281338.590411","282105.167428","282871.782473","283638.824177","284405.093876","270572.180039","271338.874232","283647.810915","Mapping"
"Mixed","Both","cave","15","m150depth.wav","space","493.083331734","148","279822.425445","272105.605526","272872.144824","273622.267643","274388.65761","275155.698078","275922.171521","276688.944245","280571.777496","281338.590411","282105.167428","282871.782473","283638.824177","284405.093876","285171.78034","271338.874232","284413.841932","Mapping"
"Mixed","Both","cave","15","m160jolt.wav","None","727.437853813","148","279822.425445","272105.605526","272872.144824","273622.267643","274388.65761","275155.698078","275922.171521","276688.944245","280571.777496","281338.590411","282105.167428","282871.782473","283638.824177","284405.093876","285171.78034","285938.587382","285180.49315","Mapping"
"Mixed","Both","cave","15","m160cave.wav","None","723.545981571","148","279822.425445","286705.287449","272872.144824","273622.267643","274388.65761","275155.698078","275922.171521","276688.944245","280571.777496","281338.590411","282105.167428","282871.782473","283638.824177","284405.093876","285171.78034","285938.587382","285947.72314","Mapping"
"Mixed","Both","cave","15","m160bluff.wav","space","352.642333135","148","279822.425445","286705.287449","287455.03926","273622.267643","274388.65761","275155.698078","275922.171521","276688.944245","280571.777496","281338.590411","282105.167428","282871.782473","283638.824177","284405.093876","285171.78034","285938.587382","286714.263366","Mapping"
"Mixed","Both","cave","15","m150knife.wav","None","733.894317877","148","279822.425445","286705.287449","287455.03926","288221.998106","274388.65761","275155.698078","275922.171521","276688.944245","280571.777496","281338.590411","282105.167428","282871.782473","283638.824177","284405.093876","285171.78034","285938.587382","287463.832455","Mapping"
"Mixed","Both","cave","15","m160cave.wav","None","729.530338198","148","279822.425445","286705.287449","287455.03926","288221.998106","288988.738676","275155.698078","275922.171521","276688.944245","280571.777496","281338.590411","282105.167428","282871.782473","283638.824177","284405.093876","285171.78034","285938.587382","288231.724695","Mapping"
"Mixed","Both","cave","15","m160knife.wav","space","413.002835587","148","279822.425445","286705.287449","287455.03926","288221.998106","288988.738676","289755.728438","275922.171521","276688.944245","280571.777496","281338.590411","282105.167428","282871.782473","283638.824177","284405.093876","285171.78034","285938.587382","288997.848155","Mapping"
"Mixed","Both","cave","15","m150bluff.wav","None","721.800080501","148","279822.425445","286705.287449","287455.03926","288221.998106","288988.738676","289755.728438","290522.353995","276688.944245","280571.777496","281338.590411","282105.167428","282871.782473","283638.824177","284405.093876","285171.78034","285938.587382","289765.712878","Mapping"
"Mixed","Both","cave","15","m160tile.wav","None","719.064516015","148","279822.425445","286705.287449","287455.03926","288221.998106","288988.738676","289755.728438","290522.353995","291289.188862","280571.777496","281338.590411","282105.167428","282871.782473","283638.824177","284405.093876","285171.78034","285938.587382","290531.920433","Mapping"
"Mixed","Both","ball","5","m150park.wav","None","718.950430863","148","294405.508786","286705.287449","287455.03926","288221.998106","288988.738676","289755.728438","290522.353995","291289.188862","280571.777496","281338.590411","282105.167428","282871.782473","283638.824177","284405.093876","285171.78034","285938.587382","291298.921944","Mapping"
"Mixed","Both","ball","5","m160knife.wav","None","719.733875711","148","294405.508786","286705.287449","287455.03926","288221.998106","288988.738676","289755.728438","290522.353995","291289.188862","295154.834248","281338.590411","282105.167428","282871.782473","283638.824177","284405.093876","285171.78034","285938.587382","294414.966085","Mapping"
"Mixed","Both","ball","5","m150ball.wav","None","734.440935776","148","294405.508786","286705.287449","287455.03926","288221.998106","288988.738676","289755.728438","290522.353995","291289.188862","295154.834248","295922.07475","282105.167428","282871.782473","283638.824177","284405.093876","285171.78034","285938.587382","295163.746784","Mapping"
"Mixed","Both","ball","5","m160jaw.wav","space","351.453562267","148","294405.508786","286705.287449","287455.03926","288221.998106","288988.738676","289755.728438","290522.353995","291289.188862","295154.834248","295922.07475","296688.256335","282871.782473","283638.824177","284405.093876","285171.78034","285938.587382","295931.231533","Mapping"
"Mixed","Both","ball","5","m160lash.wav","None","727.688593324","148","294405.508786","286705.287449","287455.03926","288221.998106","288988.738676","289755.728438","290522.353995","291289.188862","295154.834248","295922.07475","296688.256335","297455.023183","283638.824177","284405.093876","285171.78034","285938.587382","296696.993569","Mapping"
"Mixed","Both","ball","5","m160ball.wav","None","724.169583991","148","294405.508786","286705.287449","287455.03926","288221.998106","288988.738676","289755.728438","290522.353995","291289.188862","295154.834248","295922.07475","296688.256335","297455.023183","298221.76839","284405.093876","285171.78034","285938.587382","297463.987042","Mapping"
"Mixed","Both","ball","5","m160park.wav","space","388.175609056","148","294405.508786","286705.287449","287455.03926","288221.998106","288988.738676","289755.728438","290522.353995","291289.188862","295154.834248","295922.07475","296688.256335","297455.023183","298221.76839","298971.52824","285171.78034","285938.587382","298230.503152","Mapping"
"Mixed","Both","ball","5","m150gnash.wav","None","734.513591509","148","294405.508786","286705.287449","287455.03926","288221.998106","288988.738676","289755.728438","290522.353995","291289.188862","295154.834248","295922.07475","296688.256335","297455.023183","298221.76839","298971.52824","299738.175439","285938.587382","298980.196838","Mapping"
"Mixed","Both","ball","5","m160gnash.wav","None","731.095991563","148","294405.508786","286705.287449","287455.03926","288221.998106","288988.738676","289755.728438","290522.353995","291289.188862","295154.834248","295922.07475","296688.256335","297455.023183","298221.76839","298971.52824","299738.175439","300504.763895","299747.056439","Mapping"
"Mixed","Both","ball","5","m160ball.wav","None","731.430207379","148","294405.508786","301271.515904","287455.03926","288221.998106","288988.738676","289755.728438","290522.353995","291289.188862","295154.834248","295922.07475","296688.256335","297455.023183","298221.76839","298971.52824","299738.175439","300504.763895","300513.585534","Mapping"
"Mixed","Both","ball","5","m150gnash.wav","space","394.318262115","148","294405.508786","301271.515904","302037.973889","288221.998106","288988.738676","289755.728438","290522.353995","291289.188862","295154.834248","295922.07475","296688.256335","297455.023183","298221.76839","298971.52824","299738.175439","300504.763895","301280.320229","Mapping"
"Mixed","Both","ball","5","m150ball.wav","None","729.046172928","148","294405.508786","301271.515904","302037.973889","302804.846475","288988.738676","289755.728438","290522.353995","291289.188862","295154.834248","295922.07475","296688.256335","297455.023183","298221.76839","298971.52824","299738.175439","300504.763895","302047.085842","Mapping"
"Mixed","Both","ball","5","m160priest.wav","space","509.002969135","148","294405.508786","301271.515904","302037.973889","302804.846475","303572.278047","289755.728438","290522.353995","291289.188862","295154.834248","295922.07475","296688.256335","297455.023183","298221.76839","298971.52824","299738.175439","300504.763895","302813.596386","Mapping"
"Mixed","Both","ball","5","m150reek.wav","None","720.136728603","148","294405.508786","301271.515904","302037.973889","302804.846475","303572.278047","304321.247959","290522.353995","291289.188862","295154.834248","295922.07475","296688.256335","297455.023183","298221.76839","298971.52824","299738.175439","300504.763895","303582.485091","Mapping"
"Mixed","Both","ball","5","m150dime.wav","None","736.32843839","148","294405.508786","301271.515904","302037.973889","302804.846475","303572.278047","304321.247959","305088.067986","291289.188862","295154.834248","295922.07475","296688.256335","297455.023183","298221.76839","298971.52824","299738.175439","300504.763895","304330.109172","Mapping"
"Mixed","Both","ball","5","m150cad.wav","None","733.081192244","148","294405.508786","301271.515904","302037.973889","302804.846475","303572.278047","304321.247959","305088.067986","305855.080319","295154.834248","295922.07475","296688.256335","297455.023183","298221.76839","298971.52824","299738.175439","300504.763895","305096.905083","Mapping"
"Mixed","Both","tile","29","m160jolt.wav","None","732.908055186","148","308988.743004","301271.515904","302037.973889","302804.846475","303572.278047","304321.247959","305088.067986","305855.080319","295154.834248","295922.07475","296688.256335","297455.023183","298221.76839","298971.52824","299738.175439","300504.763895","305864.549057","Mapping"
"Mixed","Both","tile","29","m150tile.wav","space","0.0374102964997","148","308988.743004","301271.515904","302037.973889","302804.846475","303572.278047","304321.247959","305088.067986","305855.080319","309755.477699","295922.07475","296688.256335","297455.023183","298221.76839","298971.52824","299738.175439","300504.763895","308998.33603","Mapping"
"Mixed","Both","tile","29","m160jolt.wav","space","429.711791687","148","308988.743004","301271.515904","302037.973889","302804.846475","303572.278047","304321.247959","305088.067986","305855.080319","309755.477699","310504.948472","296688.256335","297455.023183","298221.76839","298971.52824","299738.175439","300504.763895","309764.755368","Mapping"
"Mixed","Both","tile","29","m160gnash.wav","None","733.8736034","148","308988.743004","301271.515904","302037.973889","302804.846475","303572.278047","304321.247959","305088.067986","305855.080319","309755.477699","310504.948472","311271.368119","297455.023183","298221.76839","298971.52824","299738.175439","300504.763895","310514.127515","Mapping"
"Mixed","Both","tile","29","m150dime.wav","None","730.678298511","148","308988.743004","301271.515904","302037.973889","302804.846475","303572.278047","304321.247959","305088.067986","305855.080319","309755.477699","310504.948472","311271.368119","312038.004806","298221.76839","298971.52824","299738.175439","300504.763895","311280.971966","Mapping"
"Mixed","Both","tile","29","m150priest.wav","None","728.496153373","148","308988.743004","301271.515904","302037.973889","302804.846475","303572.278047","304321.247959","305088.067986","305855.080319","309755.477699","310504.948472","311271.368119","312038.004806","312804.992714","298971.52824","299738.175439","300504.763895","312046.837576","Mapping"
"Mixed","Both","tile","29","m160tile.wav","None","728.239230812","148","308988.743004","301271.515904","302037.973889","302804.846475","303572.278047","304321.247959","305088.067986","305855.080319","309755.477699","310504.948472","311271.368119","312038.004806","312804.992714","313571.276635","299738.175439","300504.763895","312814.175158","Mapping"
"Mixed","Both","tile","29","m150cad.wav","space","526.443119626","148","308988.743004","301271.515904","302037.973889","302804.846475","303572.278047","304321.247959","305088.067986","305855.080319","309755.477699","310504.948472","311271.368119","312038.004806","312804.992714","313571.276635","314338.105319","300504.763895","313579.957291","Mapping"
"Mixed","Both","tile","29","m160depth.wav","None","722.292902414","148","308988.743004","301271.515904","302037.973889","302804.846475","303572.278047","304321.247959","305088.067986","305855.080319","309755.477699","310504.948472","311271.368119","312038.004806","312804.992714","313571.276635","314338.105319","315088.086536","314347.085563","Mapping"
"Mixed","Both","tile","29","m150bluff.wav","None","735.598480795","148","308988.743004","315854.893887","302037.973889","302804.846475","303572.278047","304321.247959","305088.067986","305855.080319","309755.477699","310504.948472","311271.368119","312038.004806","312804.992714","313571.276635","314338.105319","315088.086536","315097.238681","Mapping"
"Mixed","Both","tile","29","m160tile.wav","None","732.30949603","148","308988.743004","315854.893887","316621.178117","302804.846475","303572.278047","304321.247959","305088.067986","305855.080319","309755.477699","310504.948472","311271.368119","312038.004806","312804.992714","313571.276635","314338.105319","315088.086536","315864.259362","Mapping"
"Mixed","Both","tile","29","m160depth.wav","None","730.18609453","148","308988.743004","315854.893887","316621.178117","317388.246719","303572.278047","304321.247959","305088.067986","305855.080319","309755.477699","310504.948472","311271.368119","312038.004806","312804.992714","313571.276635","314338.105319","315088.086536","316629.915352","Mapping"
"Mixed","Both","tile","29","m150jaw.wav","space","77.0629658364","148","308988.743004","315854.893887","316621.178117","317388.246719","318155.133527","304321.247959","305088.067986","305855.080319","309755.477699","310504.948472","311271.368119","312038.004806","312804.992714","313571.276635","314338.105319","315088.086536","317397.282306","Mapping"
"Mixed","Both","tile","29","m150reek.wav","None","722.058549058","148","308988.743004","315854.893887","316621.178117","317388.246719","318155.133527","318921.939641","305088.067986","305855.080319","309755.477699","310504.948472","311271.368119","312038.004806","312804.992714","313571.276635","314338.105319","315088.086536","318164.976365","Mapping"
"Mixed","Both","tile","29","m150tile.wav","None","719.808696304","148","308988.743004","315854.893887","316621.178117","317388.246719","318155.133527","318921.939641","319671.003233","305855.080319","309755.477699","310504.948472","311271.368119","312038.004806","312804.992714","313571.276635","314338.105319","315088.086536","318931.241735","Mapping"
"Mixed","Both","tile","29","m160reek.wav","space","522.439017892","148","308988.743004","315854.893887","316621.178117","317388.246719","318155.133527","318921.939641","319671.003233","320437.766063","309755.477699","310504.948472","311271.368119","312038.004806","312804.992714","313571.276635","314338.105319","315088.086536","319679.849915","Mapping"
"Mixed","Both","done","48","m160cave.wav","None","731.298499275","148","323572.042766","315854.893887","316621.178117","317388.246719","318155.133527","318921.939641","319671.003233","320437.766063","309755.477699","310504.948472","311271.368119","312038.004806","312804.992714","313571.276635","314338.105319","315088.086536","320446.627894","Mapping"
"Mixed","Both","done","48","m160tile.wav","None","719.81642535","148","323572.042766","315854.893887","316621.178117","317388.246719","318155.133527","318921.939641","319671.003233","320437.766063","324320.935385","310504.948472","311271.368119","312038.004806","312804.992714","313571.276635","314338.105319","315088.086536","323581.415042","Mapping"
"Mixed","Both","done","48","m160ball.wav","None","735.073504038","148","323572.042766","315854.893887","316621.178117","317388.246719","318155.133527","318921.939641","319671.003233","320437.766063","324320.935385","325087.716456","311271.368119","312038.004806","312804.992714","313571.276635","314338.105319","315088.086536","324329.695189","Mapping"
"Mixed","Both","done","48","m150done.wav","None","731.667652261","148","323572.042766","315854.893887","316621.178117","317388.246719","318155.133527","318921.939641","319671.003233","320437.766063","324320.935385","325087.716456","325854.746102","312038.004806","312804.992714","313571.276635","314338.105319","315088.086536","325096.724217","Mapping"
"Mixed","Both","done","48","m160reek.wav","space","314.236529171","148","323572.042766","315854.893887","316621.178117","317388.246719","318155.133527","318921.939641","319671.003233","320437.766063","324320.935385","325087.716456","325854.746102","326620.966643","312804.992714","313571.276635","314338.105319","315088.086536","325863.92731","Mapping"
"Mixed","Both","done","48","m160done.wav","None","725.324346218","148","323572.042766","315854.893887","316621.178117","317388.246719","318155.133527","318921.939641","319671.003233","320437.766063","324320.935385","325087.716456","325854.746102","326620.966643","327388.368533","313571.276635","314338.105319","315088.086536","326629.718717","Mapping"
"Mixed","Both","done","48","m150priest.wav","space","460.33941675","148","323572.042766","315854.893887","316621.178117","317388.246719","318155.133527","318921.939641","319671.003233","320437.766063","324320.935385","325087.716456","325854.746102","326620.966643","327388.368533","328137.623194","314338.105319","315088.086536","327397.799243","Mapping"
"Mixed","Both","done","48","m150done.wav","None","734.95478183","148","323572.042766","315854.893887","316621.178117","317388.246719","318155.133527","318921.939641","319671.003233","320437.766063","324320.935385","325087.716456","325854.746102","326620.966643","327388.368533","328137.623194","328904.728897","315088.086536","328146.521508","Mapping"
"Mixed","Both","done","48","m150jolt.wav","space","368.156026118","148","323572.042766","315854.893887","316621.178117","317388.246719","318155.133527","318921.939641","319671.003233","320437.766063","324320.935385","325087.716456","325854.746102","326620.966643","327388.368533","328137.623194","328904.728897","329671.304677","328913.971629","Mapping"
"Mixed","Both","done","48","m150ball.wav","None","727.504017297","148","323572.042766","330438.351946","316621.178117","317388.246719","318155.133527","318921.939641","319671.003233","320437.766063","324320.935385","325087.716456","325854.746102","326620.966643","327388.368533","328137.623194","328904.728897","329671.304677","329680.628722","Mapping"
"Mixed","Both","done","48","m160done.wav","None","723.414583132","148","323572.042766","330438.351946","331205.043357","317388.246719","318155.133527","318921.939641","319671.003233","320437.766063","324320.935385","325087.716456","325854.746102","326620.966643","327388.368533","328137.623194","328904.728897","329671.304677","330448.171905","Mapping"
"Mixed","Both","done","48","m160cad.wav","space","491.587242577","148","323572.042766","330438.351946","331205.043357","331954.132301","318155.133527","318921.939641","319671.003233","320437.766063","324320.935385","325087.716456","325854.746102","326620.966643","327388.368533","328137.623194","328904.728897","329671.304677","331214.485507","Mapping"
"Mixed","Both","done","48","m150dime.wav","None","735.730497632","148","323572.042766","330438.351946","331205.043357","331954.132301","332720.935323","318921.939641","319671.003233","320437.766063","324320.935385","325087.716456","325854.746102","326620.966643","327388.368533","328137.623194","328904.728897","329671.304677","331962.810792","Mapping"
"Mixed","Both","done","48","m150reek.wav","None","732.722551562","148","323572.042766","330438.351946","331205.043357","331954.132301","332720.935323","333487.578812","319671.003233","320437.766063","324320.935385","325087.716456","325854.746102","326620.966643","327388.368533","328137.623194","328904.728897","329671.304677","332729.582897","Mapping"
"Mixed","Both","done","48","m150bluff.wav","None","732.093693223","148","323572.042766","330438.351946","331205.043357","331954.132301","332720.935323","333487.578812","334254.356173","320437.766063","324320.935385","325087.716456","325854.746102","326620.966643","327388.368533","328137.623194","328904.728897","329671.304677","333496.314501","Mapping"
"Mixed","Both","done","48","m160priest.wav","None","728.848301806","148","323572.042766","330438.351946","331205.043357","331954.132301","332720.935323","333487.578812","334254.356173","335021.057787","324320.935385","325087.716456","325854.746102","326620.966643","327388.368533","328137.623194","328904.728897","329671.304677","334263.123089","Mapping"
"Mixed","Both","tile","27","m160done.wav","None","725.701846182","148","338138.186198","330438.351946","331205.043357","331954.132301","332720.935323","333487.578812","334254.356173","335021.057787","324320.935385","325087.716456","325854.746102","326620.966643","327388.368533","328137.623194","328904.728897","329671.304677","335030.041742","Mapping"
"Mixed","Both","tile","27","m150tile.wav","None","719.239508267","148","338138.186198","330438.351946","331205.043357","331954.132301","332720.935323","333487.578812","334254.356173","335021.057787","338887.468066","325087.716456","325854.746102","326620.966643","327388.368533","328137.623194","328904.728897","329671.304677","338147.76222","Mapping"
"Mixed","Both","tile","27","m160lash.wav","space","425.530533306","148","338138.186198","330438.351946","331205.043357","331954.132301","332720.935323","333487.578812","334254.356173","335021.057787","338887.468066","339654.467414","325854.746102","326620.966643","327388.368533","328137.623194","328904.728897","329671.304677","338896.395133","Mapping"
"Mixed","Both","tile","27","m160tile.wav","None","730.466824025","148","338138.186198","330438.351946","331205.043357","331954.132301","332720.935323","333487.578812","334254.356173","335021.057787","338887.468066","339654.467414","340420.753189","326620.966643","327388.368533","328137.623194","328904.728897","329671.304677","339663.527116","Mapping"
"Mixed","Both","tile","27","m160greet.wav","space","364.347321447","148","338138.186198","330438.351946","331205.043357","331954.132301","332720.935323","333487.578812","334254.356173","335021.057787","338887.468066","339654.467414","340420.753189","341187.844361","327388.368533","328137.623194","328904.728897","329671.304677","340429.547003","Mapping"
"Mixed","Both","tile","27","m160park.wav","None","729.394301772","148","338138.186198","330438.351946","331205.043357","331954.132301","332720.935323","333487.578812","334254.356173","335021.057787","338887.468066","339654.467414","340420.753189","341187.844361","341954.465589","328137.623194","328904.728897","329671.304677","341196.859851","Mapping"
"Mixed","Both","tile","27","m150ball.wav","None","726.111810189","148","338138.186198","330438.351946","331205.043357","331954.132301","332720.935323","333487.578812","334254.356173","335021.057787","338887.468066","339654.467414","340420.753189","341187.844361","341954.465589","342721.379296","328904.728897","329671.304677","341963.877749","Mapping"
"Mixed","Both","tile","27","m150greet.wav","None","722.775522154","148","338138.186198","330438.351946","331205.043357","331954.132301","332720.935323","333487.578812","334254.356173","335021.057787","338887.468066","339654.467414","340420.753189","341187.844361","341954.465589","342721.379296","343488.2154","329671.304677","342730.844942","Mapping"
"Mixed","Both","tile","27","m150depth.wav","None","720.03933927","148","338138.186198","330438.351946","331205.043357","331954.132301","332720.935323","333487.578812","334254.356173","335021.057787","338887.468066","339654.467414","340420.753189","341187.844361","341954.465589","342721.379296","343488.2154","344237.746152","343497.512547","Mapping"
"Mixed","Both","tile","27","m160cad.wav","None","734.56275044","148","338138.186198","345003.992663","331205.043357","331954.132301","332720.935323","333487.578812","334254.356173","335021.057787","338887.468066","339654.467414","340420.753189","341187.844361","341954.465589","342721.379296","343488.2154","344237.746152","344246.774937","Mapping"
"Mixed","Both","tile","27","m150reek.wav","None","732.468410861","148","338138.186198","345003.992663","345770.997884","331954.132301","332720.935323","333487.578812","334254.356173","335021.057787","338887.468066","339654.467414","340420.753189","341187.844361","341954.465589","342721.379296","343488.2154","344237.746152","345012.790186","Mapping"
"Mixed","Both","tile","27","m160tile.wav","None","728.467709851","148","338138.186198","345003.992663","345770.997884","346537.437628","332720.935323","333487.578812","334254.356173","335021.057787","338887.468066","339654.467414","340420.753189","341187.844361","341954.465589","342721.379296","343488.2154","344237.746152","345780.690773","Mapping"
"Mixed","Both","tile","27","m150romp.wav","space","564.860054292","148","338138.186198","345003.992663","345770.997884","346537.437628","347304.642576","333487.578812","334254.356173","335021.057787","338887.468066","339654.467414","340420.753189","341187.844361","341954.465589","342721.379296","343488.2154","344237.746152","346540.943652","Mapping"
"Mixed","Both","tile","27","m160bluff.wav","None","727.341700811","148","338138.186198","345003.992663","345770.997884","346537.437628","347304.642576","348054.545263","334254.356173","335021.057787","338887.468066","339654.467414","340420.753189","341187.844361","341954.465589","342721.379296","343488.2154","344237.746152","347308.719643","Mapping"
"Mixed","Both","tile","27","m150tile.wav","None","736.629882362","148","338138.186198","345003.992663","345770.997884","346537.437628","347304.642576","348054.545263","348820.513827","335021.057787","338887.468066","339654.467414","340420.753189","341187.844361","341954.465589","342721.379296","343488.2154","344237.746152","348063.448833","Mapping"
"Mixed","Both","tile","27","m150done.wav","space","404.348459095","148","338138.186198","345003.992663","345770.997884","346537.437628","347304.642576","348054.545263","348820.513827","349587.622313","338887.468066","339654.467414","340420.753189","341187.844361","341954.465589","342721.379296","343488.2154","344237.746152","348829.423581","Mapping"
"Mixed","Both","cave","14","m150lash.wav","None","731.487404089","148","352720.780428","345003.992663","345770.997884","346537.437628","347304.642576","348054.545263","348820.513827","349587.622313","338887.468066","339654.467414","340420.753189","341187.844361","341954.465589","342721.379296","343488.2154","344237.746152","349596.60936","Mapping"
"Mixed","Both","cave","14","m150cave.wav","None","724.617266562","148","352720.780428","345003.992663","345770.997884","346537.437628","347304.642576","348054.545263","348820.513827","349587.622313","353487.368265","339654.467414","340420.753189","341187.844361","341954.465589","342721.379296","343488.2154","344237.746152","352730.319967","Mapping"
"Mixed","Both","cave","14","m150romp.wav","space","553.467022255","148","352720.780428","345003.992663","345770.997884","346537.437628","347304.642576","348054.545263","348820.513827","349587.622313","353487.368265","354237.172327","340420.753189","341187.844361","341954.465589","342721.379296","343488.2154","344237.746152","353496.200725","Mapping"
"Mixed","Both","cave","14","m150cave.wav","None","735.516549554","148","352720.780428","345003.992663","345770.997884","346537.437628","347304.642576","348054.545263","348820.513827","349587.622313","353487.368265","354237.172327","355004.226398","341187.844361","341954.465589","342721.379296","343488.2154","344237.746152","354246.051781","Mapping"
"Mixed","Both","cave","14","m160romp.wav","space","540.552238934","148","352720.780428","345003.992663","345770.997884","346537.437628","347304.642576","348054.545263","348820.513827","349587.622313","353487.368265","354237.172327","355004.226398","355770.462087","341954.465589","342721.379296","343488.2154","344237.746152","355013.082973","Mapping"
"Mixed","Both","cave","14","m160ball.wav","None","732.670301106","148","352720.780428","345003.992663","345770.997884","346537.437628","347304.642576","348054.545263","348820.513827","349587.622313","353487.368265","354237.172327","355004.226398","355770.462087","356537.101557","342721.379296","343488.2154","344237.746152","355778.992485","Mapping"
"Mixed","Both","cave","14","m160priest.wav","None","729.670084082","148","352720.780428","345003.992663","345770.997884","346537.437628","347304.642576","348054.545263","348820.513827","349587.622313","353487.368265","354237.172327","355004.226398","355770.462087","356537.101557","357303.969197","343488.2154","344237.746152","356545.85425","Mapping"
"Mixed","Both","cave","14","m150cling.wav","None","726.119539235","148","352720.780428","345003.992663","345770.997884","346537.437628","347304.642576","348054.545263","348820.513827","349587.622313","353487.368265","354237.172327","355004.226398","355770.462087","356537.101557","357303.969197","358071.322238","344237.746152","357313.059816","Mapping"
"Mixed","Both","cave","14","m150cling.wav","None","722.05793066","148","352720.780428","345003.992663","345770.997884","346537.437628","347304.642576","348054.545263","348820.513827","349587.622313","353487.368265","354237.172327","355004.226398","355770.462087","356537.101557","357303.969197","358071.322238","358837.311517","358080.902897","Mapping"
"Mixed","Both","cave","14","m160cave.wav","None","720.793721732","148","352720.780428","359587.349622","345770.997884","346537.437628","347304.642576","348054.545263","348820.513827","349587.622313","353487.368265","354237.172327","355004.226398","355770.462087","356537.101557","357303.969197","358071.322238","358837.311517","358846.253115","Mapping"
"Mixed","Both","cave","14","m160cad.wav","space","613.151980564","148","352720.780428","359587.349622","360354.101012","346537.437628","347304.642576","348054.545263","348820.513827","349587.622313","353487.368265","354237.172327","355004.226398","355770.462087","356537.101557","357303.969197","358071.322238","358837.311517","359596.423856","Mapping"
"Mixed","Both","cave","14","m150priest.wav","None","730.465586763","148","352720.780428","359587.349622","360354.101012","361120.675556","347304.642576","348054.545263","348820.513827","349587.622313","353487.368265","354237.172327","355004.226398","355770.462087","356537.101557","357303.969197","358071.322238","358837.311517","360363.291804","Mapping"
"Mixed","Both","cave","14","m160cave.wav","None","727.930675726","148","352720.780428","359587.349622","360354.101012","361120.675556","361887.437767","348054.545263","348820.513827","349587.622313","353487.368265","354237.172327","355004.226398","355770.462087","356537.101557","357303.969197","358071.322238","358837.311517","361130.356387","Mapping"
"Mixed","Both","cave","14","m160dime.wav","space","680.983653292","148","352720.780428","359587.349622","360354.101012","361120.675556","361887.437767","362653.950167","348820.513827","349587.622313","353487.368265","354237.172327","355004.226398","355770.462087","356537.101557","357303.969197","358071.322238","358837.311517","361896.510146","Mapping"
"Mixed","Both","cave","14","m160jolt.wav","None","722.039071377","148","352720.780428","359587.349622","360354.101012","361120.675556","361887.437767","362653.950167","363403.79473","349587.622313","353487.368265","354237.172327","355004.226398","355770.462087","356537.101557","357303.969197","358071.322238","358837.311517","362663.0581","Mapping"
"Mixed","Both","cave","14","m150dime.wav","None","735.947537236","148","352720.780428","359587.349622","360354.101012","361120.675556","361887.437767","362653.950167","363403.79473","364170.595897","353487.368265","354237.172327","355004.226398","355770.462087","356537.101557","357303.969197","358071.322238","358837.311517","363412.932653","Mapping"
"Mixed","Both","cave","21","m160jaw.wav","None","732.681122143","148","367304.084209","359587.349622","360354.101012","361120.675556","361887.437767","362653.950167","363403.79473","364170.595897","353487.368265","354237.172327","355004.226398","355770.462087","356537.101557","357303.969197","358071.322238","358837.311517","364180.019806","Mapping"
"Mixed","Both","cave","21","m160jaw.wav","None","719.438615721","148","367304.084209","359587.349622","360354.101012","361120.675556","361887.437767","362653.950167","363403.79473","364170.595897","368053.95938","354237.172327","355004.226398","355770.462087","356537.101557","357303.969197","358071.322238","358837.311517","367313.842024","Mapping"
"Mixed","Both","cave","21","m150park.wav","None","733.977176249","148","367304.084209","359587.349622","360354.101012","361120.675556","361887.437767","362653.950167","363403.79473","364170.595897","368053.95938","368820.215166","355004.226398","355770.462087","356537.101557","357303.969197","358071.322238","358837.311517","368063.163775","Mapping"
"Mixed","Both","cave","21","m150lash.wav","None","731.886856258","148","367304.084209","359587.349622","360354.101012","361120.675556","361887.437767","362653.950167","363403.79473","364170.595897","368053.95938","368820.215166","369587.336327","355770.462087","356537.101557","357303.969197","358071.322238","358837.311517","368829.094311","Mapping"
"Mixed","Both","cave","21","m160knife.wav","None","728.504192084","148","367304.084209","359587.349622","360354.101012","361120.675556","361887.437767","362653.950167","363403.79473","364170.595897","368053.95938","368820.215166","369587.336327","370353.903142","356537.101557","357303.969197","358071.322238","358837.311517","369596.295239","Mapping"
"Mixed","Both","cave","21","m160greet.wav","None","725.694426335","148","367304.084209","359587.349622","360354.101012","361120.675556","361887.437767","362653.950167","363403.79473","364170.595897","368053.95938","368820.215166","369587.336327","370353.903142","371120.410903","357303.969197","358071.322238","358837.311517","370362.93069","Mapping"
"Mixed","Both","cave","21","m150cave.wav","None","723.94203255","148","367304.084209","359587.349622","360354.101012","361120.675556","361887.437767","362653.950167","363403.79473","364170.595897","368053.95938","368820.215166","369587.336327","370353.903142","371120.410903","371887.729627","358071.322238","358837.311517","371129.248001","Mapping"
"Mixed","Both","cave","21","m150tile.wav","space","383.818122093","148","367304.084209","359587.349622","360354.101012","361120.675556","361887.437767","362653.950167","363403.79473","364170.595897","368053.95938","368820.215166","369587.336327","370353.903142","371120.410903","371887.729627","372637.200709","358837.311517","371897.51836","Mapping"
"Mixed","Both","cave","21","m150lash.wav","None","733.61420678","148","367304.084209","359587.349622","360354.101012","361120.675556","361887.437767","362653.950167","363403.79473","364170.595897","368053.95938","368820.215166","369587.336327","370353.903142","371120.410903","371887.729627","372637.200709","373403.892119","372646.255773","Mapping"
"Mixed","Both","cave","21","m160cave.wav","None","730.545044877","148","367304.084209","374170.746465","360354.101012","361120.675556","361887.437767","362653.950167","363403.79473","364170.595897","368053.95938","368820.215166","369587.336327","370353.903142","371120.410903","371887.729627","372637.200709","373403.892119","373413.155258","Mapping"
"Mixed","Both","cave","21","m150dime.wav","space","525.378327351","148","367304.084209","374170.746465","374937.001323","361120.675556","361887.437767","362653.950167","363403.79473","364170.595897","368053.95938","368820.215166","369587.336327","370353.903142","371120.410903","371887.729627","372637.200709","373403.892119","374179.916542","Mapping"
"Mixed","Both","cave","21","m160cave.wav","None","724.565634504","148","367304.084209","374170.746465","374937.001323","375704.328085","361887.437767","362653.950167","363403.79473","364170.595897","368053.95938","368820.215166","369587.336327","370353.903142","371120.410903","371887.729627","372637.200709","373403.892119","374945.984351","Mapping"
"Mixed","Both","cave","21","m160cad.wav","None","720.755384304","148","367304.084209","374170.746465","374937.001323","375704.328085","376453.308509","362653.950167","363403.79473","364170.595897","368053.95938","368820.215166","369587.336327","370353.903142","371120.410903","371887.729627","372637.200709","373403.892119","375713.815064","Mapping"
"Mixed","Both","cave","21","m150cave.wav","space","83.2841489464","148","367304.084209","374170.746465","374937.001323","375704.328085","376453.308509","377220.066392","363403.79473","364170.595897","368053.95938","368820.215166","369587.336327","370353.903142","371120.410903","371887.729627","372637.200709","373403.892119","376461.985146","Mapping"
"Mixed","Both","cave","21","m150romp.wav","space","636.309362482","148","367304.084209","374170.746465","374937.001323","375704.328085","376453.308509","377220.066392","377986.778517","364170.595897","368053.95938","368820.215166","369587.336327","370353.903142","371120.410903","371887.729627","372637.200709","373403.892119","377228.886176","Mapping"
"Mixed","Both","cave","21","m160lash.wav","None","728.874272667","148","367304.084209","374170.746465","374937.001323","375704.328085","376453.308509","377220.066392","377986.778517","378753.418296","368053.95938","368820.215166","369587.336327","370353.903142","371120.410903","371887.729627","372637.200709","373403.892119","377995.683324","Mapping"
"Mixed","Both","ball","7","m160cling.wav","None","731.408256106","148","381870.861137","374170.746465","374937.001323","375704.328085","376453.308509","377220.066392","377986.778517","378753.418296","368053.95938","368820.215166","369587.336327","370353.903142","371120.410903","371887.729627","372637.200709","373403.892119","378756.874544","Mapping"
"Mixed","Both","ball","7","m160gnash.wav","None","720.185887069","148","381870.861137","374170.746465","374937.001323","375704.328085","376453.308509","377220.066392","377986.778517","378753.418296","382619.842489","368820.215166","369587.336327","370353.903142","371120.410903","371887.729627","372637.200709","373403.892119","381880.288446","Mapping"
"Mixed","Both","ball","7","m160reek.wav","None","735.625069123","148","381870.861137","374170.746465","374937.001323","375704.328085","376453.308509","377220.066392","377986.778517","378753.418296","382619.842489","383386.743519","369587.336327","370353.903142","371120.410903","371887.729627","372637.200709","373403.892119","382628.882404","Mapping"
"Mixed","Both","ball","7","m150knife.wav","None","732.95288533","148","381870.861137","374170.746465","374937.001323","375704.328085","376453.308509","377220.066392","377986.778517","378753.418296","382619.842489","383386.743519","384153.313116","370353.903142","371120.410903","371887.729627","372637.200709","373403.892119","383395.545989","Mapping"
"Mixed","Both","ball","7","m160lash.wav","None","730.396950617","148","381870.861137","374170.746465","374937.001323","375704.328085","376453.308509","377220.066392","377986.778517","378753.418296","382619.842489","383386.743519","384153.313116","384919.920122","371120.410903","371887.729627","372637.200709","373403.892119","384162.078176","Mapping"
"Mixed","Both","ball","7","m150tile.wav","None","727.881517727","148","381870.861137","374170.746465","374937.001323","375704.328085","376453.308509","377220.066392","377986.778517","378753.418296","382619.842489","383386.743519","384153.313116","384919.920122","385687.436098","371887.729627","372637.200709","373403.892119","384928.617164","Mapping"
"Mixed","Both","ball","7","m150ball.wav","None","723.42138458","148","381870.861137","374170.746465","374937.001323","375704.328085","376453.308509","377220.066392","377986.778517","378753.418296","382619.842489","383386.743519","384153.313116","384919.920122","385687.436098","386453.882643","372637.200709","373403.892119","385696.97811","Mapping"
"Mixed","Both","ball","7","m150reek.wav","space","625.653089955","148","381870.861137","374170.746465","374937.001323","375704.328085","376453.308509","377220.066392","377986.778517","378753.418296","382619.842489","383386.743519","384153.313116","384919.920122","385687.436098","386453.882643","387203.088764","373403.892119","386463.416308","Mapping"
"Mixed","Both","ball","7","m150ball.wav","None","735.881373752","148","381870.861137","374170.746465","374937.001323","375704.328085","376453.308509","377220.066392","377986.778517","378753.418296","382619.842489","383386.743519","384153.313116","384919.920122","385687.436098","386453.882643","387203.088764","387970.176226","387211.745305","Mapping"
"Mixed","Both","ball","7","m150cling.wav","space","485.979458783","148","381870.861137","388736.596182","374937.001323","375704.328085","376453.308509","377220.066392","377986.778517","378753.418296","382619.842489","383386.743519","384153.313116","384919.920122","385687.436098","386453.882643","387203.088764","387970.176226","387979.075158","Mapping"
"Mixed","Both","ball","7","m160ball.wav","None","729.295984376","148","381870.861137","388736.596182","389503.336752","375704.328085","376453.308509","377220.066392","377986.778517","378753.418296","382619.842489","383386.743519","384153.313116","384919.920122","385687.436098","386453.882643","387203.088764","387970.176226","388745.477183","Mapping"
"Mixed","Both","ball","7","m150cling.wav","space","504.613636993","148","381870.861137","388736.596182","389503.336752","390270.035273","376453.308509","377220.066392","377986.778517","378753.418296","382619.842489","383386.743519","384153.313116","384919.920122","385687.436098","386453.882643","387203.088764","387970.176226","389512.387797","Mapping"
"Mixed","Both","ball","7","m160ball.wav","None","722.979267128","148","381870.861137","388736.596182","389503.336752","390270.035273","391037.281959","377220.066392","377986.778517","378753.418296","382619.842489","383386.743519","384153.313116","384919.920122","385687.436098","386453.882643","387203.088764","387970.176226","390278.906071","Mapping"
"Mixed","Both","ball","7","m160dime.wav","space","402.112827636","148","381870.861137","388736.596182","389503.336752","390270.035273","391037.281959","391786.919686","377986.778517","378753.418296","382619.842489","383386.743519","384153.313116","384919.920122","385687.436098","386453.882643","387203.088764","387970.176226","391046.88086","Mapping"
"Mixed","Both","ball","7","m150lash.wav","None","733.175181318","148","381870.861137","388736.596182","389503.336752","390270.035273","391037.281959","391786.919686","392553.128168","378753.418296","382619.842489","383386.743519","384153.313116","384919.920122","385687.436098","386453.882643","387203.088764","387970.176226","391795.865921","Mapping"
"Mixed","Both","ball","7","m160done.wav","None","731.342402287","148","381870.861137","388736.596182","389503.336752","390270.035273","391037.281959","391786.919686","392553.128168","393319.775676","382619.842489","383386.743519","384153.313116","384919.920122","385687.436098","386453.882643","387203.088764","387970.176226","392561.797694","Mapping"
"Mixed","Both","ball","2","m160cling.wav","None","729.197977111","148","396453.963028","388736.596182","389503.336752","390270.035273","391037.281959","391786.919686","392553.128168","393319.775676","382619.842489","383386.743519","384153.313116","384919.920122","385687.436098","386453.882643","387203.088764","387970.176226","393328.459733","Mapping"
"Mixed","Both","ball","2","m150ball.wav","None","719.32576783","148","396453.963028","388736.596182","389503.336752","390270.035273","391037.281959","391786.919686","392553.128168","393319.775676","397219.847497","383386.743519","384153.313116","384919.920122","385687.436098","386453.882643","387203.088764","387970.176226","396463.603976","Mapping"
"Mixed","Both","ball","2","m150lash.wav","space","412.433338352","148","396453.963028","388736.596182","389503.336752","390270.035273","391037.281959","391786.919686","392553.128168","393319.775676","397219.847497","397970.230022","384153.313116","384919.920122","385687.436098","386453.882643","387203.088764","387970.176226","397228.474976","Mapping"
"Mixed","Both","ball","2","m150ball.wav","None","733.063569292","148","396453.963028","388736.596182","389503.336752","390270.035273","391037.281959","391786.919686","392553.128168","393319.775676","397219.847497","397970.230022","398736.752006","384919.920122","385687.436098","386453.882643","387203.088764","387970.176226","397979.379075","Mapping"
"Mixed","Both","ball","2","m160dime.wav","space","583.044385538","148","396453.963028","388736.596182","389503.336752","390270.035273","391037.281959","391786.919686","392553.128168","393319.775676","397219.847497","397970.230022","398736.752006","399503.563066","385687.436098","386453.882643","387203.088764","387970.176226","398745.816655","Mapping"
"Mixed","Both","ball","2","m150bluff.wav","None","726.906384807","148","396453.963028","388736.596182","389503.336752","390270.035273","391037.281959","391786.919686","392553.128168","393319.775676","397219.847497","397970.230022","398736.752006","399503.563066","400270.452966","386453.882643","387203.088764","387970.176226","399512.617513","Mapping"
"Mixed","Both","ball","2","m150cling.wav","None","723.83351298","148","396453.963028","388736.596182","389503.336752","390270.035273","391037.281959","391786.919686","392553.128168","393319.775676","397219.847497","397970.230022","398736.752006","399503.563066","400270.452966","401036.578591","387203.088764","387970.176226","400279.909647","Mapping"
"Mixed","Both","ball","2","m160tile.wav","None","722.753879614","148","396453.963028","388736.596182","389503.336752","390270.035273","391037.281959","391786.919686","392553.128168","393319.775676","397219.847497","397970.230022","398736.752006","399503.563066","400270.452966","401036.578591","401803.489823","387970.176226","401045.358491","Mapping"
"Mixed","Both","ball","2","m150done.wav","None","718.443387188","148","396453.963028","388736.596182","389503.336752","390270.035273","391037.281959","391786.919686","392553.128168","393319.775676","397219.847497","397970.230022","398736.752006","399503.563066","400270.452966","401036.578591","401803.489823","402553.292958","401813.754992","Mapping"
"Mixed","Both","ball","2","m160ball.wav","None","733.438596129","148","396453.963028","403320.044039","389503.336752","390270.035273","391037.281959","391786.919686","392553.128168","393319.775676","397219.847497","397970.230022","398736.752006","399503.563066","400270.452966","401036.578591","401803.489823","402553.292958","402562.727996","Mapping"
"Mixed","Both","ball","2","m160knife.wav","space","335.709844716","148","396453.963028","403320.044039","404086.296733","390270.035273","391037.281959","391786.919686","392553.128168","393319.775676","397219.847497","397970.230022","398736.752006","399503.563066","400270.452966","401036.578591","401803.489823","402553.292958","403329.106214","Mapping"
"Mixed","Both","ball","2","m150knife.wav","None","728.715357371","148","396453.963028","403320.044039","404086.296733","404852.88488","391037.281959","391786.919686","392553.128168","393319.775676","397219.847497","397970.230022","398736.752006","399503.563066","400270.452966","401036.578591","401803.489823","402553.292958","404095.113116","Mapping"
"Mixed","Both","ball","2","m160bluff.wav","None","726.279382128","148","396453.963028","403320.044039","404086.296733","404852.88488","405620.262346","391786.919686","392553.128168","393319.775676","397219.847497","397970.230022","398736.752006","399503.563066","400270.452966","401036.578591","401803.489823","402553.292958","404861.673437","Mapping"
"Mixed","Both","ball","2","m150park.wav","None","722.184692044","148","396453.963028","403320.044039","404086.296733","404852.88488","405620.262346","406387.000751","392553.128168","393319.775676","397219.847497","397970.230022","398736.752006","399503.563066","400270.452966","401036.578591","401803.489823","402553.292958","405629.721191","Mapping"
"Mixed","Both","ball","2","m160ball.wav","None","719.455620274","148","396453.963028","403320.044039","404086.296733","404852.88488","405620.262346","406387.000751","407136.603232","393319.775676","397219.847497","397970.230022","398736.752006","399503.563066","400270.452966","401036.578591","401803.489823","402553.292958","406396.48804","Mapping"
"Mixed","Both","ball","2","m160park.wav","space","375.112732407","148","396453.963028","403320.044039","404086.296733","404852.88488","405620.262346","406387.000751","407136.603232","407903.290623","397219.847497","397970.230022","398736.752006","399503.563066","400270.452966","401036.578591","401803.489823","402553.292958","407145.614703","Mapping"
"Mixed","Both","ball","4","m160jolt.wav","space","656.02719225","148","411036.992573","403320.044039","404086.296733","404852.88488","405620.262346","406387.000751","407136.603232","407903.290623","397219.847497","397970.230022","398736.752006","399503.563066","400270.452966","401036.578591","401803.489823","402553.292958","407912.68145","Mapping"
"Mixed","Both","ball","4","m150greet.wav","None","720.276474953","148","411036.992573","403320.044039","404086.296733","404852.88488","405620.262346","406387.000751","407136.603232","407903.290623","411786.326382","397970.230022","398736.752006","399503.563066","400270.452966","401036.578591","401803.489823","402553.292958","411046.389583","Mapping"
"Mixed","Both","ball","4","m150jolt.wav","None","735.462753568","148","411036.992573","403320.044039","404086.296733","404852.88488","405620.262346","406387.000751","407136.603232","407903.290623","411786.326382","412553.093231","398736.752006","399503.563066","400270.452966","401036.578591","401803.489823","402553.292958","411795.382065","Mapping"
"Mixed","Both","ball","4","m150gnash.wav","None","732.888577506","148","411036.992573","403320.044039","404086.296733","404852.88488","405620.262346","406387.000751","407136.603232","407903.290623","411786.326382","412553.093231","413319.436513","399503.563066","400270.452966","401036.578591","401803.489823","402553.292958","412562.088935","Mapping"
"Mixed","Both","ball","4","m150ball.wav","None","730.985925533","148","411036.992573","403320.044039","404086.296733","404852.88488","405620.262346","406387.000751","407136.603232","407903.290623","411786.326382","412553.093231","413319.436513","414086.139364","400270.452966","401036.578591","401803.489823","402553.292958","413328.443965","Mapping"
"Mixed","Both","ball","4","m160jolt.wav","space","433.640455827","148","411036.992573","403320.044039","404086.296733","404852.88488","405620.262346","406387.000751","407136.603232","407903.290623","411786.326382","412553.093231","413319.436513","414086.139364","414853.4383","401036.578591","401803.489823","402553.292958","414094.959766","Mapping"
"Mixed","Both","ball","4","m160ball.wav","None","723.537943326","148","411036.992573","403320.044039","404086.296733","404852.88488","405620.262346","406387.000751","407136.603232","407903.290623","411786.326382","412553.093231","413319.436513","414086.139364","414853.4383","415620.129401","401803.489823","402553.292958","414863.024833","Mapping"
"Mixed","Both","ball","4","m160done.wav","space","418.585576117","148","411036.992573","403320.044039","404086.296733","404852.88488","405620.262346","406387.000751","407136.603232","407903.290623","411786.326382","412553.093231","413319.436513","414086.139364","414853.4383","415620.129401","416369.462592","402553.292958","415629.97935","Mapping"
"Mixed","Both","ball","4","m150depth.wav","None","735.250660218","148","411036.992573","403320.044039","404086.296733","404852.88488","405620.262346","406387.000751","407136.603232","407903.290623","411786.326382","412553.093231","413319.436513","414086.139364","414853.4383","415620.129401","416369.462592","417136.097115","416378.53899","Mapping"
"Mixed","Both","ball","4","m150depth.wav","None","733.000498265","148","411036.992573","417902.673514","404086.296733","404852.88488","405620.262346","406387.000751","407136.603232","407903.290623","411786.326382","412553.093231","413319.436513","414086.139364","414853.4383","415620.129401","416369.462592","417136.097115","417144.90144","Mapping"
"Mixed","Both","ball","4","m150ball.wav","None","730.62419286","148","411036.992573","417902.673514","418669.31422","404852.88488","405620.262346","406387.000751","407136.603232","407903.290623","411786.326382","412553.093231","413319.436513","414086.139364","414853.4383","415620.129401","416369.462592","417136.097115","417911.457743","Mapping"
"Mixed","Both","ball","4","m160jolt.wav","None","728.394126985","148","411036.992573","417902.673514","418669.31422","419436.364581","405620.262346","406387.000751","407136.603232","407903.290623","411786.326382","412553.093231","413319.436513","414086.139364","414853.4383","415620.129401","416369.462592","417136.097115","418677.982199","Mapping"
"Mixed","Both","ball","4","m160park.wav","space","0.0386466272175","148","411036.992573","417902.673514","418669.31422","419436.364581","420203.347233","406387.000751","407136.603232","407903.290623","411786.326382","412553.093231","413319.436513","414086.139364","414853.4383","415620.129401","416369.462592","417136.097115","419445.343898","Mapping"
"Mixed","Both","ball","4","m150tile.wav","None","720.845662989","148","411036.992573","417902.673514","418669.31422","419436.364581","420203.347233","420952.488736","407136.603232","407903.290623","411786.326382","412553.093231","413319.436513","414086.139364","414853.4383","415620.129401","416369.462592","417136.097115","420212.709306","Mapping"
"Mixed","Both","ball","4","m160ball.wav","None","736.401712522","148","411036.992573","417902.673514","418669.31422","419436.364581","420203.347233","420952.488736","421719.705123","407903.290623","411786.326382","412553.093231","413319.436513","414086.139364","414853.4383","415620.129401","416369.462592","417136.097115","420961.253178","Mapping"
"Mixed","Both","ball","4","m160jaw.wav","None","732.945156284","148","411036.992573","417902.673514","418669.31422","419436.364581","420203.347233","420952.488736","421719.705123","422486.331298","411786.326382","412553.093231","413319.436513","414086.139364","414853.4383","415620.129401","416369.462592","417136.097115","421728.737927","Mapping"
"Mixed","Both","tile","25","m150done.wav","space","97.0652354881","148","425619.818992","417902.673514","418669.31422","419436.364581","420203.347233","420952.488736","421719.705123","422486.331298","411786.326382","412553.093231","413319.436513","414086.139364","414853.4383","415620.129401","416369.462592","417136.097115","422495.351736","Mapping"
"Mixed","Both","tile","25","m160done.wav","None","720.025426243","148","425619.818992","417902.673514","418669.31422","419436.364581","420203.347233","420952.488736","421719.705123","422486.331298","426369.513915","412553.093231","413319.436513","414086.139364","414853.4383","415620.129401","416369.462592","417136.097115","425629.40367","Mapping"
"Mixed","Both","tile","25","m150tile.wav","None","735.06484786","148","425619.818992","417902.673514","418669.31422","419436.364581","420203.347233","420952.488736","421719.705123","422486.331298","426369.513915","427136.283855","413319.436513","414086.139364","414853.4383","415620.129401","416369.462592","417136.097115","426378.50127","Mapping"
"Mixed","Both","tile","25","m160done.wav","space","463.178554084","148","425619.818992","417902.673514","418669.31422","419436.364581","420203.347233","420952.488736","421719.705123","422486.331298","426369.513915","427136.283855","427902.494811","414086.139364","414853.4383","415620.129401","416369.462592","417136.097115","427145.169184","Mapping"
"Mixed","Both","tile","25","m160dime.wav","None","729.955760296","148","425619.818992","417902.673514","418669.31422","419436.364581","420203.347233","420952.488736","421719.705123","422486.331298","426369.513915","427136.283855","427902.494811","428669.126242","414853.4383","415620.129401","416369.462592","417136.097115","427911.351078","Mapping"
"Mixed","Both","tile","25","m150done.wav","None","727.708998602","148","425619.818992","417902.673514","418669.31422","419436.364581","420203.347233","420952.488736","421719.705123","422486.331298","426369.513915","427136.283855","427902.494811","428669.126242","429436.578528","415620.129401","416369.462592","417136.097115","428677.919747","Mapping"
"Mixed","Both","tile","25","m160tile.wav","None","723.696548957","148","425619.818992","417902.673514","418669.31422","419436.364581","420203.347233","420952.488736","421719.705123","422486.331298","426369.513915","427136.283855","427902.494811","428669.126242","429436.578528","430203.370421","416369.462592","417136.097115","429446.161661","Mapping"
"Mixed","Both","tile","25","m160ball.wav","space","355.524445418","148","425619.818992","417902.673514","418669.31422","419436.364581","420203.347233","420952.488736","421719.705123","422486.331298","426369.513915","427136.283855","427902.494811","428669.126242","429436.578528","430203.370421","430952.37867","417136.097115","430212.791547","Mapping"
"Mixed","Both","tile","25","m150tile.wav","None","736.345133744","148","425619.818992","417902.673514","418669.31422","419436.364581","420203.347233","420952.488736","421719.705123","422486.331298","426369.513915","427136.283855","427902.494811","428669.126242","429436.578528","430203.370421","430952.37867","431719.349265","430961.048505","Mapping"
"Mixed","Both","tile","25","m150gnash.wav","space","711.352808867","148","425619.818992","432485.771695","418669.31422","419436.364581","420203.347233","420952.488736","421719.705123","422486.331298","426369.513915","427136.283855","427902.494811","428669.126242","429436.578528","430203.370421","430952.37867","431719.349265","431728.930542","Mapping"
"Mixed","Both","tile","25","m160depth.wav","None","730.285648257","148","425619.818992","432485.771695","433252.816182","419436.364581","420203.347233","420952.488736","421719.705123","422486.331298","426369.513915","427136.283855","427902.494811","428669.126242","429436.578528","430203.370421","430952.37867","431719.349265","432494.508002","Mapping"
"Mixed","Both","tile","25","m160depth.wav","None","727.233181242","148","425619.818992","432485.771695","433252.816182","434019.345894","420203.347233","420952.488736","421719.705123","422486.331298","426369.513915","427136.283855","427902.494811","428669.126242","429436.578528","430203.370421","430952.37867","431719.349265","433261.981003","Mapping"
"Mixed","Both","tile","25","m160tile.wav","None","725.234067068","148","425619.818992","432485.771695","433252.816182","434019.345894","434785.930641","420952.488736","421719.705123","422486.331298","426369.513915","427136.283855","427902.494811","428669.126242","429436.578528","430203.370421","430952.37867","431719.349265","434028.41178","Mapping"
"Mixed","Both","tile","25","m150reek.wav","None","723.441790324","148","425619.818992","432485.771695","433252.816182","434019.345894","434785.930641","435553.174235","421719.705123","422486.331298","426369.513915","427136.283855","427902.494811","428669.126242","429436.578528","430203.370421","430952.37867","431719.349265","434794.911504","Mapping"
"Mixed","Both","tile","25","m150bluff.wav","space","85.6654010713","148","425619.818992","432485.771695","433252.816182","434019.345894","434785.930641","435553.174235","436302.342018","422486.331298","426369.513915","427136.283855","427902.494811","428669.126242","429436.578528","430203.370421","430952.37867","431719.349265","435562.580829","Mapping"
"Mixed","Both","tile","25","m150lash.wav","None","734.015822876","148","425619.818992","432485.771695","433252.816182","434019.345894","434785.930641","435553.174235","436302.342018","437069.525323","426369.513915","427136.283855","427902.494811","428669.126242","429436.578528","430203.370421","430952.37867","431719.349265","436312.046346","Mapping"
"Mixed","Both","ball","11","m150lash.wav","None","731.693623122","148","440202.947472","432485.771695","433252.816182","434019.345894","434785.930641","435553.174235","436302.342018","437069.525323","426369.513915","427136.283855","427902.494811","428669.126242","429436.578528","430203.370421","430952.37867","431719.349265","437078.685816","Mapping"
"Mixed","Both","ball","11","m160priest.wav","None","719.497668091","148","440202.947472","432485.771695","433252.816182","434019.345894","434785.930641","435553.174235","436302.342018","437069.525323","440952.576232","427136.283855","427902.494811","428669.126242","429436.578528","430203.370421","430952.37867","431719.349265","440212.381583","Mapping"
"Mixed","Both","ball","11","m160ball.wav","None","734.171955381","148","440202.947472","432485.771695","433252.816182","434019.345894","434785.930641","435553.174235","436302.342018","437069.525323","440952.576232","441719.178292","427902.494811","428669.126242","429436.578528","430203.370421","430952.37867","431719.349265","440962.084236","Mapping"
"Mixed","Both","ball","11","m150cling.wav","space","623.939033598","148","440202.947472","432485.771695","433252.816182","434019.345894","434785.930641","435553.174235","436302.342018","437069.525323","440952.576232","441719.178292","442485.588046","428669.126242","429436.578528","430203.370421","430952.37867","431719.349265","441728.161628","Mapping"
"Mixed","Both","ball","11","m160cling.wav","None","729.113263544","148","440202.947472","432485.771695","433252.816182","434019.345894","434785.930641","435553.174235","436302.342018","437069.525323","440952.576232","441719.178292","442485.588046","443252.61089","429436.578528","430203.370421","430952.37867","431719.349265","442494.583749","Mapping"
"Mixed","Both","ball","11","m150tile.wav","None","726.224658079","148","440202.947472","432485.771695","433252.816182","434019.345894","434785.930641","435553.174235","436302.342018","437069.525323","440952.576232","441719.178292","442485.588046","443252.61089","444019.166265","430203.370421","430952.37867","431719.349265","443261.741702","Mapping"
"Mixed","Both","ball","11","m150ball.wav","None","724.407338072","148","440202.947472","432485.771695","433252.816182","434019.345894","434785.930641","435553.174235","436302.342018","437069.525323","440952.576232","441719.178292","442485.588046","443252.61089","444019.166265","444786.276915","430952.37867","431719.349265","444027.936581","Mapping"
"Mixed","Both","ball","11","m150gnash.wav","space","356.264915317","148","440202.947472","432485.771695","433252.816182","434019.345894","434785.930641","435553.174235","436302.342018","437069.525323","440952.576232","441719.178292","442485.588046","443252.61089","444019.166265","444786.276915","445535.906912","431719.349265","444795.764822","Mapping"
"Mixed","Both","ball","11","m150gnash.wav","None","734.639734495","148","440202.947472","432485.771695","433252.816182","434019.345894","434785.930641","435553.174235","436302.342018","437069.525323","440952.576232","441719.178292","442485.588046","443252.61089","444019.166265","444786.276915","445535.906912","446302.354694","445545.016082","Mapping"
"Mixed","Both","ball","11","m160bluff.wav","None","732.698745094","148","440202.947472","447068.845142","433252.816182","434019.345894","434785.930641","435553.174235","436302.342018","437069.525323","440952.576232","441719.178292","442485.588046","443252.61089","444019.166265","444786.276915","445535.906912","446302.354694","446311.352562","Mapping"
"Mixed","Both","ball","11","m160ball.wav","None","730.586164631","148","440202.947472","447068.845142","447835.501616","434019.345894","434785.930641","435553.174235","436302.342018","437069.525323","440952.576232","441719.178292","442485.588046","443252.61089","444019.166265","444786.276915","445535.906912","446302.354694","447077.7045","Mapping"
"Mixed","Both","ball","11","m160romp.wav","None","728.189453948","148","440202.947472","447068.845142","447835.501616","448602.145106","434785.930641","435553.174235","436302.342018","437069.525323","440952.576232","441719.178292","442485.588046","443252.61089","444019.166265","444786.276915","445535.906912","446302.354694","447844.330366","Mapping"
"Mixed","Both","ball","11","m160tile.wav","space","0.0315355136991","148","440202.947472","447068.845142","447835.501616","448602.145106","449368.983992","435553.174235","436302.342018","437069.525323","440952.576232","441719.178292","442485.588046","443252.61089","444019.166265","444786.276915","445535.906912","446302.354694","448610.858534","Mapping"
"Mixed","Both","ball","11","m150tile.wav","None","722.141098231","148","440202.947472","447068.845142","447835.501616","448602.145106","449368.983992","450118.566067","436302.342018","437069.525323","440952.576232","441719.178292","442485.588046","443252.61089","444019.166265","444786.276915","445535.906912","446302.354694","449377.765439","Mapping"
"Mixed","Both","ball","11","m150ball.wav","None","736.969663762","148","440202.947472","447068.845142","447835.501616","448602.145106","449368.983992","450118.566067","450885.41392","437069.525323","440952.576232","441719.178292","442485.588046","443252.61089","444019.166265","444786.276915","445535.906912","446302.354694","450127.400382","Mapping"
"Mixed","Both","ball","11","m160dime.wav","space","369.812885299","148","440202.947472","447068.845142","447835.501616","448602.145106","449368.983992","450118.566067","450885.41392","451652.463662","440952.576232","441719.178292","442485.588046","443252.61089","444019.166265","444786.276915","445535.906912","446302.354694","450894.133531","Mapping"
"Mixed","Both","done","46","m150cad.wav","None","729.729445651","148","454786.190965","447068.845142","447835.501616","448602.145106","449368.983992","450118.566067","450885.41392","451652.463662","440952.576232","441719.178292","442485.588046","443252.61089","444019.166265","444786.276915","445535.906912","446302.354694","451662.082659","Mapping"
"Mixed","Both","done","46","m160priest.wav","None","719.846724067","148","454786.190965","447068.845142","447835.501616","448602.145106","449368.983992","450118.566067","450885.41392","451652.463662","455535.576096","441719.178292","442485.588046","443252.61089","444019.166265","444786.276915","445535.906912","446302.354694","454795.658776","Mapping"
"Mixed","Both","done","46","m150done.wav","None","734.829257708","148","454786.190965","447068.845142","447835.501616","448602.145106","449368.983992","450118.566067","450885.41392","451652.463662","455535.576096","456302.236899","442485.588046","443252.61089","444019.166265","444786.276915","445535.906912","446302.354694","455545.032777","Mapping"
"Mixed","Both","done","46","m160tile.wav","None","732.849312481","148","454786.190965","447068.845142","447835.501616","448602.145106","449368.983992","450118.566067","450885.41392","451652.463662","455535.576096","456302.236899","457068.645416","443252.61089","444019.166265","444786.276915","445535.906912","446302.354694","456311.453352","Mapping"
"Mixed","Both","done","46","m160done.wav","space","10.3950211778","148","454786.190965","447068.845142","447835.501616","448602.145106","449368.983992","450118.566067","450885.41392","451652.463662","455535.576096","456302.236899","457068.645416","457835.694232","444019.166265","444786.276915","445535.906912","446302.354694","457077.438921","Mapping"
"Mixed","Both","done","46","m150cling.wav","space","675.113691017","148","454786.190965","447068.845142","447835.501616","448602.145106","449368.983992","450118.566067","450885.41392","451652.463662","455535.576096","456302.236899","457068.645416","457835.694232","458602.172313","444786.276915","445535.906912","446302.354694","457844.687152","Mapping"
"Mixed","Both","done","46","m150done.wav","None","723.758692853","148","454786.190965","447068.845142","447835.501616","448602.145106","449368.983992","450118.566067","450885.41392","451652.463662","455535.576096","456302.236899","457068.645416","457835.694232","458602.172313","459368.712538","445535.906912","446302.354694","458610.970454","Mapping"
"Mixed","Both","done","46","m160knife.wav","None","721.537592355","148","454786.190965","447068.845142","447835.501616","448602.145106","449368.983992","450118.566067","450885.41392","451652.463662","455535.576096","456302.236899","457068.645416","457835.694232","458602.172313","459368.712538","460118.69221","446302.354694","459377.66403","Mapping"
"Mixed","Both","done","46","m150tile.wav","None","736.026994884","148","454786.190965","447068.845142","447835.501616","448602.145106","449368.983992","450118.566067","450885.41392","451652.463662","455535.576096","456302.236899","457068.645416","457835.694232","458602.172313","459368.712538","460118.69221","460885.397224","460127.761805","Mapping"
"Mixed","Both","done","46","m160done.wav","None","733.851033729","148","454786.190965","461652.300419","447835.501616","448602.145106","449368.983992","450118.566067","450885.41392","451652.463662","455535.576096","456302.236899","457068.645416","457835.694232","458602.172313","459368.712538","460118.69221","460885.397224","460894.340986","Mapping"
"Mixed","Both","done","46","m160park.wav","space","450.316330418","148","454786.190965","461652.300419","462418.524669","448602.145106","449368.983992","450118.566067","450885.41392","451652.463662","455535.576096","456302.236899","457068.645416","457835.694232","458602.172313","459368.712538","460118.69221","460885.397224","461661.43525","Mapping"
"Mixed","Both","done","46","m160jolt.wav","None","728.560461663","148","454786.190965","461652.300419","462418.524669","463185.191655","449368.983992","450118.566067","450885.41392","451652.463662","455535.576096","456302.236899","457068.645416","457835.694232","458602.172313","459368.712538","460118.69221","460885.397224","462427.463175","Mapping"
"Mixed","Both","done","46","m150jaw.wav","None","726.356056985","148","454786.190965","461652.300419","462418.524669","463185.191655","463952.736075","450118.566067","450885.41392","451652.463662","455535.576096","456302.236899","457068.645416","457835.694232","458602.172313","459368.712538","460118.69221","460885.397224","463194.045448","Mapping"
"Mixed","Both","done","46","m160cling.wav","None","723.030280787","148","454786.190965","461652.300419","462418.524669","463185.191655","463952.736075","464718.688562","450885.41392","451652.463662","455535.576096","456302.236899","457068.645416","457835.694232","458602.172313","459368.712538","460118.69221","460885.397224","463962.063521","Mapping"
"Mixed","Both","done","46","m150gnash.wav","None","721.999187954","148","454786.190965","461652.300419","462418.524669","463185.191655","463952.736075","464718.688562","465468.85652","451652.463662","455535.576096","456302.236899","457068.645416","457835.694232","458602.172313","459368.712538","460118.69221","460885.397224","464727.569253","Mapping"
"Mixed","Both","done","46","m150cave.wav","None","735.484704841","148","454786.190965","461652.300419","462418.524669","463185.191655","463952.736075","464718.688562","465468.85652","466235.193927","455535.576096","456302.236899","457068.645416","457835.694232","458602.172313","459368.712538","460118.69221","460885.397224","465478.537969","Mapping"
"Mixed","Both","tile","35","m160cad.wav","None","734.494732227","148","469369.081073","461652.300419","462418.524669","463185.191655","463952.736075","464718.688562","465468.85652","466235.193927","455535.576096","456302.236899","457068.645416","457835.694232","458602.172313","459368.712538","460118.69221","460885.397224","466244.057614","Mapping"
"Mixed","Both","tile","35","m160knife.wav","None","720.004711766","148","469369.081073","461652.300419","462418.524669","463185.191655","463952.736075","464718.688562","465468.85652","466235.193927","470118.551845","456302.236899","457068.645416","457835.694232","458602.172313","459368.712538","460118.69221","460885.397224","469378.56125","Mapping"
"Mixed","Both","tile","35","m150tile.wav","None","735.17336743","148","469369.081073","461652.300419","462418.524669","463185.191655","463952.736075","464718.688562","465468.85652","466235.193927","470118.551845","470885.080322","457068.645416","457835.694232","458602.172313","459368.712538","460118.69221","460885.397224","470127.922266","Mapping"
"Mixed","Both","tile","35","m160romp.wav","space","577.635709662","148","469369.081073","461652.300419","462418.524669","463185.191655","463952.736075","464718.688562","465468.85652","466235.193927","470118.551845","470885.080322","471651.666614","457835.694232","458602.172313","459368.712538","460118.69221","460885.397224","470893.939989","Mapping"
"Mixed","Both","tile","35","m150jolt.wav","None","730.465587229","148","469369.081073","461652.300419","462418.524669","463185.191655","463952.736075","464718.688562","465468.85652","466235.193927","470118.551845","470885.080322","471651.666614","472418.569499","458602.172313","459368.712538","460118.69221","460885.397224","471660.426727","Mapping"
"Mixed","Both","tile","35","m150knife.wav","None","727.954791393","148","469369.081073","461652.300419","462418.524669","463185.191655","463952.736075","464718.688562","465468.85652","466235.193927","470118.551845","470885.080322","471651.666614","472418.569499","473185.037996","459368.712538","460118.69221","460885.397224","472427.546343","Mapping"
"Mixed","Both","tile","35","m160tile.wav","None","726.051211823","148","469369.081073","461652.300419","462418.524669","463185.191655","463952.736075","464718.688562","465468.85652","466235.193927","470118.551845","470885.080322","471651.666614","472418.569499","473185.037996","473952.446379","460118.69221","460885.397224","473193.998763","Mapping"
"Mixed","Both","tile","35","m160bluff.wav","space","557.586445473","148","469369.081073","461652.300419","462418.524669","463185.191655","463952.736075","464718.688562","465468.85652","466235.193927","470118.551845","470885.080322","471651.666614","472418.569499","473185.037996","473952.446379","474702.172529","460885.397224","473961.938306","Mapping"
"Mixed","Both","tile","35","m150tile.wav","None","736.824661493","148","469369.081073","461652.300419","462418.524669","463185.191655","463952.736075","464718.688562","465468.85652","466235.193927","470118.551845","470885.080322","471651.666614","472418.569499","473185.037996","473952.446379","474702.172529","475468.646591","474711.00468","Mapping"
"Mixed","Both","tile","35","m150ball.wav","space","425.858256873","148","469369.081073","476235.401073","462418.524669","463185.191655","463952.736075","464718.688562","465468.85652","466235.193927","470118.551845","470885.080322","471651.666614","472418.569499","473185.037996","473952.446379","474702.172529","475468.646591","475477.646932","Mapping"
"Mixed","Both","tile","35","m160romp.wav","None","731.080223341","148","469369.081073","476235.401073","477002.00437","463185.191655","463952.736075","464718.688562","465468.85652","466235.193927","470118.551845","470885.080322","471651.666614","472418.569499","473185.037996","473952.446379","474702.172529","475468.646591","476244.425839","Mapping"
"Mixed","Both","tile","35","m150dime.wav","None","728.833152447","148","469369.081073","476235.401073","477002.00437","477768.481524","463952.736075","464718.688562","465468.85652","466235.193927","470118.551845","470885.080322","471651.666614","472418.569499","473185.037996","473952.446379","474702.172529","475468.646591","477011.114158","Mapping"
"Mixed","Both","tile","35","m150knife.wav","space","494.078869466","148","469369.081073","476235.401073","477002.00437","477768.481524","478535.690491","464718.688562","465468.85652","466235.193927","470118.551845","470885.080322","471651.666614","472418.569499","473185.037996","473952.446379","474702.172529","475468.646591","477777.380147","Mapping"
"Mixed","Both","tile","35","m160tile.wav","None","722.209116444","148","469369.081073","476235.401073","477002.00437","477768.481524","478535.690491","479302.046139","465468.85652","466235.193927","470118.551845","470885.080322","471651.666614","472418.569499","473185.037996","473952.446379","474702.172529","475468.646591","478545.320308","Mapping"
"Mixed","Both","tile","35","m160cad.wav","space","528.142645024","148","469369.081073","476235.401073","477002.00437","477768.481524","478535.690491","479302.046139","480051.55123","466235.193927","470118.551845","470885.080322","471651.666614","472418.569499","473185.037996","473952.446379","474702.172529","475468.646591","479311.289799","Mapping"
"Mixed","Both","tile","35","m150ball.wav","None","734.61159924","148","469369.081073","476235.401073","477002.00437","477768.481524","478535.690491","479302.046139","480051.55123","480818.460917","470118.551845","470885.080322","471651.666614","472418.569499","473185.037996","473952.446379","474702.172529","475468.646591","480060.475824","Mapping"
"Mixed","Both","cave","18","m160knife.wav","None","732.306713704","148","483952.325183","476235.401073","477002.00437","477768.481524","478535.690491","479302.046139","480051.55123","480818.460917","470118.551845","470885.080322","471651.666614","472418.569499","473185.037996","473952.446379","474702.172529","475468.646591","480827.407153","Mapping"
"Mixed","Both","cave","18","m150gnash.wav","None","719.491484109","148","483952.325183","476235.401073","477002.00437","477768.481524","478535.690491","479302.046139","480051.55123","480818.460917","484701.671669","470885.080322","471651.666614","472418.569499","473185.037996","473952.446379","474702.172529","475468.646591","483961.738271","Mapping"
"Mixed","Both","cave","18","m160bluff.wav","None","735.08958146","148","483952.325183","476235.401073","477002.00437","477768.481524","478535.690491","479302.046139","480051.55123","480818.460917","484701.671669","485468.688639","471651.666614","472418.569499","473185.037996","473952.446379","474702.172529","475468.646591","484710.790423","Mapping"
"Mixed","Both","cave","18","m150cave.wav","None","732.033713255","148","483952.325183","476235.401073","477002.00437","477768.481524","478535.690491","479302.046139","480051.55123","480818.460917","484701.671669","485468.688639","486235.220207","472418.569499","473185.037996","473952.446379","474702.172529","475468.646591","485478.289703","Mapping"
"Mixed","Both","cave","18","m150dime.wav","space","547.090634238","148","483952.325183","476235.401073","477002.00437","477768.481524","478535.690491","479302.046139","480051.55123","480818.460917","484701.671669","485468.688639","486235.220207","487001.758268","473185.037996","473952.446379","474702.172529","475468.646591","486244.221166","Mapping"
"Mixed","Both","cave","18","m160park.wav","None","726.668321528","148","483952.325183","476235.401073","477002.00437","477768.481524","478535.690491","479302.046139","480051.55123","480818.460917","484701.671669","485468.688639","486235.220207","487001.758268","487768.439476","473952.446379","474702.172529","475468.646591","487011.192997","Mapping"
"Mixed","Both","cave","18","m150knife.wav","None","724.908198696","148","483952.325183","476235.401073","477002.00437","477768.481524","478535.690491","479302.046139","480051.55123","480818.460917","484701.671669","485468.688639","486235.220207","487001.758268","487768.439476","488535.385028","474702.172529","475468.646591","487777.52082","Mapping"
"Mixed","Both","cave","18","m160gnash.wav","None","721.67733917","148","483952.325183","476235.401073","477002.00437","477768.481524","478535.690491","479302.046139","480051.55123","480818.460917","484701.671669","485468.688639","486235.220207","487001.758268","487768.439476","488535.385028","489301.554244","475468.646591","488545.254145","Mapping"
"Mixed","Both","cave","18","m150park.wav","None","721.219453029","148","483952.325183","476235.401073","477002.00437","477768.481524","478535.690491","479302.046139","480051.55123","480818.460917","484701.671669","485468.688639","486235.220207","487001.758268","487768.439476","488535.385028","489301.554244","490051.573182","489310.320542","Mapping"
"Mixed","Both","cave","18","m150dime.wav","None","735.49490748","148","483952.325183","490818.316842","477002.00437","477768.481524","478535.690491","479302.046139","480051.55123","480818.460917","484701.671669","485468.688639","486235.220207","487001.758268","487768.439476","488535.385028","489301.554244","490051.573182","490060.628246","Mapping"
"Mixed","Both","cave","18","m160cave.wav","None","733.335950878","148","483952.325183","490818.316842","491585.109971","477768.481524","478535.690491","479302.046139","480051.55123","480818.460917","484701.671669","485468.688639","486235.220207","487001.758268","487768.439476","488535.385028","489301.554244","490051.573182","490827.32986","Mapping"
"Mixed","Both","cave","18","m150gnash.wav","space","644.849035423","148","483952.325183","490818.316842","491585.109971","492351.53673","478535.690491","479302.046139","480051.55123","480818.460917","484701.671669","485468.688639","486235.220207","487001.758268","487768.439476","488535.385028","489301.554244","490051.573182","491594.359815","Mapping"
"Mixed","Both","cave","18","m150cave.wav","None","730.79516599","148","483952.325183","490818.316842","491585.109971","492351.53673","493118.221339","479302.046139","480051.55123","480818.460917","484701.671669","485468.688639","486235.220207","487001.758268","487768.439476","488535.385028","489301.554244","490051.573182","492360.370117","Mapping"
"Mixed","Both","cave","18","m160tile.wav","None","728.479767684","148","483952.325183","490818.316842","491585.109971","492351.53673","493118.221339","493884.705604","480051.55123","480818.460917","484701.671669","485468.688639","486235.220207","487001.758268","487768.439476","488535.385028","489301.554244","490051.573182","493127.200038","Mapping"
"Mixed","Both","cave","18","m160cave.wav","space","9.57385729998","148","483952.325183","490818.316842","491585.109971","492351.53673","493118.221339","493884.705604","494651.525321","480818.460917","484701.671669","485468.688639","486235.220207","487001.758268","487768.439476","488535.385028","489301.554244","490051.573182","493893.608246","Mapping"
"Mixed","Both","cave","18","m160tile.wav","None","722.831173334","148","483952.325183","490818.316842","491585.109971","492351.53673","493118.221339","493884.705604","494651.525321","495418.165719","484701.671669","485468.688639","486235.220207","487001.758268","487768.439476","488535.385028","489301.554244","490051.573182","494660.643767","Mapping"
"Mixed","Both","done","42","m150knife.wav","space","0.022878870368","148","498535.284546","490818.316842","491585.109971","492351.53673","493118.221339","493884.705604","494651.525321","495418.165719","484701.671669","485468.688639","486235.220207","487001.758268","487768.439476","488535.385028","489301.554244","490051.573182","495427.021057","Mapping"
"Mixed","Both","done","42","m160cling.wav","None","720.612546429","148","498535.284546","490818.316842","491585.109971","492351.53673","493118.221339","493884.705604","494651.525321","495418.165719","499284.667823","485468.688639","486235.220207","487001.758268","487768.439476","488535.385028","489301.554244","490051.573182","498544.584785","Mapping"
"Mixed","Both","done","42","m150done.wav","None","735.891576391","148","498535.284546","490818.316842","491585.109971","492351.53673","493118.221339","493884.705604","494651.525321","495418.165719","499284.667823","500051.22598","486235.220207","487001.758268","487768.439476","488535.385028","489301.554244","490051.573182","499293.896334","Mapping"
"Mixed","Both","done","42","m150gnash.wav","space","595.034122001","148","498535.284546","490818.316842","491585.109971","492351.53673","493118.221339","493884.705604","494651.525321","495418.165719","499284.667823","500051.22598","500817.858339","487001.758268","487768.439476","488535.385028","489301.554244","490051.573182","500060.018247","Mapping"
"Mixed","Both","done","42","m150done.wav","None","730.65696517","148","498535.284546","490818.316842","491585.109971","492351.53673","493118.221339","493884.705604","494651.525321","495418.165719","499284.667823","500051.22598","500817.858339","501584.513267","487768.439476","488535.385028","489301.554244","490051.573182","500826.759126","Mapping"
"Mixed","Both","done","42","m150greet.wav","None","728.800070938","148","498535.284546","490818.316842","491585.109971","492351.53673","493118.221339","493884.705604","494651.525321","495418.165719","499284.667823","500051.22598","500817.858339","501584.513267","502351.5593","488535.385028","489301.554244","490051.573182","501593.32223","Mapping"
"Mixed","Both","done","42","m160done.wav","space","0.034318305552","148","498535.284546","490818.316842","491585.109971","492351.53673","493118.221339","493884.705604","494651.525321","495418.165719","499284.667823","500051.22598","500817.858339","501584.513267","502351.5593","503118.002135","489301.554244","490051.573182","502361.362873","Mapping"
"Mixed","Both","done","42","m150dime.wav","None","722.83426486","148","498535.284546","490818.316842","491585.109971","492351.53673","493118.221339","493884.705604","494651.525321","495418.165719","499284.667823","500051.22598","500817.858339","501584.513267","502351.5593","503118.002135","503885.213575","490051.573182","503126.850672","Mapping"
"Mixed","Both","done","42","m160dime.wav","space","0.0392650254071","148","498535.284546","490818.316842","491585.109971","492351.53673","493118.221339","493884.705604","494651.525321","495418.165719","499284.667823","500051.22598","500817.858339","501584.513267","502351.5593","503118.002135","503885.213575","504634.466999","503894.618933","Mapping"
"Mixed","Both","done","42","m160gnash.wav","None","734.20998361","148","498535.284546","505401.111107","491585.109971","492351.53673","493118.221339","493884.705604","494651.525321","495418.165719","499284.667823","500051.22598","500817.858339","501584.513267","502351.5593","503118.002135","503885.213575","504634.466999","504643.251847","Mapping"
"Mixed","Both","done","42","m160lash.wav","None","732.304858509","148","498535.284546","505401.111107","506167.772837","492351.53673","493118.221339","493884.705604","494651.525321","495418.165719","499284.667823","500051.22598","500817.858339","501584.513267","502351.5593","503118.002135","503885.213575","504634.466999","505409.916359","Mapping"
"Mixed","Both","done","42","m160done.wav","None","730.386747979","148","498535.284546","505401.111107","506167.772837","506934.393138","493118.221339","493884.705604","494651.525321","495418.165719","499284.667823","500051.22598","500817.858339","501584.513267","502351.5593","503118.002135","503885.213575","504634.466999","506176.497704","Mapping"
"Mixed","Both","done","42","m150greet.wav","space","455.845584162","148","498535.284546","505401.111107","506167.772837","506934.393138","507701.225841","493884.705604","494651.525321","495418.165719","499284.667823","500051.22598","500817.858339","501584.513267","502351.5593","503118.002135","503885.213575","504634.466999","506943.077813","Mapping"
"Mixed","Both","done","42","m160bluff.wav","None","724.494215567","148","498535.284546","505401.111107","506167.772837","506934.393138","507701.225841","508468.332781","494651.525321","495418.165719","499284.667823","500051.22598","500817.858339","501584.513267","502351.5593","503118.002135","503885.213575","504634.466999","507710.300074","Mapping"
