"Condition","Talker","Target","Trial","current_stimulus","response_response","response_time_response","subject_nr","time_Audio1","time_Audio10","time_Audio11","time_Audio12","time_Audio13","time_Audio14","time_Audio15","time_Audio16","time_Audio2","time_Audio3","time_Audio4","time_Audio5","time_Audio6","time_Audio7","time_Audio8","time_Audio9","time_response","title"
"Mixed","Both","tile","27","m160jaw.wav","NA","NA","172","99018.4121649","NA","NA","NA","NA","NA","NA","NA","NA","NA","NA","NA","NA","NA","NA","NA","NA","Mapping"
"Mixed","Both","tile","27","m160gnash.wav","None","730.960843153","172","99018.4121649","NA","NA","NA","NA","NA","NA","NA","99786.3825294","NA","NA","NA","NA","NA","NA","NA","99032.5995553","Mapping"
"Mixed","Both","tile","27","m150tile.wav","None","730.203382671","172","99018.4121649","NA","NA","NA","NA","NA","NA","NA","99786.3825294","100552.980499","NA","NA","NA","NA","NA","NA","99796.3275225","Mapping"
"Mixed","Both","tile","27","m150reek.wav","space","525.951215532","172","99018.4121649","NA","NA","NA","NA","NA","NA","NA","99786.3825294","100552.980499","101320.225556","NA","NA","NA","NA","NA","100562.708457","Mapping"
"Mixed","Both","tile","27","m160done.wav","None","723.222688306","172","99018.4121649","NA","NA","NA","NA","NA","NA","NA","99786.3825294","100552.980499","101320.225556","102071.387718","NA","NA","NA","NA","101329.89168","Mapping"
"Mixed","Both","tile","27","m160tile.wav","None","735.249306541","172","99018.4121649","NA","NA","NA","NA","NA","NA","NA","99786.3825294","100552.980499","101320.225556","102071.387718","102837.898811","NA","NA","NA","102081.302721","Mapping"
"Mixed","Both","tile","27","m150gnash.wav","space","422.856510617","172","99018.4121649","NA","NA","NA","NA","NA","NA","NA","99786.3825294","100552.980499","101320.225556","102071.387718","102837.898811","103605.547641","NA","NA","102841.754748","Mapping"
"Mixed","Both","tile","27","m160tile.wav","None","727.382537909","172","99018.4121649","NA","NA","NA","NA","NA","NA","NA","99786.3825294","100552.980499","101320.225556","102071.387718","102837.898811","103605.547641","104372.638115","NA","103615.295076","Mapping"
"Mixed","Both","tile","27","m160gnash.wav","space","578.314925544","172","99018.4121649","NA","NA","NA","NA","NA","NA","NA","99786.3825294","100552.980499","101320.225556","102071.387718","102837.898811","103605.547641","104372.638115","105139.833396","104382.250134","Mapping"
"Mixed","Both","tile","27","m150park.wav","None","720.199339092","172","99018.4121649","105890.558703","NA","NA","NA","NA","NA","NA","99786.3825294","100552.980499","101320.225556","102071.387718","102837.898811","103605.547641","104372.638115","105139.833396","105149.41759","Mapping"
"Mixed","Both","tile","27","m150bluff.wav","space","380.077613518","172","99018.4121649","105890.558703","106657.720903","NA","NA","NA","NA","NA","99786.3825294","100552.980499","101320.225556","102071.387718","102837.898811","103605.547641","104372.638115","105139.833396","105900.427022","Mapping"
"Mixed","Both","tile","27","m150dime.wav","None","728.360125795","172","99018.4121649","105890.558703","106657.720903","107424.957923","NA","NA","NA","NA","99786.3825294","100552.980499","101320.225556","102071.387718","102837.898811","103605.547641","104372.638115","105139.833396","106667.30077","Mapping"
"Mixed","Both","tile","27","m150tile.wav","None","724.113709293","172","99018.4121649","105890.558703","106657.720903","107424.957923","108192.053652","NA","NA","NA","99786.3825294","100552.980499","101320.225556","102071.387718","102837.898811","103605.547641","104372.638115","105139.833396","107434.537479","Mapping"
"Mixed","Both","tile","27","m160jaw.wav","space","559.083466884","172","99018.4121649","105890.558703","106657.720903","107424.957923","108192.053652","108942.693938","NA","NA","99786.3825294","100552.980499","101320.225556","102071.387718","102837.898811","103605.547641","104372.638115","105139.833396","108201.329297","Mapping"
"Mixed","Both","tile","27","m160jaw.wav","None","733.047415502","172","99018.4121649","105890.558703","106657.720903","107424.957923","108192.053652","108942.693938","109709.817802","NA","99786.3825294","100552.980499","101320.225556","102071.387718","102837.898811","103605.547641","104372.638115","105139.833396","108952.218463","Mapping"
"Mixed","Both","tile","27","m150lash.wav","None","729.241253342","172","99018.4121649","105890.558703","106657.720903","107424.957923","108192.053652","108942.693938","109709.817802","110477.288242","99786.3825294","100552.980499","101320.225556","102071.387718","102837.898811","103605.547641","104372.638115","105139.833396","109719.03285","Mapping"
"Mixed","Both","done","45","m150cad.wav","None","724.501405377","172","113612.609337","105890.558703","106657.720903","107424.957923","108192.053652","108942.693938","109709.817802","110477.288242","99786.3825294","100552.980499","101320.225556","102071.387718","102837.898811","103605.547641","104372.638115","105139.833396","110486.950656","Mapping"
"Mixed","Both","done","45","m160jolt.wav","None","735.880626831","172","113612.609337","105890.558703","106657.720903","107424.957923","108192.053652","108942.693938","109709.817802","110477.288242","114380.073904","100552.980499","101320.225556","102071.387718","102837.898811","103605.547641","104372.638115","105139.833396","113621.928575","Mapping"
"Mixed","Both","done","45","m160dime.wav","None","731.185917277","172","113612.609337","105890.558703","106657.720903","107424.957923","108192.053652","108942.693938","109709.817802","110477.288242","114380.073904","115147.411093","101320.225556","102071.387718","102837.898811","103605.547641","104372.638115","105139.833396","114389.807735","Mapping"
"Mixed","Both","done","45","m160done.wav","None","727.509914897","172","113612.609337","105890.558703","106657.720903","107424.957923","108192.053652","108942.693938","109709.817802","110477.288242","114380.073904","115147.411093","115915.240168","102071.387718","102837.898811","103605.547641","104372.638115","105139.833396","115156.744243","Mapping"
"Mixed","Both","done","45","m150depth.wav","space","531.359174754","172","113612.609337","105890.558703","106657.720903","107424.957923","108192.053652","108942.693938","109709.817802","110477.288242","114380.073904","115147.411093","115915.240168","116681.711997","102837.898811","103605.547641","104372.638115","105139.833396","115924.766239","Mapping"
"Mixed","Both","done","45","m150knife.wav","None","719.581003767","172","113612.609337","105890.558703","106657.720903","107424.957923","108192.053652","108942.693938","109709.817802","110477.288242","114380.073904","115147.411093","115915.240168","116681.711997","117432.254277","103605.547641","104372.638115","105139.833396","116691.907106","Mapping"
"Mixed","Both","done","45","m160romp.wav","None","732.408675365","172","113612.609337","105890.558703","106657.720903","107424.957923","108192.053652","108942.693938","109709.817802","110477.288242","114380.073904","115147.411093","115915.240168","116681.711997","117432.254277","118199.536744","104372.638115","105139.833396","117442.252446","Mapping"
"Mixed","Both","done","45","m150romp.wav","None","728.914772626","172","113612.609337","105890.558703","106657.720903","107424.957923","108192.053652","108942.693938","109709.817802","110477.288242","114380.073904","115147.411093","115915.240168","116681.711997","117432.254277","118199.536744","118966.583624","105139.833396","118208.756429","Mapping"
"Mixed","Both","done","45","m150park.wav","None","724.484710488","172","113612.609337","105890.558703","106657.720903","107424.957923","108192.053652","108942.693938","109709.817802","110477.288242","114380.073904","115147.411093","115915.240168","116681.711997","117432.254277","118199.536744","118966.583624","119734.065813","118976.314673","Mapping"
"Mixed","Both","done","45","m150done.wav","None","720.938249491","172","113612.609337","120484.246058","106657.720903","107424.957923","108192.053652","108942.693938","109709.817802","110477.288242","114380.073904","115147.411093","115915.240168","116681.711997","117432.254277","118199.536744","118966.583624","119734.065813","119743.731628","Mapping"
"Mixed","Both","done","45","m160cling.wav","space","506.297742948","172","113612.609337","120484.246058","121251.375487","107424.957923","108192.053652","108942.693938","109709.817802","110477.288242","114380.073904","115147.411093","115915.240168","116681.711997","117432.254277","118199.536744","118966.583624","119734.065813","120493.656809","Mapping"
"Mixed","Both","done","45","m150done.wav","None","729.946773965","172","113612.609337","120484.246058","121251.375487","122018.648369","108192.053652","108942.693938","109709.817802","110477.288242","114380.073904","115147.411093","115915.240168","116681.711997","117432.254277","118199.536744","118966.583624","119734.065813","121260.705545","Mapping"
"Mixed","Both","done","45","m160park.wav","space","475.644706748","172","113612.609337","120484.246058","121251.375487","122018.648369","122785.488726","108942.693938","109709.817802","110477.288242","114380.073904","115147.411093","115915.240168","116681.711997","117432.254277","118199.536744","118966.583624","119734.065813","122028.258534","Mapping"
"Mixed","Both","done","45","m160done.wav","None","725.027608685","172","113612.609337","120484.246058","121251.375487","122018.648369","122785.488726","123553.371905","109709.817802","110477.288242","114380.073904","115147.411093","115915.240168","116681.711997","117432.254277","118199.536744","118966.583624","119734.065813","122794.690789","Mapping"
"Mixed","Both","done","45","m160romp.wav","space","389.146425296","172","113612.609337","120484.246058","121251.375487","122018.648369","122785.488726","123553.371905","124303.767949","110477.288242","114380.073904","115147.411093","115915.240168","116681.711997","117432.254277","118199.536744","118966.583624","119734.065813","123562.745866","Mapping"
"Mixed","Both","done","45","m150greet.wav","None","733.142947778","172","113612.609337","120484.246058","121251.375487","122018.648369","122785.488726","123553.371905","124303.767949","125070.873262","114380.073904","115147.411093","115915.240168","116681.711997","117432.254277","118199.536744","118966.583624","119734.065813","124312.946516","Mapping"
"Mixed","Both","ball","2","m160jolt.wav","None","729.343587998","172","128190.393731","120484.246058","121251.375487","122018.648369","122785.488726","123553.371905","124303.767949","125070.873262","114380.073904","115147.411093","115915.240168","116681.711997","117432.254277","118199.536744","118966.583624","119734.065813","125079.978247","Mapping"
"Mixed","Both","ball","2","m150dime.wav","None","735.882482026","172","128190.393731","120484.246058","121251.375487","122018.648369","122785.488726","123553.371905","124303.767949","125070.873262","128957.236871","115147.411093","115915.240168","116681.711997","117432.254277","118199.536744","118966.583624","119734.065813","128199.393599","Mapping"
"Mixed","Both","ball","2","m160jolt.wav","None","731.758495793","172","128190.393731","120484.246058","121251.375487","122018.648369","122785.488726","123553.371905","124303.767949","125070.873262","128957.236871","129724.421022","115915.240168","116681.711997","117432.254277","118199.536744","118966.583624","119734.065813","128967.175989","Mapping"
"Mixed","Both","ball","2","m150romp.wav","None","728.567886166","172","128190.393731","120484.246058","121251.375487","122018.648369","122785.488726","123553.371905","124303.767949","125070.873262","128957.236871","129724.421022","130491.688958","116681.711997","117432.254277","118199.536744","118966.583624","119734.065813","129733.513022","Mapping"
"Mixed","Both","ball","2","m160dime.wav","None","728.450402617","172","128190.393731","120484.246058","121251.375487","122018.648369","122785.488726","123553.371905","124303.767949","125070.873262","128957.236871","129724.421022","130491.688958","131258.939271","117432.254277","118199.536744","118966.583624","119734.065813","130496.87679","Mapping"
"Mixed","Both","ball","2","m150ball.wav","None","719.871621113","172","128190.393731","120484.246058","121251.375487","122018.648369","122785.488726","123553.371905","124303.767949","125070.873262","128957.236871","129724.421022","130491.688958","131258.939271","132009.487734","118199.536744","118966.583624","119734.065813","131268.662282","Mapping"
"Mixed","Both","ball","2","m150cave.wav","space","364.259673283","172","128190.393731","120484.246058","121251.375487","122018.648369","122785.488726","123553.371905","124303.767949","125070.873262","128957.236871","129724.421022","130491.688958","131258.939271","132009.487734","132776.653026","118966.583624","119734.065813","132019.259284","Mapping"
"Mixed","Both","ball","2","m160knife.wav","None","728.590764571","172","128190.393731","120484.246058","121251.375487","122018.648369","122785.488726","123553.371905","124303.767949","125070.873262","128957.236871","129724.421022","130491.688958","131258.939271","132009.487734","132776.653026","133543.90705","119734.065813","132786.192701","Mapping"
"Mixed","Both","ball","2","m160ball.wav","None","724.951862823","172","128190.393731","120484.246058","121251.375487","122018.648369","122785.488726","123553.371905","124303.767949","125070.873262","128957.236871","129724.421022","130491.688958","131258.939271","132009.487734","132776.653026","133543.90705","134311.076979","133553.200935","Mapping"
"Mixed","Both","ball","2","m160cling.wav","space","511.231748387","172","128190.393731","135061.666253","121251.375487","122018.648369","122785.488726","123553.371905","124303.767949","125070.873262","128957.236871","129724.421022","130491.688958","131258.939271","132009.487734","132776.653026","133543.90705","134311.076979","134320.227721","Mapping"
"Mixed","Both","ball","2","m150greet.wav","None","732.926839497","172","128190.393731","135061.666253","135828.90018","122018.648369","122785.488726","123553.371905","124303.767949","125070.873262","128957.236871","129724.421022","130491.688958","131258.939271","132009.487734","132776.653026","133543.90705","134311.076979","135071.159552","Mapping"
"Mixed","Both","ball","2","m150ball.wav","None","728.723088279","172","128190.393731","135061.666253","135828.90018","136595.899758","122785.488726","123553.371905","124303.767949","125070.873262","128957.236871","129724.421022","130491.688958","131258.939271","132009.487734","132776.653026","133543.90705","134311.076979","135839.096217","Mapping"
"Mixed","Both","ball","2","m150jolt.wav","space","513.770014048","172","128190.393731","135061.666253","135828.90018","136595.899758","137363.338664","123553.371905","124303.767949","125070.873262","128957.236871","129724.421022","130491.688958","131258.939271","132009.487734","132776.653026","133543.90705","134311.076979","136605.630189","Mapping"
"Mixed","Both","ball","2","m160ball.wav","None","721.387778874","172","128190.393731","135061.666253","135828.90018","136595.899758","137363.338664","138113.926082","124303.767949","125070.873262","128957.236871","129724.421022","130491.688958","131258.939271","132009.487734","132776.653026","133543.90705","134311.076979","137372.476111","Mapping"
"Mixed","Both","ball","2","m150cave.wav","space","403.694614302","172","128190.393731","135061.666253","135828.90018","136595.899758","137363.338664","138113.926082","138880.928134","125070.873262","128957.236871","129724.421022","130491.688958","131258.939271","132009.487734","132776.653026","133543.90705","134311.076979","138123.607355","Mapping"
"Mixed","Both","ball","2","m160cave.wav","None","730.422273278","172","128190.393731","135061.666253","135828.90018","136595.899758","137363.338664","138113.926082","138880.928134","139648.109503","128957.236871","129724.421022","130491.688958","131258.939271","132009.487734","132776.653026","133543.90705","134311.076979","138890.036828","Mapping"
"Mixed","Both","done","40","m150jolt.wav","None","725.902862381","172","142750.279797","135061.666253","135828.90018","136595.899758","137363.338664","138113.926082","138880.928134","139648.109503","128957.236871","129724.421022","130491.688958","131258.939271","132009.487734","132776.653026","133543.90705","134311.076979","139657.884453","Mapping"
"Mixed","Both","done","40","m150lash.wav","None","735.976777971","172","142750.279797","135061.666253","135828.90018","136595.899758","137363.338664","138113.926082","138880.928134","139648.109503","143517.888126","129724.421022","130491.688958","131258.939271","132009.487734","132776.653026","133543.90705","134311.076979","142760.195419","Mapping"
"Mixed","Both","done","40","m160done.wav","None","731.808890123","172","142750.279797","135061.666253","135828.90018","136595.899758","137363.338664","138113.926082","138880.928134","139648.109503","143517.888126","144285.151115","130491.688958","131258.939271","132009.487734","132776.653026","133543.90705","134311.076979","143527.481286","Mapping"
"Mixed","Both","done","40","m150cad.wav","space","440.194936004","172","142750.279797","135061.666253","135828.90018","136595.899758","137363.338664","138113.926082","138880.928134","139648.109503","143517.888126","144285.151115","145052.343923","131258.939271","132009.487734","132776.653026","133543.90705","134311.076979","144294.904424","Mapping"
"Mixed","Both","done","40","m150done.wav","None","723.229490221","172","142750.279797","135061.666253","135828.90018","136595.899758","137363.338664","138113.926082","138880.928134","139648.109503","143517.888126","144285.151115","145052.343923","145819.365453","132009.487734","132776.653026","133543.90705","134311.076979","145062.063842","Mapping"
"Mixed","Both","done","40","m160jaw.wav","space","521.763850003","172","142750.279797","135061.666253","135828.90018","136595.899758","137363.338664","138113.926082","138880.928134","139648.109503","143517.888126","144285.151115","145052.343923","145819.365453","146570.083339","132776.653026","133543.90705","134311.076979","145829.249849","Mapping"
"Mixed","Both","done","40","m150tile.wav","None","732.282843441","172","142750.279797","135061.666253","135828.90018","136595.899758","137363.338664","138113.926082","138880.928134","139648.109503","143517.888126","144285.151115","145052.343923","145819.365453","146570.083339","147337.474633","133543.90705","134311.076979","146579.692267","Mapping"
"Mixed","Both","done","40","m160cave.wav","None","727.821246721","172","142750.279797","135061.666253","135828.90018","136595.899758","137363.338664","138113.926082","138880.928134","139648.109503","143517.888126","144285.151115","145052.343923","145819.365453","146570.083339","147337.474633","148104.231515","134311.076979","147347.423954","Mapping"
"Mixed","Both","done","40","m150done.wav","None","724.729262292","172","142750.279797","135061.666253","135828.90018","136595.899758","137363.338664","138113.926082","138880.928134","139648.109503","143517.888126","144285.151115","145052.343923","145819.365453","146570.083339","147337.474633","148104.231515","148871.613842","148113.855592","Mapping"
"Mixed","Both","done","40","m160cave.wav","space","445.645251311","172","142750.279797","149622.225685","135828.90018","136595.899758","137363.338664","138113.926082","138880.928134","139648.109503","143517.888126","144285.151115","145052.343923","145819.365453","146570.083339","147337.474633","148104.231515","148871.613842","148881.300371","Mapping"
"Mixed","Both","done","40","m160done.wav","None","732.844910584","172","142750.279797","149622.225685","150389.473216","136595.899758","137363.338664","138113.926082","138880.928134","139648.109503","143517.888126","144285.151115","145052.343923","145819.365453","146570.083339","147337.474633","148104.231515","148871.613842","149632.351541","Mapping"
"Mixed","Both","done","40","m160cad.wav","space","415.854792576","172","142750.279797","149622.225685","150389.473216","151156.51515","137363.338664","138113.926082","138880.928134","139648.109503","143517.888126","144285.151115","145052.343923","145819.365453","146570.083339","147337.474633","148104.231515","148871.613842","150399.051845","Mapping"
"Mixed","Both","done","40","m150depth.wav","None","724.866532255","172","142750.279797","149622.225685","150389.473216","151156.51515","151923.954364","138113.926082","138880.928134","139648.109503","143517.888126","144285.151115","145052.343923","145819.365453","146570.083339","147337.474633","148104.231515","148871.613842","151166.569897","Mapping"
"Mixed","Both","done","40","m150ball.wav","None","720.797577873","172","142750.279797","149622.225685","150389.473216","151156.51515","151923.954364","152674.233852","138880.928134","139648.109503","143517.888126","144285.151115","145052.343923","145819.365453","146570.083339","147337.474633","148104.231515","148871.613842","151933.895338","Mapping"
"Mixed","Both","done","40","m160priest.wav","None","734.466494061","172","142750.279797","149622.225685","150389.473216","151156.51515","151923.954364","152674.233852","153441.828887","139648.109503","143517.888126","144285.151115","145052.343923","145819.365453","146570.083339","147337.474633","148104.231515","148871.613842","152683.900594","Mapping"
"Mixed","Both","done","40","m160jolt.wav","None","730.167519301","172","142750.279797","149622.225685","150389.473216","151156.51515","151923.954364","152674.233852","153441.828887","154209.42083","143517.888126","144285.151115","145052.343923","145819.365453","146570.083339","147337.474633","148104.231515","148871.613842","153451.370107","Mapping"
"Mixed","Both","cave","23","m160greet.wav","None","726.120206527","172","157310.965679","149622.225685","150389.473216","151156.51515","151923.954364","152674.233852","153441.828887","154209.42083","143517.888126","144285.151115","145052.343923","145819.365453","146570.083339","147337.474633","148104.231515","148871.613842","154218.676071","Mapping"
"Mixed","Both","cave","23","m160cave.wav","None","735.426459461","172","157310.965679","149622.225685","150389.473216","151156.51515","151923.954364","152674.233852","153441.828887","154209.42083","158078.166835","144285.151115","145052.343923","145819.365453","146570.083339","147337.474633","148104.231515","148871.613842","157320.665502","Mapping"
"Mixed","Both","cave","23","m160tile.wav","space","503.393423278","172","157310.965679","149622.225685","150389.473216","151156.51515","151923.954364","152674.233852","153441.828887","154209.42083","158078.166835","158846.173681","145052.343923","145819.365453","146570.083339","147337.474633","148104.231515","148871.613842","158087.214932","Mapping"
"Mixed","Both","cave","23","m150cave.wav","None","726.850460749","172","157310.965679","149622.225685","150389.473216","151156.51515","151923.954364","152674.233852","153441.828887","154209.42083","158078.166835","158846.173681","159612.842449","145819.365453","146570.083339","147337.474633","148104.231515","148871.613842","158856.277585","Mapping"
"Mixed","Both","cave","23","m150dime.wav","space","456.154784188","172","157310.965679","149622.225685","150389.473216","151156.51515","151923.954364","152674.233852","153441.828887","154209.42083","158078.166835","158846.173681","159612.842449","160379.889022","146570.083339","147337.474633","148104.231515","148871.613842","159622.405312","Mapping"
"Mixed","Both","cave","23","m150jolt.wav","None","719.975810498","172","157310.965679","149622.225685","150389.473216","151156.51515","151923.954364","152674.233852","153441.828887","154209.42083","158078.166835","158846.173681","159612.842449","160379.889022","161130.488188","147337.474633","148104.231515","148871.613842","160389.540305","Mapping"
"Mixed","Both","cave","23","m150cave.wav","None","733.084824402","172","157310.965679","149622.225685","150389.473216","151156.51515","151923.954364","152674.233852","153441.828887","154209.42083","158078.166835","158846.173681","159612.842449","160379.889022","161130.488188","161897.999748","148104.231515","148871.613842","161139.758578","Mapping"
"Mixed","Both","cave","23","m150cling.wav","space","690.810179804","172","157310.965679","149622.225685","150389.473216","151156.51515","151923.954364","152674.233852","153441.828887","154209.42083","158078.166835","158846.173681","159612.842449","160379.889022","161130.488188","161897.999748","162664.886789","148871.613842","161907.644539","Mapping"
"Mixed","Both","cave","23","m160jolt.wav","None","725.548246875","172","157310.965679","149622.225685","150389.473216","151156.51515","151923.954364","152674.233852","153441.828887","154209.42083","158078.166835","158846.173681","159612.842449","160379.889022","161130.488188","161897.999748","162664.886789","163432.878177","162674.127189","Mapping"
"Mixed","Both","cave","23","m160cave.wav","None","720.015693456","172","157310.965679","164182.810779","150389.473216","151156.51515","151923.954364","152674.233852","153441.828887","154209.42083","158078.166835","158846.173681","159612.842449","160379.889022","161130.488188","161897.999748","162664.886789","163432.878177","163443.007125","Mapping"
"Mixed","Both","cave","23","m150park.wav","space","453.636923805","172","157310.965679","164182.810779","164949.938352","151156.51515","151923.954364","152674.233852","153441.828887","154209.42083","158078.166835","158846.173681","159612.842449","160379.889022","161130.488188","161897.999748","162664.886789","163432.878177","164192.750825","Mapping"
"Mixed","Both","cave","23","m160bluff.wav","None","729.075849056","172","157310.965679","164182.810779","164949.938352","165717.081693","151923.954364","152674.233852","153441.828887","154209.42083","158078.166835","158846.173681","159612.842449","160379.889022","161130.488188","161897.999748","162664.886789","163432.878177","164960.007321","Mapping"
"Mixed","Both","cave","23","m150tile.wav","None","726.6467195","172","157310.965679","164182.810779","164949.938352","165717.081693","166484.326442","152674.233852","153441.828887","154209.42083","158078.166835","158846.173681","159612.842449","160379.889022","161130.488188","161897.999748","162664.886789","163432.878177","165726.520888","Mapping"
"Mixed","Both","cave","23","m150dime.wav","None","722.560761031","172","157310.965679","164182.810779","164949.938352","165717.081693","166484.326442","167234.675182","153441.828887","154209.42083","158078.166835","158846.173681","159612.842449","160379.889022","161130.488188","161897.999748","162664.886789","163432.878177","166493.88683","Mapping"
"Mixed","Both","cave","23","m160cling.wav","None","735.73933728","172","157310.965679","164182.810779","164949.938352","165717.081693","166484.326442","167234.675182","168002.3101","154209.42083","158078.166835","158846.173681","159612.842449","160379.889022","161130.488188","161897.999748","162664.886789","163432.878177","167244.080987","Mapping"
"Mixed","Both","cave","23","m160cling.wav","None","731.450255495","172","157310.965679","164182.810779","164949.938352","165717.081693","166484.326442","167234.675182","168002.3101","168769.267013","158078.166835","158846.173681","159612.842449","160379.889022","161130.488188","161897.999748","162664.886789","163432.878177","168011.774647","Mapping"
"Mixed","Both","done","47","m150ball.wav","None","728.507289663","172","171888.487899","164182.810779","164949.938352","165717.081693","166484.326442","167234.675182","168002.3101","168769.267013","158078.166835","158846.173681","159612.842449","160379.889022","161130.488188","161897.999748","162664.886789","163432.878177","168778.787519","Mapping"
"Mixed","Both","done","47","m160tile.wav","None","735.150063876","172","171888.487899","164182.810779","164949.938352","165717.081693","166484.326442","167234.675182","168002.3101","168769.267013","172655.433063","158846.173681","159612.842449","160379.889022","161130.488188","161897.999748","162664.886789","163432.878177","171899.000214","Mapping"
"Mixed","Both","done","47","m150done.wav","None","732.463088352","172","171888.487899","164182.810779","164949.938352","165717.081693","166484.326442","167234.675182","168002.3101","168769.267013","172655.433063","173423.135998","159612.842449","160379.889022","161130.488188","161897.999748","162664.886789","163432.878177","172665.286234","Mapping"
"Mixed","Both","done","47","m150bluff.wav","space","493.418440688","172","171888.487899","164182.810779","164949.938352","165717.081693","166484.326442","167234.675182","168002.3101","168769.267013","172655.433063","173423.135998","174190.08611","160379.889022","161130.488188","161897.999748","162664.886789","163432.878177","173432.65063","Mapping"
"Mixed","Both","done","47","m150bluff.wav","None","724.313431885","172","171888.487899","164182.810779","164949.938352","165717.081693","166484.326442","167234.675182","168002.3101","168769.267013","172655.433063","173423.135998","174190.08611","174957.411241","161130.488188","161897.999748","162664.886789","163432.878177","174199.625784","Mapping"
"Mixed","Both","done","47","m160park.wav","None","721.0949976","172","171888.487899","164182.810779","164949.938352","165717.081693","166484.326442","167234.675182","168002.3101","168769.267013","172655.433063","173423.135998","174190.08611","174957.411241","175707.569226","161897.999748","162664.886789","163432.878177","174966.81921","Mapping"
"Mixed","Both","done","47","m160done.wav","None","734.767314047","172","171888.487899","164182.810779","164949.938352","165717.081693","166484.326442","167234.675182","168002.3101","168769.267013","172655.433063","173423.135998","174190.08611","174957.411241","175707.569226","176475.192395","162664.886789","163432.878177","175716.634019","Mapping"
"Mixed","Both","done","47","m160cave.wav","space","432.578284293","172","171888.487899","164182.810779","164949.938352","165717.081693","166484.326442","167234.675182","168002.3101","168769.267013","172655.433063","173423.135998","174190.08611","174957.411241","175707.569226","176475.192395","177242.468988","163432.878177","176485.341439","Mapping"
"Mixed","Both","done","47","m150greet.wav","None","725.901625119","172","171888.487899","164182.810779","164949.938352","165717.081693","166484.326442","167234.675182","168002.3101","168769.267013","172655.433063","173423.135998","174190.08611","174957.411241","175707.569226","176475.192395","177242.468988","178009.516796","177251.83862","Mapping"
"Mixed","Both","done","47","m150done.wav","None","722.575291991","172","171888.487899","178759.970036","164949.938352","165717.081693","166484.326442","167234.675182","168002.3101","168769.267013","172655.433063","173423.135998","174190.08611","174957.411241","175707.569226","176475.192395","177242.468988","178009.516796","178019.242898","Mapping"
"Mixed","Both","done","47","m160park.wav","space","476.603745017","172","171888.487899","178759.970036","179527.196852","165717.081693","166484.326442","167234.675182","168002.3101","168769.267013","172655.433063","173423.135998","174190.08611","174957.411241","175707.569226","176475.192395","177242.468988","178009.516796","178769.25712","Mapping"
"Mixed","Both","done","47","m160jaw.wav","None","731.730670668","172","171888.487899","178759.970036","179527.196852","180294.739329","166484.326442","167234.675182","168002.3101","168769.267013","172655.433063","173423.135998","174190.08611","174957.411241","175707.569226","176475.192395","177242.468988","178009.516796","179536.433233","Mapping"
"Mixed","Both","done","47","m150cling.wav","None","733.279290609","172","171888.487899","178759.970036","179527.196852","180294.739329","181061.383673","167234.675182","168002.3101","168769.267013","172655.433063","173423.135998","174190.08611","174957.411241","175707.569226","176475.192395","177242.468988","178009.516796","180298.37854","Mapping"
"Mixed","Both","done","47","m160done.wav","None","724.662790541","172","171888.487899","178759.970036","179527.196852","180294.739329","181061.383673","181828.803719","168002.3101","168769.267013","172655.433063","173423.135998","174190.08611","174957.411241","175707.569226","176475.192395","177242.468988","178009.516796","181070.470727","Mapping"
"Mixed","Both","done","47","m150knife.wav","space","559.22290124","172","171888.487899","178759.970036","179527.196852","180294.739329","181061.383673","181828.803719","182579.657331","168769.267013","172655.433063","173423.135998","174190.08611","174957.411241","175707.569226","176475.192395","177242.468988","178009.516796","181838.523948","Mapping"
"Mixed","Both","done","47","m160depth.wav","None","731.621225365","172","171888.487899","178759.970036","179527.196852","180294.739329","181061.383673","181828.803719","182579.657331","183346.74224","172655.433063","173423.135998","174190.08611","174957.411241","175707.569226","176475.192395","177242.468988","178009.516796","182589.798646","Mapping"
"Mixed","Both","ball","4","m150done.wav","None","728.754314594","172","186465.586868","178759.970036","179527.196852","180294.739329","181061.383673","181828.803719","182579.657331","183346.74224","172655.433063","173423.135998","174190.08611","174957.411241","175707.569226","176475.192395","177242.468988","178009.516796","183356.082192","Mapping"
"Mixed","Both","ball","4","m160knife.wav","None","736.233077943","172","186465.586868","178759.970036","179527.196852","180294.739329","181061.383673","181828.803719","182579.657331","183346.74224","187232.902416","173423.135998","174190.08611","174957.411241","175707.569226","176475.192395","177242.468988","178009.516796","186474.626","Mapping"
"Mixed","Both","ball","4","m150ball.wav","None","732.330146711","172","186465.586868","178759.970036","179527.196852","180294.739329","181061.383673","181828.803719","182579.657331","183346.74224","187232.902416","188000.246098","174190.08611","174957.411241","175707.569226","176475.192395","177242.468988","178009.516796","187242.640885","Mapping"
"Mixed","Both","ball","4","m150romp.wav","space","619.458016939","172","186465.586868","178759.970036","179527.196852","180294.739329","181061.383673","181828.803719","182579.657331","183346.74224","187232.902416","188000.246098","188767.128811","174957.411241","175707.569226","176475.192395","177242.468988","178009.516796","188010.026613","Mapping"
"Mixed","Both","ball","4","m160ball.wav","None","725.346978754","172","186465.586868","178759.970036","179527.196852","180294.739329","181061.383673","181828.803719","182579.657331","183346.74224","187232.902416","188000.246098","188767.128811","189534.555658","175707.569226","176475.192395","177242.468988","178009.516796","188776.214009","Mapping"
"Mixed","Both","ball","4","m150tile.wav","space","517.38139987","172","186465.586868","178759.970036","179527.196852","180294.739329","181061.383673","181828.803719","182579.657331","183346.74224","187232.902416","188000.246098","188767.128811","189534.555658","190284.929751","176475.192395","177242.468988","178009.516796","189544.07771","Mapping"
"Mixed","Both","ball","4","m150ball.wav","None","733.469738159","172","186465.586868","178759.970036","179527.196852","180294.739329","181061.383673","181828.803719","182579.657331","183346.74224","187232.902416","188000.246098","188767.128811","189534.555658","190284.929751","191052.494179","177242.468988","178009.516796","190294.597112","Mapping"
"Mixed","Both","ball","4","m160reek.wav","space","535.060837865","172","186465.586868","178759.970036","179527.196852","180294.739329","181061.383673","181828.803719","182579.657331","183346.74224","187232.902416","188000.246098","188767.128811","189534.555658","190284.929751","191052.494179","191819.653597","178009.516796","191062.371155","Mapping"
"Mixed","Both","ball","4","m160dime.wav","None","725.602969062","172","186465.586868","178759.970036","179527.196852","180294.739329","181061.383673","181828.803719","182579.657331","183346.74224","187232.902416","188000.246098","188767.128811","189534.555658","190284.929751","191052.494179","191819.653597","192587.231627","191829.213367","Mapping"
"Mixed","Both","ball","4","m160tile.wav","None","721.523503307","172","186465.586868","193337.152171","179527.196852","180294.739329","181061.383673","181828.803719","182579.657331","183346.74224","187232.902416","188000.246098","188767.128811","189534.555658","190284.929751","191052.494179","191819.653597","192587.231627","192596.926813","Mapping"
"Mixed","Both","ball","4","m150depth.wav","None","735.215916764","172","186465.586868","193337.152171","194104.589531","180294.739329","181061.383673","181828.803719","182579.657331","183346.74224","187232.902416","188000.246098","188767.128811","189534.555658","190284.929751","191052.494179","191819.653597","192587.231627","193346.759553","Mapping"
"Mixed","Both","ball","4","m150cave.wav","None","731.943995692","172","186465.586868","193337.152171","194104.589531","194871.902296","181061.383673","181828.803719","182579.657331","183346.74224","187232.902416","188000.246098","188767.128811","189534.555658","190284.929751","191052.494179","191819.653597","192587.231627","194114.010794","Mapping"
"Mixed","Both","ball","4","m150reek.wav","None","727.602356113","172","186465.586868","193337.152171","194104.589531","194871.902296","195638.890126","181828.803719","182579.657331","183346.74224","187232.902416","188000.246098","188767.128811","189534.555658","190284.929751","191052.494179","191819.653597","192587.231627","194881.959207","Mapping"
"Mixed","Both","ball","4","m160priest.wav","None","725.188066717","172","186465.586868","193337.152171","194104.589531","194871.902296","195638.890126","196406.250193","182579.657331","183346.74224","187232.902416","188000.246098","188767.128811","189534.555658","190284.929751","191052.494179","191819.653597","192587.231627","195647.954609","Mapping"
"Mixed","Both","ball","4","m160ball.wav","None","720.524583478","172","186465.586868","193337.152171","194104.589531","194871.902296","195638.890126","196406.250193","197156.337069","183346.74224","187232.902416","188000.246098","188767.128811","189534.555658","190284.929751","191052.494179","191819.653597","192587.231627","196416.175399","Mapping"
"Mixed","Both","ball","4","m160gnash.wav","None","735.238485504","172","186465.586868","193337.152171","194104.589531","194871.902296","195638.890126","196406.250193","197156.337069","197924.240035","187232.902416","188000.246098","188767.128811","189534.555658","190284.929751","191052.494179","191819.653597","192587.231627","197165.715667","Mapping"
"Mixed","Both","tile","35","m150priest.wav","None","730.754319113","172","201043.196274","193337.152171","194104.589531","194871.902296","195638.890126","196406.250193","197156.337069","197924.240035","187232.902416","188000.246098","188767.128811","189534.555658","190284.929751","191052.494179","191819.653597","192587.231627","197933.818974","Mapping"
"Mixed","Both","tile","35","m150cave.wav","None","735.832087696","172","201043.196274","193337.152171","194104.589531","194871.902296","195638.890126","196406.250193","197156.337069","197924.240035","201810.0255","188000.246098","188767.128811","189534.555658","190284.929751","191052.494179","191819.653597","192587.231627","201052.863325","Mapping"
"Mixed","Both","tile","35","m160ball.wav","None","733.267233241","172","201043.196274","193337.152171","194104.589531","194871.902296","195638.890126","196406.250193","197156.337069","197924.240035","201810.0255","202577.635375","188767.128811","189534.555658","190284.929751","191052.494179","191819.653597","192587.231627","201819.098331","Mapping"
"Mixed","Both","tile","35","m150knife.wav","None","728.597875684","172","201043.196274","193337.152171","194104.589531","194871.902296","195638.890126","196406.250193","197156.337069","197924.240035","201810.0255","202577.635375","203344.570338","189534.555658","190284.929751","191052.494179","191819.653597","192587.231627","202587.291606","Mapping"
"Mixed","Both","tile","35","m150tile.wav","None","725.649035536","172","201043.196274","193337.152171","194104.589531","194871.902296","195638.890126","196406.250193","197156.337069","197924.240035","201810.0255","202577.635375","203344.570338","204111.628658","190284.929751","191052.494179","191819.653597","192587.231627","203354.365693","Mapping"
"Mixed","Both","tile","35","m160romp.wav","space","435.548457317","172","201043.196274","193337.152171","194104.589531","194871.902296","195638.890126","196406.250193","197156.337069","197924.240035","201810.0255","202577.635375","203344.570338","204111.628658","204862.259978","191052.494179","191819.653597","192587.231627","204121.390005","Mapping"
"Mixed","Both","tile","35","m150tile.wav","None","734.598817769","172","201043.196274","193337.152171","194104.589531","194871.902296","195638.890126","196406.250193","197156.337069","197924.240035","201810.0255","202577.635375","203344.570338","204111.628658","204862.259978","205629.542444","191819.653597","192587.231627","204872.157668","Mapping"
"Mixed","Both","tile","35","m160depth.wav","None","731.216215529","172","201043.196274","193337.152171","194104.589531","194871.902296","195638.890126","196406.250193","197156.337069","197924.240035","201810.0255","202577.635375","203344.570338","204111.628658","204862.259978","205629.542444","206397.432426","192587.231627","205639.289261","Mapping"
"Mixed","Both","tile","35","m150romp.wav","None","727.630490437","172","201043.196274","193337.152171","194104.589531","194871.902296","195638.890126","196406.250193","197156.337069","197924.240035","201810.0255","202577.635375","203344.570338","204111.628658","204862.259978","205629.542444","206397.432426","207163.847059","206407.172131","Mapping"
"Mixed","Both","tile","35","m160tile.wav","None","725.564632565","172","201043.196274","207931.26154","194104.589531","194871.902296","195638.890126","196406.250193","197156.337069","197924.240035","201810.0255","202577.635375","203344.570338","204111.628658","204862.259978","205629.542444","206397.432426","207163.847059","207173.162587","Mapping"
"Mixed","Both","tile","35","m160cling.wav","space","496.32770801","172","201043.196274","207931.26154","208681.679534","194871.902296","195638.890126","196406.250193","197156.337069","197924.240035","201810.0255","202577.635375","203344.570338","204111.628658","204862.259978","205629.542444","206397.432426","207163.847059","207940.509051","Mapping"
"Mixed","Both","tile","35","m160tile.wav","None","734.648902901","172","201043.196274","207931.26154","208681.679534","209449.106691","195638.890126","196406.250193","197156.337069","197924.240035","201810.0255","202577.635375","203344.570338","204111.628658","204862.259978","205629.542444","206397.432426","207163.847059","208690.768443","Mapping"
"Mixed","Both","tile","35","m160reek.wav","space","666.364919394","172","201043.196274","207931.26154","208681.679534","209449.106691","210216.103796","196406.250193","197156.337069","197924.240035","201810.0255","202577.635375","203344.570338","204111.628658","204862.259978","205629.542444","206397.432426","207163.847059","209458.409852","Mapping"
"Mixed","Both","tile","35","m150jaw.wav","None","726.252530701","172","201043.196274","207931.26154","208681.679534","209449.106691","210216.103796","210983.584749","197156.337069","197924.240035","201810.0255","202577.635375","203344.570338","204111.628658","204862.259978","205629.542444","206397.432426","207163.847059","210226.426592","Mapping"
"Mixed","Both","tile","35","m160ball.wav","None","728.953418322","172","201043.196274","207931.26154","208681.679534","209449.106691","210216.103796","210983.584749","211750.575361","197924.240035","201810.0255","202577.635375","203344.570338","204111.628658","204862.259978","205629.542444","206397.432426","207163.847059","210987.904747","Mapping"
"Mixed","Both","tile","35","m150ball.wav","None","720.702354796","172","201043.196274","207931.26154","208681.679534","209449.106691","210216.103796","210983.584749","211750.575361","212501.213792","201810.0255","202577.635375","203344.570338","204111.628658","204862.259978","205629.542444","206397.432426","207163.847059","211759.862445","Mapping"
"Mixed","Both","tile","32","m150reek.wav","None","733.194578905","172","215620.146224","207931.26154","208681.679534","209449.106691","210216.103796","210983.584749","211750.575361","212501.213792","201810.0255","202577.635375","203344.570338","204111.628658","204862.259978","205629.542444","206397.432426","207163.847059","212511.230821","Mapping"
"Mixed","Both","tile","32","m160romp.wav","None","735.333709512","172","215620.146224","207931.26154","208681.679534","209449.106691","210216.103796","210983.584749","211750.575361","212501.213792","216387.481867","202577.635375","203344.570338","204111.628658","204862.259978","205629.542444","206397.432426","207163.847059","215630.114095","Mapping"
"Mixed","Both","tile","32","m150jaw.wav","None","732.266457751","172","215620.146224","207931.26154","208681.679534","209449.106691","210216.103796","210983.584749","211750.575361","212501.213792","216387.481867","217154.459804","203344.570338","204111.628658","204862.259978","205629.542444","206397.432426","207163.847059","216397.112437","Mapping"
"Mixed","Both","tile","32","m150tile.wav","None","729.686763603","172","215620.146224","207931.26154","208681.679534","209449.106691","210216.103796","210983.584749","211750.575361","212501.213792","216387.481867","217154.459804","217921.409916","204111.628658","204862.259978","205629.542444","206397.432426","207163.847059","217163.789244","Mapping"
"Mixed","Both","tile","32","m160depth.wav","space","521.891227458","172","215620.146224","207931.26154","208681.679534","209449.106691","210216.103796","210983.584749","211750.575361","212501.213792","216387.481867","217154.459804","217921.409916","218689.0572","204862.259978","205629.542444","206397.432426","207163.847059","217930.579516","Mapping"
"Mixed","Both","tile","32","m160tile.wav","None","726.807177067","172","215620.146224","207931.26154","208681.679534","209449.106691","210216.103796","210983.584749","211750.575361","212501.213792","216387.481867","217154.459804","217921.409916","218689.0572","219456.401191","205629.542444","206397.432426","207163.847059","218698.213816","Mapping"
"Mixed","Both","tile","32","m150bluff.wav","space","610.275121871","172","215620.146224","207931.26154","208681.679534","209449.106691","210216.103796","210983.584749","211750.575361","212501.213792","216387.481867","217154.459804","217921.409916","218689.0572","219456.401191","220206.962639","206397.432426","207163.847059","219466.101323","Mapping"
"Mixed","Both","tile","32","m160jolt.wav","None","735.581661575","172","215620.146224","207931.26154","208681.679534","209449.106691","210216.103796","210983.584749","211750.575361","212501.213792","216387.481867","217154.459804","217921.409916","218689.0572","219456.401191","220206.962639","220973.930373","207163.847059","220216.15821","Mapping"
"Mixed","Both","tile","32","m160greet.wav","None","732.255636714","172","215620.146224","207931.26154","208681.679534","209449.106691","210216.103796","210983.584749","211750.575361","212501.213792","216387.481867","217154.459804","217921.409916","218689.0572","219456.401191","220206.962639","220973.930373","221741.395249","220983.198598","Mapping"
"Mixed","Both","tile","32","m150depth.wav","None","727.760958951","172","215620.146224","222508.606916","208681.679534","209449.106691","210216.103796","210983.584749","211750.575361","212501.213792","216387.481867","217154.459804","217921.409916","218689.0572","219456.401191","220206.962639","220973.930373","221741.395249","221751.53038","Mapping"
"Mixed","Both","tile","32","m150tile.wav","None","725.335848518","172","215620.146224","222508.606916","223275.571867","209449.106691","210216.103796","210983.584749","211750.575361","212501.213792","216387.481867","217154.459804","217921.409916","218689.0572","219456.401191","220206.962639","220973.930373","221741.395249","222518.037454","Mapping"
"Mixed","Both","tile","32","m160ball.wav","space","471.372629516","172","215620.146224","222508.606916","223275.571867","224026.316961","210216.103796","210983.584749","211750.575361","212501.213792","216387.481867","217154.459804","217921.409916","218689.0572","219456.401191","220206.962639","220973.930373","221741.395249","223284.88183","Mapping"
"Mixed","Both","tile","32","m150cad.wav","None","734.130738303","172","215620.146224","222508.606916","223275.571867","224026.316961","224793.328288","210983.584749","211750.575361","212501.213792","216387.481867","217154.459804","217921.409916","218689.0572","219456.401191","220206.962639","220973.930373","221741.395249","224036.064705","Mapping"
"Mixed","Both","tile","32","m160park.wav","None","731.54795263","172","215620.146224","222508.606916","223275.571867","224026.316961","224793.328288","225560.777396","211750.575361","212501.213792","216387.481867","217154.459804","217921.409916","218689.0572","219456.401191","220206.962639","220973.930373","221741.395249","224802.440383","Mapping"
"Mixed","Both","tile","32","m160tile.wav","None","727.526610252","172","215620.146224","222508.606916","223275.571867","224026.316961","224793.328288","225560.777396","226328.053061","212501.213792","216387.481867","217154.459804","217921.409916","218689.0572","219456.401191","220206.962639","220973.930373","221741.395249","225570.678178","Mapping"
"Mixed","Both","tile","32","m150jolt.wav","space","626.534552779","172","215620.146224","222508.606916","223275.571867","224026.316961","224793.328288","225560.777396","226328.053061","227095.14168","216387.481867","217154.459804","217921.409916","218689.0572","219456.401191","220206.962639","220973.930373","221741.395249","226337.595518","Mapping"
"Mixed","Both","ball","1","m160priest.wav","None","719.09499215","172","230197.251686","222508.606916","223275.571867","224026.316961","224793.328288","225560.777396","226328.053061","227095.14168","216387.481867","217154.459804","217921.409916","218689.0572","219456.401191","220206.962639","220973.930373","221741.395249","227105.819709","Mapping"
"Mixed","Both","ball","1","m150dime.wav","None","735.321651679","172","230197.251686","222508.606916","223275.571867","224026.316961","224793.328288","225560.777396","226328.053061","227095.14168","230964.453151","217154.459804","217921.409916","218689.0572","219456.401191","220206.962639","220973.930373","221741.395249","230207.237489","Mapping"
"Mixed","Both","ball","1","m160cad.wav","None","732.44763026","172","230197.251686","222508.606916","223275.571867","224026.316961","224793.328288","225560.777396","226328.053061","227095.14168","230964.453151","231732.04293","217921.409916","218689.0572","219456.401191","220206.962639","220973.930373","221741.395249","230974.042292","Mapping"
"Mixed","Both","ball","1","m160ball.wav","None","729.15252205","172","230197.251686","222508.606916","223275.571867","224026.316961","224793.328288","225560.777396","226328.053061","227095.14168","230964.453151","231732.04293","232499.23883","218689.0572","219456.401191","220206.962639","220973.930373","221741.395249","231741.619704","Mapping"
"Mixed","Both","ball","1","m160dime.wav","space","518.29931885","172","230197.251686","222508.606916","223275.571867","224026.316961","224793.328288","225560.777396","226328.053061","227095.14168","230964.453151","231732.04293","232499.23883","233266.546648","219456.401191","220206.962639","220973.930373","221741.395249","232509.61913","Mapping"
"Mixed","Both","ball","1","m160ball.wav","None","721.684579737","172","230197.251686","222508.606916","223275.571867","224026.316961","224793.328288","225560.777396","226328.053061","227095.14168","230964.453151","231732.04293","232499.23883","233266.546648","234016.62765","220206.962639","220973.930373","221741.395249","233275.592582","Mapping"
"Mixed","Both","ball","1","m150depth.wav","space","609.703471418","172","230197.251686","222508.606916","223275.571867","224026.316961","224793.328288","225560.777396","226328.053061","227095.14168","230964.453151","231732.04293","232499.23883","233266.546648","234016.62765","234784.179402","220973.930373","221741.395249","234026.141045","Mapping"
"Mixed","Both","ball","1","m150jaw.wav","None","730.574074667","172","230197.251686","222508.606916","223275.571867","224026.316961","224793.328288","225560.777396","226328.053061","227095.14168","230964.453151","231732.04293","232499.23883","233266.546648","234016.62765","234784.179402","235551.357369","221741.395249","234794.174789","Mapping"
"Mixed","Both","ball","1","m160depth.wav","None","727.996544912","172","230197.251686","222508.606916","223275.571867","224026.316961","224793.328288","225560.777396","226328.053061","227095.14168","230964.453151","231732.04293","232499.23883","233266.546648","234016.62765","234784.179402","235551.357369","236318.443206","235560.614464","Mapping"
"Mixed","Both","ball","1","m150tile.wav","None","724.707620218","172","230197.251686","237085.803582","223275.571867","224026.316961","224793.328288","225560.777396","226328.053061","227095.14168","230964.453151","231732.04293","232499.23883","233266.546648","234016.62765","234784.179402","235551.357369","236318.443206","236327.71545","Mapping"
"Mixed","Both","ball","1","m160greet.wav","None","721.251126844","172","230197.251686","237085.803582","237836.346481","224026.316961","224793.328288","225560.777396","226328.053061","227095.14168","230964.453151","231732.04293","232499.23883","233266.546648","234016.62765","234784.179402","235551.357369","236318.443206","237095.41993","Mapping"
"Mixed","Both","ball","1","m150done.wav","None","734.493700787","172","230197.251686","237085.803582","237836.346481","238603.705002","224793.328288","225560.777396","226328.053061","227095.14168","230964.453151","231732.04293","232499.23883","233266.546648","234016.62765","234784.179402","235551.357369","236318.443206","237846.575289","Mapping"
"Mixed","Both","ball","1","m150ball.wav","None","731.876288541","172","230197.251686","237085.803582","237836.346481","238603.705002","239370.741372","225560.777396","226328.053061","227095.14168","230964.453151","231732.04293","232499.23883","233266.546648","234016.62765","234784.179402","235551.357369","236318.443206","238613.026404","Mapping"
"Mixed","Both","ball","1","m160done.wav","space","639.304410201","172","230197.251686","237085.803582","237836.346481","238603.705002","239370.741372","240137.782997","226328.053061","227095.14168","230964.453151","231732.04293","232499.23883","233266.546648","234016.62765","234784.179402","235551.357369","236318.443206","239380.345971","Mapping"
"Mixed","Both","ball","1","m150ball.wav","None","724.345276132","172","230197.251686","237085.803582","237836.346481","238603.705002","239370.741372","240137.782997","240905.031764","227095.14168","230964.453151","231732.04293","232499.23883","233266.546648","234016.62765","234784.179402","235551.357369","236318.443206","240147.210443","Mapping"
"Mixed","Both","ball","1","m150reek.wav","space","511.49299508","172","230197.251686","237085.803582","237836.346481","238603.705002","239370.741372","240137.782997","240905.031764","241656.271835","230964.453151","231732.04293","232499.23883","233266.546648","234016.62765","234784.179402","235551.357369","236318.443206","240916.120368","Mapping"
"Mixed","Both","cave","16","m150gnash.wav","None","733.430474065","172","244774.512041","237085.803582","237836.346481","238603.705002","239370.741372","240137.782997","240905.031764","241656.271835","230964.453151","231732.04293","232499.23883","233266.546648","234016.62765","234784.179402","235551.357369","236318.443206","241665.400007","Mapping"
"Mixed","Both","cave","16","m150cave.wav","None","736.122086644","172","244774.512041","237085.803582","237836.346481","238603.705002","239370.741372","240137.782997","240905.031764","241656.271835","245541.801","231732.04293","232499.23883","233266.546648","234016.62765","234784.179402","235551.357369","236318.443206","244783.890639","Mapping"
"Mixed","Both","cave","16","m160dime.wav","space","628.361424431","172","244774.512041","237085.803582","237836.346481","238603.705002","239370.741372","240137.782997","240905.031764","241656.271835","245541.801","246309.347496","232499.23883","233266.546648","234016.62765","234784.179402","235551.357369","236318.443206","245551.077263","Mapping"
"Mixed","Both","cave","16","m150bluff.wav","None","728.51625504","172","244774.512041","237085.803582","237836.346481","238603.705002","239370.741372","240137.782997","240905.031764","241656.271835","245541.801","246309.347496","247076.608939","233266.546648","234016.62765","234784.179402","235551.357369","236318.443206","246318.662405","Mapping"
"Mixed","Both","cave","16","m150jaw.wav","None","724.894975778","172","244774.512041","237085.803582","237836.346481","238603.705002","239370.741372","240137.782997","240905.031764","241656.271835","245541.801","246309.347496","247076.608939","247843.385917","234016.62765","234784.179402","235551.357369","236318.443206","247086.592578","Mapping"
"Mixed","Both","cave","16","m160reek.wav","None","723.093765788","172","244774.512041","237085.803582","237836.346481","238603.705002","239370.741372","240137.782997","240905.031764","241656.271835","245541.801","246309.347496","247076.608939","247843.385917","248593.940563","234784.179402","235551.357369","236318.443206","247852.912915","Mapping"
"Mixed","Both","cave","16","m150reek.wav","None","735.868568998","172","244774.512041","237085.803582","237836.346481","238603.705002","239370.741372","240137.782997","240905.031764","241656.271835","245541.801","246309.347496","247076.608939","247843.385917","248593.940563","249360.79978","235551.357369","236318.443206","248603.919256","Mapping"
"Mixed","Both","cave","16","m160jolt.wav","None","734.412081074","172","244774.512041","237085.803582","237836.346481","238603.705002","239370.741372","240137.782997","240905.031764","241656.271835","245541.801","246309.347496","247076.608939","247843.385917","248593.940563","249360.79978","250128.474889","236318.443206","249369.968762","Mapping"
"Mixed","Both","cave","16","m160cave.wav","None","730.322103016","172","244774.512041","237085.803582","237836.346481","238603.705002","239370.741372","240137.782997","240905.031764","241656.271835","245541.801","246309.347496","247076.608939","247843.385917","248593.940563","249360.79978","250128.474889","250896.076107","250137.90821","Mapping"
"Mixed","Both","cave","16","m150jaw.wav","space","625.809864607","172","244774.512041","251663.316837","237836.346481","238603.705002","239370.741372","240137.782997","240905.031764","241656.271835","245541.801","246309.347496","247076.608939","247843.385917","248593.940563","249360.79978","250128.474889","250896.076107","250905.438629","Mapping"
"Mixed","Both","cave","16","m160tile.wav","None","722.885077354","172","244774.512041","251663.316837","252430.251489","238603.705002","239370.741372","240137.782997","240905.031764","241656.271835","245541.801","246309.347496","247076.608939","247843.385917","248593.940563","249360.79978","250128.474889","250896.076107","251672.751703","Mapping"
"Mixed","Both","cave","16","m160cave.wav","None","718.983073719","172","244774.512041","251663.316837","252430.251489","253180.834579","239370.741372","240137.782997","240905.031764","241656.271835","245541.801","246309.347496","247076.608939","247843.385917","248593.940563","249360.79978","250128.474889","250896.076107","252440.517398","Mapping"
"Mixed","Both","cave","16","m160ball.wav","space","484.951268882","172","244774.512041","251663.316837","252430.251489","253180.834579","253948.152291","240137.782997","240905.031764","241656.271835","245541.801","246309.347496","247076.608939","247843.385917","248593.940563","249360.79978","250128.474889","250896.076107","253190.223689","Mapping"
"Mixed","Both","cave","16","m150jolt.wav","None","728.86437783","172","244774.512041","251663.316837","252430.251489","253180.834579","253948.152291","254715.253895","240905.031764","241656.271835","245541.801","246309.347496","247076.608939","247843.385917","248593.940563","249360.79978","250128.474889","250896.076107","253957.832637","Mapping"
"Mixed","Both","cave","16","m150cave.wav","None","725.618118886","172","244774.512041","251663.316837","252430.251489","253180.834579","253948.152291","254715.253895","255482.472982","241656.271835","245541.801","246309.347496","247076.608939","247843.385917","248593.940563","249360.79978","250128.474889","250896.076107","254724.918782","Mapping"
"Mixed","Both","cave","16","m160reek.wav","space","615.204180591","172","244774.512041","251663.316837","252430.251489","253180.834579","253948.152291","254715.253895","255482.472982","256232.826361","245541.801","246309.347496","247076.608939","247843.385917","248593.940563","249360.79978","250128.474889","250896.076107","255491.839213","Mapping"
"Mixed","Both","ball","8","m150lash.wav","None","735.640094616","172","259352.022512","251663.316837","252430.251489","253180.834579","253948.152291","254715.253895","255482.472982","256232.826361","245541.801","246309.347496","247076.608939","247843.385917","248593.940563","249360.79978","250128.474889","250896.076107","256242.075726","Mapping"
"Mixed","Both","ball","8","m160ball.wav","None","734.933337197","172","259352.022512","251663.316837","252430.251489","253180.834579","253948.152291","254715.253895","255482.472982","256232.826361","260119.286429","246309.347496","247076.608939","247843.385917","248593.940563","249360.79978","250128.474889","250896.076107","259362.611811","Mapping"
"Mixed","Both","ball","8","m150gnash.wav","space","473.899456207","172","259352.022512","251663.316837","252430.251489","253180.834579","253948.152291","254715.253895","255482.472982","256232.826361","260119.286429","260886.420186","247076.608939","247843.385917","248593.940563","249360.79978","250128.474889","250896.076107","260129.000165","Mapping"
"Mixed","Both","ball","8","m160dime.wav","None","729.226413183","172","259352.022512","251663.316837","252430.251489","253180.834579","253948.152291","254715.253895","255482.472982","256232.826361","260119.286429","260886.420186","261653.426875","247843.385917","248593.940563","249360.79978","250128.474889","250896.076107","260895.702324","Mapping"
"Mixed","Both","ball","8","m150ball.wav","None","726.489971392","172","259352.022512","251663.316837","252430.251489","253180.834579","253948.152291","254715.253895","255482.472982","256232.826361","260119.286429","260886.420186","261653.426875","262420.681207","248593.940563","249360.79978","250128.474889","250896.076107","261662.555357","Mapping"
"Mixed","Both","ball","8","m160reek.wav","space","572.991060093","172","259352.022512","251663.316837","252430.251489","253180.834579","253948.152291","254715.253895","255482.472982","256232.826361","260119.286429","260886.420186","261653.426875","262420.681207","263171.074469","249360.79978","250128.474889","250896.076107","262429.798559","Mapping"
"Mixed","Both","ball","8","m150ball.wav","None","735.358442646","172","259352.022512","251663.316837","252430.251489","253180.834579","253948.152291","254715.253895","255482.472982","256232.826361","260119.286429","260886.420186","261653.426875","262420.681207","263171.074469","263938.819141","250128.474889","250896.076107","263181.105719","Mapping"
"Mixed","Both","ball","8","m150cave.wav","space","533.403390553","172","259352.022512","251663.316837","252430.251489","253180.834579","253948.152291","254715.253895","255482.472982","256232.826361","260119.286429","260886.420186","261653.426875","262420.681207","263171.074469","263938.819141","264705.596737","250896.076107","263949.369175","Mapping"
"Mixed","Both","ball","8","m160knife.wav","None","728.65970945","172","259352.022512","251663.316837","252430.251489","253180.834579","253948.152291","254715.253895","255482.472982","256232.826361","260119.286429","260886.420186","261653.426875","262420.681207","263171.074469","263938.819141","264705.596737","265472.961133","264714.764173","Mapping"
"Mixed","Both","ball","8","m160jaw.wav","None","724.971649237","172","259352.022512","266240.125807","252430.251489","253180.834579","253948.152291","254715.253895","255482.472982","256232.826361","260119.286429","260886.420186","261653.426875","262420.681207","263171.074469","263938.819141","264705.596737","265472.961133","265482.685071","Mapping"
"Mixed","Both","ball","8","m150cling.wav","None","721.787223592","172","259352.022512","266240.125807","266990.539164","253180.834579","253948.152291","254715.253895","255482.472982","256232.826361","260119.286429","260886.420186","261653.426875","262420.681207","263171.074469","263938.819141","264705.596737","265472.961133","266250.305767","Mapping"
"Mixed","Both","ball","8","m160ball.wav","None","735.956991091","172","259352.022512","266240.125807","266990.539164","267758.038357","253948.152291","254715.253895","255482.472982","256232.826361","260119.286429","260886.420186","261653.426875","262420.681207","263171.074469","263938.819141","264705.596737","265472.961133","267000.252899","Mapping"
"Mixed","Both","ball","8","m160dime.wav","space","426.847245544","172","259352.022512","266240.125807","266990.539164","267758.038357","268525.181698","254715.253895","255482.472982","256232.826361","260119.286429","260886.420186","261653.426875","262420.681207","263171.074469","263938.819141","264705.596737","265472.961133","267767.759512","Mapping"
"Mixed","Both","ball","8","m160gnash.wav","None","728.024060838","172","259352.022512","266240.125807","266990.539164","267758.038357","268525.181698","269292.641317","255482.472982","256232.826361","260119.286429","260886.420186","261653.426875","262420.681207","263171.074469","263938.819141","264705.596737","265472.961133","268535.314974","Mapping"
"Mixed","Both","ball","8","m150jolt.wav","None","725.193322636","172","259352.022512","266240.125807","266990.539164","267758.038357","268525.181698","269292.641317","270059.379031","256232.826361","260119.286429","260886.420186","261653.426875","262420.681207","263171.074469","263938.819141","264705.596737","265472.961133","269302.393699","Mapping"
"Mixed","Both","ball","8","m150dime.wav","None","722.531389911","172","259352.022512","266240.125807","266990.539164","267758.038357","268525.181698","269292.641317","270059.379031","270810.154423","260119.286429","260886.420186","261653.426875","262420.681207","263171.074469","263938.819141","264705.596737","265472.961133","270069.126157","Mapping"
"Mixed","Both","cave","22","m150jaw.wav","None","735.625563655","172","273945.845592","266240.125807","266990.539164","267758.038357","268525.181698","269292.641317","270059.379031","270810.154423","260119.286429","260886.420186","261653.426875","262420.681207","263171.074469","263938.819141","264705.596737","265472.961133","270820.097252","Mapping"
"Mixed","Both","cave","22","m160cad.wav","None","719.618103933","172","273945.845592","266240.125807","266990.539164","267758.038357","268525.181698","269292.641317","270059.379031","270810.154423","274696.44074","260886.420186","261653.426875","262420.681207","263171.074469","263938.819141","264705.596737","265472.961133","273955.408763","Mapping"
"Mixed","Both","cave","22","m160cave.wav","None","732.85758635","172","273945.845592","266240.125807","266990.539164","267758.038357","268525.181698","269292.641317","270059.379031","270810.154423","274696.44074","275463.646842","261653.426875","262420.681207","263171.074469","263938.819141","264705.596737","265472.961133","274705.95939","Mapping"
"Mixed","Both","cave","22","m150jaw.wav","space","529.03547138","172","273945.845592","266240.125807","266990.539164","267758.038357","268525.181698","269292.641317","270059.379031","270810.154423","274696.44074","275463.646842","276230.937656","262420.681207","263171.074469","263938.819141","264705.596737","265472.961133","275473.288541","Mapping"
"Mixed","Both","cave","22","m150cave.wav","None","725.393663161","172","273945.845592","266240.125807","266990.539164","267758.038357","268525.181698","269292.641317","270059.379031","270810.154423","274696.44074","275463.646842","276230.937656","276998.033076","263171.074469","263938.819141","264705.596737","265472.961133","276240.931497","Mapping"
"Mixed","Both","cave","22","m150park.wav","space","682.369905524","172","273945.845592","266240.125807","266990.539164","267758.038357","268525.181698","269292.641317","270059.379031","270810.154423","274696.44074","275463.646842","276230.937656","276998.033076","277748.234344","263938.819141","264705.596737","265472.961133","277007.927675","Mapping"
"Mixed","Both","cave","22","m160greet.wav","None","740.314707626","172","273945.845592","266240.125807","266990.539164","267758.038357","268525.181698","269292.641317","270059.379031","270810.154423","274696.44074","275463.646842","276230.937656","276998.033076","277748.234344","278516.013334","264705.596737","265472.961133","277752.873713","Mapping"
"Mixed","Both","cave","22","m160cave.wav","None","731.316077057","172","273945.845592","266240.125807","266990.539164","267758.038357","268525.181698","269292.641317","270059.379031","270810.154423","274696.44074","275463.646842","276230.937656","276998.033076","277748.234344","278516.013334","279283.120194","265472.961133","278525.804671","Mapping"
"Mixed","Both","cave","22","m160lash.wav","None","728.53418719","172","273945.845592","266240.125807","266990.539164","267758.038357","268525.181698","269292.641317","270059.379031","270810.154423","274696.44074","275463.646842","276230.937656","276998.033076","277748.234344","278516.013334","279283.120194","280050.354739","279293.16412","Mapping"
"Mixed","Both","cave","22","m150cave.wav","space","54.4886183925","172","273945.845592","280817.522814","266990.539164","267758.038357","268525.181698","269292.641317","270059.379031","270810.154423","274696.44074","275463.646842","276230.937656","276998.033076","277748.234344","278516.013334","279283.120194","280050.354739","280059.734883","Mapping"
"Mixed","Both","cave","22","m150cad.wav","space","607.194576412","172","273945.845592","280817.522814","281567.816832","267758.038357","268525.181698","269292.641317","270059.379031","270810.154423","274696.44074","275463.646842","276230.937656","276998.033076","277748.234344","278516.013334","279283.120194","280050.354739","280826.978703","Mapping"
"Mixed","Both","cave","22","m160romp.wav","None","734.397858847","172","273945.845592","280817.522814","281567.816832","282335.059107","268525.181698","269292.641317","270059.379031","270810.154423","274696.44074","275463.646842","276230.937656","276998.033076","277748.234344","278516.013334","279283.120194","280050.354739","281577.003128","Mapping"
"Mixed","Both","cave","22","m150gnash.wav","None","731.659871526","172","273945.845592","280817.522814","281567.816832","282335.059107","283102.447309","269292.641317","270059.379031","270810.154423","274696.44074","275463.646842","276230.937656","276998.033076","277748.234344","278516.013334","279283.120194","280050.354739","282344.362268","Mapping"
"Mixed","Both","cave","22","m160park.wav","None","727.92234458","172","273945.845592","280817.522814","281567.816832","282335.059107","283102.447309","283869.636097","270059.379031","270810.154423","274696.44074","275463.646842","276230.937656","276998.033076","277748.234344","278516.013334","279283.120194","280050.354739","283112.221332","Mapping"
"Mixed","Both","cave","22","m150jaw.wav","None","724.460286088","172","273945.845592","280817.522814","281567.816832","282335.059107","283102.447309","283869.636097","284637.115195","270810.154423","274696.44074","275463.646842","276230.937656","276998.033076","277748.234344","278516.013334","279283.120194","280050.354739","283879.724235","Mapping"
"Mixed","Both","cave","22","m160knife.wav","None","721.245252527","172","273945.845592","280817.522814","281567.816832","282335.059107","283102.447309","283869.636097","284637.115195","285387.159715","274696.44074","275463.646842","276230.937656","276998.033076","277748.234344","278516.013334","279283.120194","280050.354739","284647.049367","Mapping"
"Mixed","Both","cave","19","m150done.wav","None","736.189485062","172","288506.254151","280817.522814","281567.816832","282335.059107","283102.447309","283869.636097","284637.115195","285387.159715","274696.44074","275463.646842","276230.937656","276998.033076","277748.234344","278516.013334","279283.120194","280050.354739","285396.594581","Mapping"
"Mixed","Both","cave","19","m160cave.wav","None","736.758353189","172","288506.254151","280817.522814","281567.816832","282335.059107","283102.447309","283869.636097","284637.115195","285387.159715","289273.263004","275463.646842","276230.937656","276998.033076","277748.234344","278516.013334","279283.120194","280050.354739","288515.489914","Mapping"
"Mixed","Both","cave","19","m150gnash.wav","space","591.26688214","172","288506.254151","280817.522814","281567.816832","282335.059107","283102.447309","283869.636097","284637.115195","285387.159715","289273.263004","290040.859276","276230.937656","276998.033076","277748.234344","278516.013334","279283.120194","280050.354739","289282.602028","Mapping"
"Mixed","Both","cave","19","m150knife.wav","None","729.13984675","172","288506.254151","280817.522814","281567.816832","282335.059107","283102.447309","283869.636097","284637.115195","285387.159715","289273.263004","290040.859276","290808.338373","276998.033076","277748.234344","278516.013334","279283.120194","280050.354739","290050.557244","Mapping"
"Mixed","Both","cave","19","m160jolt.wav","None","725.353471469","172","288506.254151","280817.522814","281567.816832","282335.059107","283102.447309","283869.636097","284637.115195","285387.159715","289273.263004","290040.859276","290808.338373","291575.146576","277748.234344","278516.013334","279283.120194","280050.354739","290818.481851","Mapping"
"Mixed","Both","cave","19","m150cling.wav","None","723.816599231","172","288506.254151","280817.522814","281567.816832","282335.059107","283102.447309","283869.636097","284637.115195","285387.159715","289273.263004","290040.859276","290808.338373","291575.146576","292342.339384","278516.013334","279283.120194","280050.354739","291584.71253","Mapping"
"Mixed","Both","cave","19","m150jolt.wav","None","720.858174842","172","288506.254151","280817.522814","281567.816832","282335.059107","283102.447309","283869.636097","284637.115195","285387.159715","289273.263004","290040.859276","290808.338373","291575.146576","292342.339384","293093.268742","279283.120194","280050.354739","292351.832065","Mapping"
"Mixed","Both","cave","19","m160gnash.wav","None","738.756503444","172","288506.254151","280817.522814","281567.816832","282335.059107","283102.447309","283869.636097","284637.115195","285387.159715","289273.263004","290040.859276","290808.338373","291575.146576","292342.339384","293093.268742","293860.306657","280050.354739","293098.11618","Mapping"
"Mixed","Both","cave","19","m150cave.wav","None","730.884788092","172","288506.254151","280817.522814","281567.816832","282335.059107","283102.447309","283869.636097","284637.115195","285387.159715","289273.263004","290040.859276","290808.338373","291575.146576","292342.339384","293093.268742","293860.306657","294627.796575","293870.104796","Mapping"
"Mixed","Both","cave","19","m160priest.wav","space","564.003559295","172","288506.254151","295394.724427","281567.816832","282335.059107","283102.447309","283869.636097","284637.115195","285387.159715","289273.263004","290040.859276","290808.338373","291575.146576","292342.339384","293093.268742","293860.306657","294627.796575","294637.651291","Mapping"
"Mixed","Both","cave","19","m160cave.wav","None","724.47914537","172","288506.254151","295394.724427","296161.815209","282335.059107","283102.447309","283869.636097","284637.115195","285387.159715","289273.263004","290040.859276","290808.338373","291575.146576","292342.339384","293093.268742","293860.306657","294627.796575","295404.224528","Mapping"
"Mixed","Both","cave","19","m160jolt.wav","None","721.864206251","172","288506.254151","295394.724427","296161.815209","296912.347596","283102.447309","283869.636097","284637.115195","285387.159715","289273.263004","290040.859276","290808.338373","291575.146576","292342.339384","293093.268742","293860.306657","294627.796575","296171.061174","Mapping"
"Mixed","Both","cave","19","m150cave.wav","space","167.919722851","172","288506.254151","295394.724427","296161.815209","296912.347596","297679.791757","283869.636097","284637.115195","285387.159715","289273.263004","290040.859276","290808.338373","291575.146576","292342.339384","293093.268742","293860.306657","294627.796575","296921.686311","Mapping"
"Mixed","Both","cave","19","m160jolt.wav","space","591.295634396","172","288506.254151","295394.724427","296161.815209","296912.347596","297679.791757","298446.850386","284637.115195","285387.159715","289273.263004","290040.859276","290808.338373","291575.146576","292342.339384","293093.268742","293860.306657","294627.796575","297690.237602","Mapping"
"Mixed","Both","cave","19","m160done.wav","None","726.288084872","172","288506.254151","295394.724427","296161.815209","296912.347596","297679.791757","298446.850386","299214.574035","285387.159715","289273.263004","290040.859276","290808.338373","291575.146576","292342.339384","293093.268742","293860.306657","294627.796575","298456.621009","Mapping"
"Mixed","Both","cave","19","m150done.wav","None","722.498308867","172","288506.254151","295394.724427","296161.815209","296912.347596","297679.791757","298446.850386","299214.574035","299981.547334","289273.263004","290040.859276","290808.338373","291575.146576","292342.339384","293093.268742","293860.306657","294627.796575","299224.509135","Mapping"
"Mixed","Both","tile","34","m160bluff.wav","None","719.917996787","172","303083.485753","295394.724427","296161.815209","296912.347596","297679.791757","298446.850386","299214.574035","299981.547334","289273.263004","290040.859276","290808.338373","291575.146576","292342.339384","293093.268742","293860.306657","294627.796575","299991.325686","Mapping"
"Mixed","Both","tile","34","m150priest.wav","None","736.009240616","172","303083.485753","295394.724427","296161.815209","296912.347596","297679.791757","298446.850386","299214.574035","299981.547334","303850.789552","290040.859276","290808.338373","291575.146576","292342.339384","293093.268742","293860.306657","294627.796575","303093.10241","Mapping"
"Mixed","Both","tile","34","m160tile.wav","None","732.551819645","172","303083.485753","295394.724427","296161.815209","296912.347596","297679.791757","298446.850386","299214.574035","299981.547334","303850.789552","304617.923927","290808.338373","291575.146576","292342.339384","293093.268742","293860.306657","294627.796575","303860.912626","Mapping"
"Mixed","Both","tile","34","m160lash.wav","space","469.666333869","172","303083.485753","295394.724427","296161.815209","296912.347596","297679.791757","298446.850386","299214.574035","299981.547334","303850.789552","304617.923927","305385.529474","291575.146576","292342.339384","293093.268742","293860.306657","294627.796575","304627.621586","Mapping"
"Mixed","Both","tile","34","m150gnash.wav","None","726.557060611","172","303083.485753","295394.724427","296161.815209","296912.347596","297679.791757","298446.850386","299214.574035","299981.547334","303850.789552","304617.923927","305385.529474","306153.22839","292342.339384","293093.268742","293860.306657","294627.796575","305394.992166","Mapping"
"Mixed","Both","tile","34","m150jolt.wav","None","723.063157871","172","303083.485753","295394.724427","296161.815209","296912.347596","297679.791757","298446.850386","299214.574035","299981.547334","303850.789552","304617.923927","305385.529474","306153.22839","306919.681978","293093.268742","293860.306657","294627.796575","306162.791252","Mapping"
"Mixed","Both","tile","34","m150tile.wav","None","721.368301194","172","303083.485753","295394.724427","296161.815209","296912.347596","297679.791757","298446.850386","299214.574035","299981.547334","303850.789552","304617.923927","305385.529474","306153.22839","306919.681978","307670.311443","293860.306657","294627.796575","306929.148689","Mapping"
"Mixed","Both","tile","34","m150depth.wav","space","401.013822295","172","303083.485753","295394.724427","296161.815209","296912.347596","297679.791757","298446.850386","299214.574035","299981.547334","303850.789552","304617.923927","305385.529474","306153.22839","306919.681978","307670.311443","308437.584635","294627.796575","307680.200167","Mapping"
"Mixed","Both","tile","34","m150jaw.wav","None","731.495703105","172","303083.485753","295394.724427","296161.815209","296912.347596","297679.791757","298446.850386","299214.574035","299981.547334","303850.789552","304617.923927","305385.529474","306153.22839","306919.681978","307670.311443","308437.584635","309204.824127","308446.966943","Mapping"
"Mixed","Both","tile","34","m160cave.wav","None","728.79790701","172","303083.485753","309972.075368","296161.815209","296912.347596","297679.791757","298446.850386","299214.574035","299981.547334","303850.789552","304617.923927","305385.529474","306153.22839","306919.681978","307670.311443","308437.584635","309204.824127","309213.961265","Mapping"
"Mixed","Both","tile","34","m160park.wav","None","725.066564046","172","303083.485753","309972.075368","310739.244679","296912.347596","297679.791757","298446.850386","299214.574035","299981.547334","303850.789552","304617.923927","305385.529474","306153.22839","306919.681978","307670.311443","308437.584635","309204.824127","309982.008303","Mapping"
"Mixed","Both","tile","34","m160jaw.wav","None","723.070886917","172","303083.485753","309972.075368","310739.244679","311506.381219","297679.791757","298446.850386","299214.574035","299981.547334","303850.789552","304617.923927","305385.529474","306153.22839","306919.681978","307670.311443","308437.584635","309204.824127","310749.387539","Mapping"
"Mixed","Both","tile","34","m150tile.wav","None","721.150338184","172","303083.485753","309972.075368","310739.244679","311506.381219","312257.091686","298446.850386","299214.574035","299981.547334","303850.789552","304617.923927","305385.529474","306153.22839","306919.681978","307670.311443","308437.584635","309204.824127","311515.683452","Mapping"
"Mixed","Both","tile","34","m150done.wav","space","430.311777163","172","303083.485753","309972.075368","310739.244679","311506.381219","312257.091686","313024.038396","299214.574035","299981.547334","303850.789552","304617.923927","305385.529474","306153.22839","306919.681978","307670.311443","308437.584635","309204.824127","312266.706178","Mapping"
"Mixed","Both","tile","34","m160tile.wav","None","730.563872028","172","303083.485753","309972.075368","310739.244679","311506.381219","312257.091686","313024.038396","313791.32952","299981.547334","303850.789552","304617.923927","305385.529474","306153.22839","306919.681978","307670.311443","308437.584635","309204.824127","313033.393498","Mapping"
"Mixed","Both","tile","34","m160greet.wav","space","728.234912734","172","303083.485753","309972.075368","310739.244679","311506.381219","312257.091686","313024.038396","313791.32952","314558.553863","303850.789552","304617.923927","305385.529474","306153.22839","306919.681978","307670.311443","308437.584635","309204.824127","313800.728214","Mapping"
"Mixed","Both","done","37","m160knife.wav","None","725.28298106","172","317660.874722","309972.075368","310739.244679","311506.381219","312257.091686","313024.038396","313791.32952","314558.553863","303850.789552","304617.923927","305385.529474","306153.22839","306919.681978","307670.311443","308437.584635","309204.824127","314568.064785","Mapping"
"Mixed","Both","done","37","m160done.wav","None","735.961010214","172","317660.874722","309972.075368","310739.244679","311506.381219","312257.091686","313024.038396","313791.32952","314558.553863","318428.183158","304617.923927","305385.529474","306153.22839","306919.681978","307670.311443","308437.584635","309204.824127","317670.447786","Mapping"
"Mixed","Both","done","37","m150ball.wav","space","466.352057643","172","317660.874722","309972.075368","310739.244679","311506.381219","312257.091686","313024.038396","313791.32952","314558.553863","318428.183158","319195.271159","305385.529474","306153.22839","306919.681978","307670.311443","308437.584635","309204.824127","318438.464835","Mapping"
"Mixed","Both","done","37","m150greet.wav","None","729.145102669","172","317660.874722","309972.075368","310739.244679","311506.381219","312257.091686","313024.038396","313791.32952","314558.553863","318428.183158","319195.271159","319962.698625","306153.22839","306919.681978","307670.311443","308437.584635","309204.824127","319204.629042","Mapping"
"Mixed","Both","done","37","m150cad.wav","None","726.287466474","172","317660.874722","309972.075368","310739.244679","311506.381219","312257.091686","313024.038396","313791.32952","314558.553863","318428.183158","319195.271159","319962.698625","320729.915857","306919.681978","307670.311443","308437.584635","309204.824127","319972.444205","Mapping"
"Mixed","Both","done","37","m150romp.wav","None","723.230108619","172","317660.874722","309972.075368","310739.244679","311506.381219","312257.091686","313024.038396","313791.32952","314558.553863","318428.183158","319195.271159","319962.698625","320729.915857","321497.195851","307670.311443","308437.584635","309204.824127","320739.785413","Mapping"
"Mixed","Both","done","37","m160lash.wav","None","720.864976756","172","317660.874722","309972.075368","310739.244679","311506.381219","312257.091686","313024.038396","313791.32952","314558.553863","318428.183158","319195.271159","319962.698625","320729.915857","321497.195851","322247.697939","308437.584635","309204.824127","321506.530237","Mapping"
"Mixed","Both","done","37","m160jolt.wav","None","734.315311071","172","317660.874722","309972.075368","310739.244679","311506.381219","312257.091686","313024.038396","313791.32952","314558.553863","318428.183158","319195.271159","319962.698625","320729.915857","321497.195851","322247.697939","323014.89322","309204.824127","322257.303775","Mapping"
"Mixed","Both","done","37","m150done.wav","None","732.264293823","172","317660.874722","309972.075368","310739.244679","311506.381219","312257.091686","313024.038396","313791.32952","314558.553863","318428.183158","319195.271159","319962.698625","320729.915857","321497.195851","322247.697939","323014.89322","323781.830965","323024.209984","Mapping"
"Mixed","Both","done","37","m160greet.wav","space","486.891913693","172","317660.874722","324549.228751","310739.244679","311506.381219","312257.091686","313024.038396","313791.32952","314558.553863","318428.183158","319195.271159","319962.698625","320729.915857","321497.195851","322247.697939","323014.89322","323781.830965","323785.718129","Mapping"
"Mixed","Both","done","37","m160cling.wav","None","724.344966933","172","317660.874722","324549.228751","325316.682187","311506.381219","312257.091686","313024.038396","313791.32952","314558.553863","318428.183158","319195.271159","319962.698625","320729.915857","321497.195851","322247.697939","323014.89322","323781.830965","324559.208989","Mapping"
"Mixed","Both","done","37","m150done.wav","None","721.516701858","172","317660.874722","324549.228751","325316.682187","326083.518834","312257.091686","313024.038396","313791.32952","314558.553863","318428.183158","319195.271159","319962.698625","320729.915857","321497.195851","322247.697939","323014.89322","323781.830965","325326.356349","Mapping"
"Mixed","Both","done","37","m150reek.wav","space","387.956130318","172","317660.874722","324549.228751","325316.682187","326083.518834","326834.100687","313024.038396","313791.32952","314558.553863","318428.183158","319195.271159","319962.698625","320729.915857","321497.195851","322247.697939","323014.89322","323781.830965","326092.632166","Mapping"
"Mixed","Both","done","37","m160jolt.wav","None","732.443301938","172","317660.874722","324549.228751","325316.682187","326083.518834","326834.100687","327601.576384","313791.32952","314558.553863","318428.183158","319195.271159","319962.698625","320729.915857","321497.195851","322247.697939","323014.89322","323781.830965","326843.820916","Mapping"
"Mixed","Both","done","37","m160done.wav","None","729.158087634","172","317660.874722","324549.228751","325316.682187","326083.518834","326834.100687","327601.576384","328368.533297","314558.553863","318428.183158","319195.271159","319962.698625","320729.915857","321497.195851","322247.697939","323014.89322","323781.830965","327611.432027","Mapping"
"Mixed","Both","done","37","m150knife.wav","space","398.288510274","172","317660.874722","324549.228751","325316.682187","326083.518834","326834.100687","327601.576384","328368.533297","329135.940667","318428.183158","319195.271159","319962.698625","320729.915857","321497.195851","322247.697939","323014.89322","323781.830965","328378.174069","Mapping"
"Mixed","Both","cave","17","m150park.wav","None","723.054810427","172","332237.946794","324549.228751","325316.682187","326083.518834","326834.100687","327601.576384","328368.533297","329135.940667","318428.183158","319195.271159","319962.698625","320729.915857","321497.195851","322247.697939","323014.89322","323781.830965","329145.534446","Mapping"
"Mixed","Both","cave","17","m160priest.wav","None","736.335412133","172","332237.946794","324549.228751","325316.682187","326083.518834","326834.100687","327601.576384","328368.533297","329135.940667","333005.391882","319195.271159","319962.698625","320729.915857","321497.195851","322247.697939","323014.89322","323781.830965","332247.312716","Mapping"
"Mixed","Both","cave","17","m160greet.wav","None","733.034739271","172","332237.946794","324549.228751","325316.682187","326083.518834","326834.100687","327601.576384","328368.533297","329135.940667","333005.391882","333772.643432","319962.698625","320729.915857","321497.195851","322247.697939","323014.89322","323781.830965","333015.931714","Mapping"
"Mixed","Both","cave","17","m160cave.wav","None","730.967335869","172","332237.946794","324549.228751","325316.682187","326083.518834","326834.100687","327601.576384","328368.533297","329135.940667","333005.391882","333772.643432","334539.708554","320729.915857","321497.195851","322247.697939","323014.89322","323781.830965","333782.448372","Mapping"
"Mixed","Both","cave","17","m160tile.wav","space","355.119753163","172","332237.946794","324549.228751","325316.682187","326083.518834","326834.100687","327601.576384","328368.533297","329135.940667","333005.391882","333772.643432","334539.708554","335306.915275","321497.195851","322247.697939","323014.89322","323781.830965","334549.125489","Mapping"
"Mixed","Both","cave","17","m160cave.wav","None","724.272930529","172","332237.946794","324549.228751","325316.682187","326083.518834","326834.100687","327601.576384","328368.533297","329135.940667","333005.391882","333772.643432","334539.708554","335306.915275","336074.376131","322247.697939","323014.89322","323781.830965","335316.368382","Mapping"
"Mixed","Both","cave","17","m150romp.wav","space","492.459093686","172","332237.946794","324549.228751","325316.682187","326083.518834","326834.100687","327601.576384","328368.533297","329135.940667","333005.391882","333772.643432","334539.708554","335306.915275","336074.376131","336824.560704","323014.89322","323781.830965","336083.709591","Mapping"
"Mixed","Both","cave","17","m150romp.wav","None","735.01341138","172","332237.946794","324549.228751","325316.682187","326083.518834","326834.100687","327601.576384","328368.533297","329135.940667","333005.391882","333772.643432","334539.708554","335306.915275","336074.376131","336824.560704","337591.929428","323781.830965","336833.947031","Mapping"
"Mixed","Both","cave","17","m150priest.wav","None","732.591702603","172","332237.946794","324549.228751","325316.682187","326083.518834","326834.100687","327601.576384","328368.533297","329135.940667","333005.391882","333772.643432","334539.708554","335306.915275","336074.376131","336824.560704","337591.929428","338359.401724","337600.707314","Mapping"
"Mixed","Both","cave","17","m160dime.wav","None","728.629410733","172","332237.946794","339126.436238","325316.682187","326083.518834","326834.100687","327601.576384","328368.533297","329135.940667","333005.391882","333772.643432","334539.708554","335306.915275","336074.376131","336824.560704","337591.929428","338359.401724","338369.123189","Mapping"
"Mixed","Both","cave","17","m150cave.wav","None","727.237229235","172","332237.946794","339126.436238","339893.674494","326083.518834","326834.100687","327601.576384","328368.533297","329135.940667","333005.391882","333772.643432","334539.708554","335306.915275","336074.376131","336824.560704","337591.929428","338359.401724","339136.174707","Mapping"
"Mixed","Both","cave","17","m160knife.wav","space","384.550340474","172","332237.946794","339126.436238","339893.674494","340660.564627","326834.100687","327601.576384","328368.533297","329135.940667","333005.391882","333772.643432","334539.708554","335306.915275","336074.376131","336824.560704","337591.929428","338359.401724","339903.506331","Mapping"
"Mixed","Both","cave","17","m150cave.wav","None","721.248962916","172","332237.946794","339126.436238","339893.674494","340660.564627","341411.365062","327601.576384","328368.533297","329135.940667","333005.391882","333772.643432","334539.708554","335306.915275","336074.376131","336824.560704","337591.929428","338359.401724","340669.615198","Mapping"
"Mixed","Both","cave","17","m150cad.wav","space","595.021412708","172","332237.946794","339126.436238","339893.674494","340660.564627","341411.365062","342178.587241","328368.533297","329135.940667","333005.391882","333772.643432","334539.708554","335306.915275","336074.376131","336824.560704","337591.929428","338359.401724","341420.954512","Mapping"
"Mixed","Both","cave","17","m160dime.wav","None","730.978774838","172","332237.946794","339126.436238","339893.674494","340660.564627","341411.365062","342178.587241","342946.081178","329135.940667","333005.391882","333772.643432","334539.708554","335306.915275","336074.376131","336824.560704","337591.929428","338359.401724","342187.850519","Mapping"
"Mixed","Both","cave","17","m150romp.wav","None","727.159937378","172","332237.946794","339126.436238","339893.674494","340660.564627","341411.365062","342178.587241","342946.081178","343713.095596","333005.391882","333772.643432","334539.708554","335306.915275","336074.376131","336824.560704","337591.929428","338359.401724","342956.147983","Mapping"
"Mixed","Both","done","48","m150priest.wav","None","725.504345261","172","346832.343379","339126.436238","339893.674494","340660.564627","341411.365062","342178.587241","342946.081178","343713.095596","333005.391882","333772.643432","334539.708554","335306.915275","336074.376131","336824.560704","337591.929428","338359.401724","343722.211711","Mapping"
"Mixed","Both","done","48","m160greet.wav","None","735.370190814","172","346832.343379","339126.436238","339893.674494","340660.564627","341411.365062","342178.587241","342946.081178","343713.095596","347599.142307","333772.643432","334539.708554","335306.915275","336074.376131","336824.560704","337591.929428","338359.401724","346841.867904","Mapping"
"Mixed","Both","done","48","m160done.wav","None","734.31902146","172","346832.343379","339126.436238","339893.674494","340660.564627","341411.365062","342178.587241","342946.081178","343713.095596","347599.142307","348366.371288","334539.708554","335306.915275","336074.376131","336824.560704","337591.929428","338359.401724","347608.518741","Mapping"
"Mixed","Both","done","48","m150ball.wav","space","552.035992034","172","346832.343379","339126.436238","339893.674494","340660.564627","341411.365062","342178.587241","342946.081178","343713.095596","347599.142307","348366.371288","349133.85224","335306.915275","336074.376131","336824.560704","337591.929428","338359.401724","348375.687434","Mapping"
"Mixed","Both","done","48","m160park.wav","None","726.896526292","172","346832.343379","339126.436238","339893.674494","340660.564627","341411.365062","342178.587241","342946.081178","343713.095596","347599.142307","348366.371288","349133.85224","349900.979814","336074.376131","336824.560704","337591.929428","338359.401724","349143.38264","Mapping"
"Mixed","Both","done","48","m160jolt.wav","None","723.639446311","172","346832.343379","339126.436238","339893.674494","340660.564627","341411.365062","342178.587241","342946.081178","343713.095596","347599.142307","348366.371288","349133.85224","349900.979814","350667.96177","336824.560704","337591.929428","338359.401724","349911.015084","Mapping"
"Mixed","Both","done","48","m160depth.wav","None","723.168275319","172","346832.343379","339126.436238","339893.674494","340660.564627","341411.365062","342178.587241","342946.081178","343713.095596","347599.142307","348366.371288","349133.85224","349900.979814","350667.96177","351435.846186","337591.929428","338359.401724","350677.273897","Mapping"
"Mixed","Both","done","48","m150dime.wav","None","719.452389982","172","346832.343379","339126.436238","339893.674494","340660.564627","341411.365062","342178.587241","342946.081178","343713.095596","347599.142307","348366.371288","349133.85224","349900.979814","350667.96177","351435.846186","352185.971398","338359.401724","351445.48603","Mapping"
"Mixed","Both","done","48","m150lash.wav","space","363.904439844","172","346832.343379","339126.436238","339893.674494","340660.564627","341411.365062","342178.587241","342946.081178","343713.095596","347599.142307","348366.371288","349133.85224","349900.979814","350667.96177","351435.846186","352185.971398","352953.405048","352195.665966","Mapping"
"Mixed","Both","done","48","m150done.wav","None","729.052351788","172","346832.343379","353720.548698","339893.674494","340660.564627","341411.365062","342178.587241","342946.081178","343713.095596","347599.142307","348366.371288","349133.85224","349900.979814","350667.96177","351435.846186","352185.971398","352953.405048","352963.15001","Mapping"
"Mixed","Both","done","48","m150cad.wav","space","349.587199744","172","346832.343379","353720.548698","354487.552914","340660.564627","341411.365062","342178.587241","342946.081178","343713.095596","347599.142307","348366.371288","349133.85224","349900.979814","350667.96177","351435.846186","352185.971398","352953.405048","353729.917403","Mapping"
"Mixed","Both","done","48","m160park.wav","None","728.826041333","172","346832.343379","353720.548698","354487.552914","355254.90649","341411.365062","342178.587241","342946.081178","343713.095596","347599.142307","348366.371288","349133.85224","349900.979814","350667.96177","351435.846186","352185.971398","352953.405048","354491.226752","Mapping"
"Mixed","Both","done","48","m160done.wav","None","720.185426064","172","346832.343379","353720.548698","354487.552914","355254.90649","356005.613865","342178.587241","342946.081178","343713.095596","347599.142307","348366.371288","349133.85224","349900.979814","350667.96177","351435.846186","352185.971398","352953.405048","355264.360833","Mapping"
"Mixed","Both","done","48","m160romp.wav","space","496.334200259","172","346832.343379","353720.548698","354487.552914","355254.90649","356005.613865","356772.539861","342946.081178","343713.095596","347599.142307","348366.371288","349133.85224","349900.979814","350667.96177","351435.846186","352185.971398","352953.405048","356015.133134","Mapping"
