"Condition","Talker","Target","Trial","current_stimulus","response_response","response_time_response","subject_nr","time_Audio1","time_Audio10","time_Audio11","time_Audio12","time_Audio13","time_Audio14","time_Audio15","time_Audio16","time_Audio2","time_Audio3","time_Audio4","time_Audio5","time_Audio6","time_Audio7","time_Audio8","time_Audio9","time_response","title"
"Blocked","m150","tile","16","m150lash.wav","NA","NA","169","135074.194959","NA","NA","NA","NA","NA","NA","NA","NA","NA","NA","NA","NA","NA","NA","NA","NA","Mapping"
"Blocked","m150","tile","16","m150tile.wav","None","716.224062257","169","135074.194959","NA","NA","NA","NA","NA","NA","NA","135840.640818","NA","NA","NA","NA","NA","NA","NA","135088.655035","Mapping"
"Blocked","m150","tile","16","m150priest.wav","space","653.739443514","169","135074.194959","NA","NA","NA","NA","NA","NA","NA","135840.640818","136591.032533","NA","NA","NA","NA","NA","NA","135850.64919","Mapping"
"Blocked","m150","tile","16","m150park.wav","None","736.104773358","169","135074.194959","NA","NA","NA","NA","NA","NA","NA","135840.640818","136591.032533","137358.603762","NA","NA","NA","NA","NA","136600.931769","Mapping"
"Blocked","m150","tile","16","m150dime.wav","None","734.94199384","169","135074.194959","NA","NA","NA","NA","NA","NA","NA","135840.640818","136591.032533","137358.603762","138125.80059","NA","NA","NA","NA","137368.083767","Mapping"
"Blocked","m150","tile","16","m150dime.wav","None","733.91864961","169","135074.194959","NA","NA","NA","NA","NA","NA","NA","135840.640818","136591.032533","137358.603762","138125.80059","138893.207032","NA","NA","NA","138134.937418","Mapping"
"Blocked","m150","tile","16","m150dime.wav","None","728.935795836","169","135074.194959","NA","NA","NA","NA","NA","NA","NA","135840.640818","136591.032533","137358.603762","138125.80059","138893.207032","139660.054809","NA","NA","138903.131002","Mapping"
"Blocked","m150","tile","16","m150tile.wav","None","725.351616275","169","135074.194959","NA","NA","NA","NA","NA","NA","NA","135840.640818","136591.032533","137358.603762","138125.80059","138893.207032","139660.054809","140427.593576","NA","139669.668375","Mapping"
"Blocked","m150","tile","16","m150ball.wav","space","482.891903725","169","135074.194959","NA","NA","NA","NA","NA","NA","NA","135840.640818","136591.032533","137358.603762","138125.80059","138893.207032","139660.054809","140427.593576","141178.265088","140437.406864","Mapping"
"Blocked","m150","tile","16","m150done.wav","None","740.681380965","169","135074.194959","141945.398226","NA","NA","NA","NA","NA","NA","135840.640818","136591.032533","137358.603762","138125.80059","138893.207032","139660.054809","140427.593576","141178.265088","141182.586323","Mapping"
"Blocked","m150","tile","16","m150tile.wav","None","734.360449947","169","135074.194959","141945.398226","142712.685949","NA","NA","NA","NA","NA","135840.640818","136591.032533","137358.603762","138125.80059","138893.207032","139660.054809","140427.593576","141178.265088","141954.949958","Mapping"
"Blocked","m150","tile","16","m150romp.wav","space","717.761862092","169","135074.194959","141945.398226","142712.685949","143480.000878","NA","NA","NA","NA","135840.640818","136591.032533","137358.603762","138125.80059","138893.207032","139660.054809","140427.593576","141178.265088","142722.425036","Mapping"
"Blocked","m150","tile","16","m150tile.wav","None","728.209252004","169","135074.194959","141945.398226","142712.685949","143480.000878","144247.046213","NA","NA","NA","135840.640818","136591.032533","137358.603762","138125.80059","138893.207032","139660.054809","140427.593576","141178.265088","143489.5489","Mapping"
"Blocked","m150","tile","16","m150lash.wav","space","615.738421679","169","135074.194959","141945.398226","142712.685949","143480.000878","144247.046213","144997.650636","NA","NA","135840.640818","136591.032533","137358.603762","138125.80059","138893.207032","139660.054809","140427.593576","141178.265088","144256.434705","Mapping"
"Blocked","m150","tile","16","m150jaw.wav","None","734.904584475","169","135074.194959","141945.398226","142712.685949","143480.000878","144247.046213","144997.650636","145764.906514","NA","135840.640818","136591.032533","137358.603762","138125.80059","138893.207032","139660.054809","140427.593576","141178.265088","145007.670756","Mapping"
"Blocked","m150","tile","16","m150ball.wav","None","734.681366012","169","135074.194959","141945.398226","142712.685949","143480.000878","144247.046213","144997.650636","145764.906514","146532.021102","135840.640818","136591.032533","137358.603762","138125.80059","138893.207032","139660.054809","140427.593576","141178.265088","145774.753501","Mapping"
"Blocked","m150","ball","3","m150reek.wav","None","730.48688937","169","149968.027746","141945.398226","142712.685949","143480.000878","144247.046213","144997.650636","145764.906514","146532.021102","135840.640818","136591.032533","137358.603762","138125.80059","138893.207032","139660.054809","140427.593576","141178.265088","146541.56325","Mapping"
"Blocked","m150","ball","3","m150greet.wav","None","721.70467535","169","149968.027746","141945.398226","142712.685949","143480.000878","144247.046213","144997.650636","145764.906514","146532.021102","150735.285788","136591.032533","137358.603762","138125.80059","138893.207032","139660.054809","140427.593576","141178.265088","149977.974903","Mapping"
"Blocked","m150","ball","3","m150bluff.wav","None","721.885847859","169","149968.027746","141945.398226","142712.685949","143480.000878","144247.046213","144997.650636","145764.906514","146532.021102","150735.285788","151502.269599","137358.603762","138125.80059","138893.207032","139660.054809","140427.593576","141178.265088","150744.590495","Mapping"
"Blocked","m150","ball","3","m150cave.wav","None","720.732653048","169","149968.027746","141945.398226","142712.685949","143480.000878","144247.046213","144997.650636","145764.906514","146532.021102","150735.285788","151502.269599","152270.450198","138125.80059","138893.207032","139660.054809","140427.593576","141178.265088","151511.993846","Mapping"
"Blocked","m150","ball","3","m150ball.wav","None","719.124054071","169","149968.027746","141945.398226","142712.685949","143480.000878","144247.046213","144997.650636","145764.906514","146532.021102","150735.285788","151502.269599","152270.450198","153020.134537","138893.207032","139660.054809","140427.593576","141178.265088","152280.212781","Mapping"
"Blocked","m150","ball","3","m150park.wav","space","330.283086281","169","149968.027746","141945.398226","142712.685949","143480.000878","144247.046213","144997.650636","145764.906514","146532.021102","150735.285788","151502.269599","152270.450198","153020.134537","153787.414222","139660.054809","140427.593576","141178.265088","153029.483455","Mapping"
"Blocked","m150","ball","3","m150park.wav","None","727.294115815","169","149968.027746","141945.398226","142712.685949","143480.000878","144247.046213","144997.650636","145764.906514","146532.021102","150735.285788","151502.269599","152270.450198","153020.134537","153787.414222","154554.529119","140427.593576","141178.265088","153796.91525","Mapping"
"Blocked","m150","ball","3","m150ball.wav","None","723.089437","169","149968.027746","141945.398226","142712.685949","143480.000878","144247.046213","144997.650636","145764.906514","146532.021102","150735.285788","151502.269599","152270.450198","153020.134537","153787.414222","154554.529119","155304.949587","141178.265088","154563.652036","Mapping"
"Blocked","m150","ball","3","m150romp.wav","space","356.794822961","169","149968.027746","141945.398226","142712.685949","143480.000878","144247.046213","144997.650636","145764.906514","146532.021102","150735.285788","151502.269599","152270.450198","153020.134537","153787.414222","154554.529119","155304.949587","156072.121063","155314.932608","Mapping"
"Blocked","m150","ball","3","m150ball.wav","None","731.096258387","169","149968.027746","156839.693529","142712.685949","143480.000878","144247.046213","144997.650636","145764.906514","146532.021102","150735.285788","151502.269599","152270.450198","153020.134537","153787.414222","154554.529119","155304.949587","156072.121063","156081.444011","Mapping"
"Blocked","m150","ball","3","m150jolt.wav","space","390.202232637","169","149968.027746","156839.693529","157606.664045","143480.000878","144247.046213","144997.650636","145764.906514","146532.021102","150735.285788","151502.269599","152270.450198","153020.134537","153787.414222","154554.529119","155304.949587","156072.121063","156849.399844","Mapping"
"Blocked","m150","ball","3","m150jolt.wav","None","726.1177334","169","149968.027746","156839.693529","157606.664045","158373.956096","144247.046213","144997.650636","145764.906514","146532.021102","150735.285788","151502.269599","152270.450198","153020.134537","153787.414222","154554.529119","155304.949587","156072.121063","157615.976481","Mapping"
"Blocked","m150","ball","3","m150lash.wav","None","721.411275677","169","149968.027746","156839.693529","157606.664045","158373.956096","159124.713866","144997.650636","145764.906514","146532.021102","150735.285788","151502.269599","152270.450198","153020.134537","153787.414222","154554.529119","155304.949587","156072.121063","158383.803701","Mapping"
"Blocked","m150","ball","3","m150done.wav","None","733.158406336","169","149968.027746","156839.693529","157606.664045","158373.956096","159124.713866","159891.640171","145764.906514","146532.021102","150735.285788","151502.269599","152270.450198","153020.134537","153787.414222","154554.529119","155304.949587","156072.121063","159134.470575","Mapping"
"Blocked","m150","ball","3","m150ball.wav","None","728.779666126","169","149968.027746","156839.693529","157606.664045","158373.956096","159124.713866","159891.640171","160659.098863","146532.021102","150735.285788","151502.269599","152270.450198","153020.134537","153787.414222","154554.529119","155304.949587","156072.121063","159901.390389","Mapping"
"Blocked","m150","ball","3","m150jolt.wav","space","466.745628044","169","149968.027746","156839.693529","157606.664045","158373.956096","159124.713866","159891.640171","160659.098863","161426.52231","150735.285788","151502.269599","152270.450198","153020.134537","153787.414222","154554.529119","155304.949587","156072.121063","160668.774262","Mapping"
"Blocked","m150","ball","6","m150tile.wav","None","718.362265266","169","164528.461966","156839.693529","157606.664045","158373.956096","159124.713866","159891.640171","160659.098863","161426.52231","150735.285788","151502.269599","152270.450198","153020.134537","153787.414222","154554.529119","155304.949587","156072.121063","161436.773688","Mapping"
"Blocked","m150","ball","6","m150ball.wav","None","734.787101392","169","164528.461966","156839.693529","157606.664045","158373.956096","159124.713866","159891.640171","160659.098863","161426.52231","165295.698985","151502.269599","152270.450198","153020.134537","153787.414222","154554.529119","155304.949587","156072.121063","164538.585039","Mapping"
"Blocked","m150","ball","6","m150done.wav","space","422.31361242","169","164528.461966","156839.693529","157606.664045","158373.956096","159124.713866","159891.640171","160659.098863","161426.52231","165295.698985","166062.88901","152270.450198","153020.134537","153787.414222","154554.529119","155304.949587","156072.121063","165305.053777","Mapping"
"Blocked","m150","ball","6","m150ball.wav","None","727.393668145","169","164528.461966","156839.693529","157606.664045","158373.956096","159124.713866","159891.640171","160659.098863","161426.52231","165295.698985","166062.88901","166830.316786","153020.134537","153787.414222","154554.529119","155304.949587","156072.121063","166072.045935","Mapping"
"Blocked","m150","ball","6","m150cling.wav","space","535.837157629","169","164528.461966","156839.693529","157606.664045","158373.956096","159124.713866","159891.640171","160659.098863","161426.52231","165295.698985","166062.88901","166830.316786","167597.316055","153787.414222","154554.529119","155304.949587","156072.121063","166839.477111","Mapping"
"Blocked","m150","ball","6","m150ball.wav","None","720.54004157","169","164528.461966","156839.693529","157606.664045","158373.956096","159124.713866","159891.640171","160659.098863","161426.52231","165295.698985","166062.88901","166830.316786","167597.316055","168347.864209","154554.529119","155304.949587","156072.121063","167606.897466","Mapping"
"Blocked","m150","ball","6","m150cad.wav","space","394.286026713","169","164528.461966","156839.693529","157606.664045","158373.956096","159124.713866","159891.640171","160659.098863","161426.52231","165295.698985","166062.88901","166830.316786","167597.316055","168347.864209","169115.134927","155304.949587","156072.121063","168356.954972","Mapping"
"Blocked","m150","ball","6","m150jaw.wav","None","732.142791152","169","164528.461966","156839.693529","157606.664045","158373.956096","159124.713866","159891.640171","160659.098863","161426.52231","165295.698985","166062.88901","166830.316786","167597.316055","168347.864209","169115.134927","169882.501178","156072.121063","169124.295871","Mapping"
"Blocked","m150","ball","6","m150done.wav","None","726.74441617","169","164528.461966","156839.693529","157606.664045","158373.956096","159124.713866","159891.640171","160659.098863","161426.52231","165295.698985","166062.88901","166830.316786","167597.316055","168347.864209","169115.134927","169882.501178","170649.431503","169892.352493","Mapping"
"Blocked","m150","ball","6","m150park.wav","None","722.88136743","169","164528.461966","171399.990168","157606.664045","158373.956096","159124.713866","159891.640171","160659.098863","161426.52231","165295.698985","166062.88901","166830.316786","167597.316055","168347.864209","169115.134927","169882.501178","170649.431503","170658.87348","Mapping"
"Blocked","m150","ball","6","m150romp.wav","None","735.916490201","169","164528.461966","171399.990168","172167.44546","158373.956096","159124.713866","159891.640171","160659.098863","161426.52231","165295.698985","166062.88901","166830.316786","167597.316055","168347.864209","169115.134927","169882.501178","170649.431503","171409.401538","Mapping"
"Blocked","m150","ball","6","m150reek.wav","None","730.237700045","169","164528.461966","171399.990168","172167.44546","172934.675986","159124.713866","159891.640171","160659.098863","161426.52231","165295.698985","166062.88901","166830.316786","167597.316055","168347.864209","169115.134927","169882.501178","170649.431503","172177.67365","Mapping"
"Blocked","m150","ball","6","m150cling.wav","None","725.829589181","169","164528.461966","171399.990168","172167.44546","172934.675986","173701.902493","159891.640171","160659.098863","161426.52231","165295.698985","166062.88901","166830.316786","167597.316055","168347.864209","169115.134927","169882.501178","170649.431503","172944.797823","Mapping"
"Blocked","m150","ball","6","m150romp.wav","None","721.70189349","169","164528.461966","171399.990168","172167.44546","172934.675986","173701.902493","174452.348932","160659.098863","161426.52231","165295.698985","166062.88901","166830.316786","167597.316055","168347.864209","169115.134927","169882.501178","170649.431503","173711.513895","Mapping"
"Blocked","m150","ball","6","m150ball.wav","None","734.131356701","169","164528.461966","171399.990168","172167.44546","172934.675986","173701.902493","174452.348932","175219.305227","161426.52231","165295.698985","166062.88901","166830.316786","167597.316055","168347.864209","169115.134927","169882.501178","170649.431503","174461.762466","Mapping"
"Blocked","m150","ball","6","m150park.wav","space","466.38761228","169","164528.461966","171399.990168","172167.44546","172934.675986","173701.902493","174452.348932","175219.305227","175986.676115","165295.698985","166062.88901","166830.316786","167597.316055","168347.864209","169115.134927","169882.501178","170649.431503","175228.578398","Mapping"
"Blocked","m150","cave","11","m150depth.wav","None","725.300294347","169","179105.926062","171399.990168","172167.44546","172934.675986","173701.902493","174452.348932","175219.305227","175986.676115","165295.698985","166062.88901","166830.316786","167597.316055","168347.864209","169115.134927","169882.501178","170649.431503","175996.09645","Mapping"
"Blocked","m150","cave","11","m150cave.wav","None","725.018333644","169","179105.926062","171399.990168","172167.44546","172934.675986","173701.902493","174452.348932","175219.305227","175986.676115","179856.19411","166062.88901","166830.316786","167597.316055","168347.864209","169115.134927","169882.501178","170649.431503","179112.29986","Mapping"
"Blocked","m150","cave","11","m150jaw.wav","space","397.0969785","169","179105.926062","171399.990168","172167.44546","172934.675986","173701.902493","174452.348932","175219.305227","175986.676115","179856.19411","180624.23682","166830.316786","167597.316055","168347.864209","169115.134927","169882.501178","170649.431503","179865.713689","Mapping"
"Blocked","m150","cave","11","m150priest.wav","None","726.886324119","169","179105.926062","171399.990168","172167.44546","172934.675986","173701.902493","174452.348932","175219.305227","175986.676115","179856.19411","180624.23682","181390.5856","167597.316055","168347.864209","169115.134927","169882.501178","170649.431503","180635.132194","Mapping"
"Blocked","m150","cave","11","m150bluff.wav","None","725.435091648","169","179105.926062","171399.990168","172167.44546","172934.675986","173701.902493","174452.348932","175219.305227","175986.676115","179856.19411","180624.23682","181390.5856","182158.04522","168347.864209","169115.134927","169882.501178","170649.431503","181399.534765","Mapping"
"Blocked","m150","cave","11","m150bluff.wav","None","726.013544016","169","179105.926062","171399.990168","172167.44546","172934.675986","173701.902493","174452.348932","175219.305227","175986.676115","179856.19411","180624.23682","181390.5856","182158.04522","182908.741465","169115.134927","169882.501178","170649.431503","182161.872096","Mapping"
"Blocked","m150","cave","11","m150depth.wav","None","732.226884458","169","179105.926062","171399.990168","172167.44546","172934.675986","173701.902493","174452.348932","175219.305227","175986.676115","179856.19411","180624.23682","181390.5856","182158.04522","182908.741465","183675.989305","169882.501178","170649.431503","182918.427685","Mapping"
"Blocked","m150","cave","11","m150cave.wav","None","727.528156247","169","179105.926062","171399.990168","172167.44546","172934.675986","173701.902493","174452.348932","175219.305227","175986.676115","179856.19411","180624.23682","181390.5856","182158.04522","182908.741465","183675.989305","184443.083798","170649.431503","183685.572572","Mapping"
"Blocked","m150","cave","11","m150done.wav","space","409.986482933","169","179105.926062","171399.990168","172167.44546","172934.675986","173701.902493","174452.348932","175219.305227","175986.676115","179856.19411","180624.23682","181390.5856","182158.04522","182908.741465","183675.989305","184443.083798","185193.367923","184452.690562","Mapping"
"Blocked","m150","cave","11","m150bluff.wav","None","735.601757187","169","179105.926062","185960.704494","172167.44546","172934.675986","173701.902493","174452.348932","175219.305227","175986.676115","179856.19411","180624.23682","181390.5856","182158.04522","182908.741465","183675.989305","184443.083798","185193.367923","185202.933877","Mapping"
"Blocked","m150","cave","11","m150tile.wav","None","730.626323726","169","179105.926062","185960.704494","186728.000255","172934.675986","173701.902493","174452.348932","175219.305227","175986.676115","179856.19411","180624.23682","181390.5856","182158.04522","182908.741465","183675.989305","184443.083798","185193.367923","185971.002247","Mapping"
"Blocked","m150","cave","11","m150done.wav","None","725.875964388","169","179105.926062","185960.704494","186728.000255","187495.168948","173701.902493","174452.348932","175219.305227","175986.676115","179856.19411","180624.23682","181390.5856","182158.04522","182908.741465","183675.989305","184443.083798","185193.367923","186738.320886","Mapping"
"Blocked","m150","cave","11","m150cave.wav","None","721.943043638","169","179105.926062","185960.704494","186728.000255","187495.168948","188245.646303","174452.348932","175219.305227","175986.676115","179856.19411","180624.23682","181390.5856","182158.04522","182908.741465","183675.989305","184443.083798","185193.367923","187504.914837","Mapping"
"Blocked","m150","cave","11","m150jaw.wav","space","399.317729287","169","179105.926062","185960.704494","186728.000255","187495.168948","188245.646303","189012.543237","175219.305227","175986.676115","179856.19411","180624.23682","181390.5856","182158.04522","182908.741465","183675.989305","184443.083798","185193.367923","188255.22184","Mapping"
"Blocked","m150","cave","11","m150cave.wav","None","734.441451728","169","179105.926062","185960.704494","186728.000255","187495.168948","188245.646303","189012.543237","189780.083859","175986.676115","179856.19411","180624.23682","181390.5856","182158.04522","182908.741465","183675.989305","184443.083798","185193.367923","189021.559182","Mapping"
"Blocked","m150","cave","11","m150reek.wav","space","664.742717054","169","179105.926062","185960.704494","186728.000255","187495.168948","188245.646303","189012.543237","189780.083859","190547.839351","179856.19411","180624.23682","181390.5856","182158.04522","182908.741465","183675.989305","184443.083798","185193.367923","189789.719375","Mapping"
"Blocked","m150","tile","15","m150ball.wav","None","723.392730579","169","193649.463038","185960.704494","186728.000255","187495.168948","188245.646303","189012.543237","189780.083859","190547.839351","179856.19411","180624.23682","181390.5856","182158.04522","182908.741465","183675.989305","184443.083798","185193.367923","190557.535465","Mapping"
"Blocked","m150","tile","15","m150jolt.wav","None","735.38626777","169","193649.463038","185960.704494","186728.000255","187495.168948","188245.646303","189012.543237","189780.083859","190547.839351","194416.704076","180624.23682","181390.5856","182158.04522","182908.741465","183675.989305","184443.083798","185193.367923","193659.055271","Mapping"
"Blocked","m150","tile","15","m150knife.wav","None","731.143870857","169","193649.463038","185960.704494","186728.000255","187495.168948","188245.646303","189012.543237","189780.083859","190547.839351","194416.704076","195184.396499","181390.5856","182158.04522","182908.741465","183675.989305","184443.083798","185193.367923","194426.240658","Mapping"
"Blocked","m150","tile","15","m150tile.wav","None","732.115893159","169","193649.463038","185960.704494","186728.000255","187495.168948","188245.646303","189012.543237","189780.083859","190547.839351","194416.704076","195184.396499","195951.055993","182158.04522","182908.741465","183675.989305","184443.083798","185193.367923","195194.117655","Mapping"
"Blocked","m150","tile","15","m150dime.wav","space","421.381162945","169","193649.463038","185960.704494","186728.000255","187495.168948","188245.646303","189012.543237","189780.083859","190547.839351","194416.704076","195184.396499","195951.055993","196718.595687","182908.741465","183675.989305","184443.083798","185193.367923","195960.864643","Mapping"
"Blocked","m150","tile","15","m150cave.wav","None","723.380981945","169","193649.463038","185960.704494","186728.000255","187495.168948","188245.646303","189012.543237","189780.083859","190547.839351","194416.704076","195184.396499","195951.055993","196718.595687","197468.977199","183675.989305","184443.083798","185193.367923","196728.001801","Mapping"
"Blocked","m150","tile","15","m150tile.wav","None","736.254410353","169","193649.463038","185960.704494","186728.000255","187495.168948","188245.646303","189012.543237","189780.083859","190547.839351","194416.704076","195184.396499","195951.055993","196718.595687","197468.977199","198236.210509","184443.083798","185193.367923","197478.008293","Mapping"
"Blocked","m150","tile","15","m150done.wav","space","392.66629843","169","193649.463038","185960.704494","186728.000255","187495.168948","188245.646303","189012.543237","189780.083859","190547.839351","194416.704076","195184.396499","195951.055993","196718.595687","197468.977199","198236.210509","199003.701663","185193.367923","198245.475024","Mapping"
"Blocked","m150","tile","15","m150cling.wav","None","727.228263393","169","193649.463038","185960.704494","186728.000255","187495.168948","188245.646303","189012.543237","189780.083859","190547.839351","194416.704076","195184.396499","195951.055993","196718.595687","197468.977199","198236.210509","199003.701663","199770.772041","199012.971743","Mapping"
"Blocked","m150","tile","15","m150depth.wav","None","722.590440884","169","193649.463038","200521.277221","186728.000255","187495.168948","188245.646303","189012.543237","189780.083859","190547.839351","194416.704076","195184.396499","195951.055993","196718.595687","197468.977199","198236.210509","199003.701663","199770.772041","199780.541427","Mapping"
"Blocked","m150","tile","15","m150cad.wav","None","735.2152979","169","193649.463038","200521.277221","201288.654292","187495.168948","188245.646303","189012.543237","189780.083859","190547.839351","194416.704076","195184.396499","195951.055993","196718.595687","197468.977199","198236.210509","199003.701663","199770.772041","200530.749806","Mapping"
"Blocked","m150","tile","15","m150tile.wav","None","731.198902242","169","193649.463038","200521.277221","201288.654292","202055.917282","188245.646303","189012.543237","189780.083859","190547.839351","194416.704076","195184.396499","195951.055993","196718.595687","197468.977199","198236.210509","199003.701663","199770.772041","201297.763606","Mapping"
"Blocked","m150","tile","15","m150done.wav","space","396.417119075","169","193649.463038","200521.277221","201288.654292","202055.917282","202823.304865","189012.543237","189780.083859","190547.839351","194416.704076","195184.396499","195951.055993","196718.595687","197468.977199","198236.210509","199003.701663","199770.772041","202065.599791","Mapping"
"Blocked","m150","tile","15","m150bluff.wav","None","720.860957168","169","193649.463038","200521.277221","201288.654292","202055.917282","202823.304865","203573.374428","189780.083859","190547.839351","194416.704076","195184.396499","195951.055993","196718.595687","197468.977199","198236.210509","199003.701663","199770.772041","202833.563045","Mapping"
"Blocked","m150","tile","15","m150tile.wav","None","734.624478966","169","193649.463038","200521.277221","201288.654292","202055.917282","202823.304865","203573.374428","204340.773451","190547.839351","194416.704076","195184.396499","195951.055993","196718.595687","197468.977199","198236.210509","199003.701663","199770.772041","203582.679753","Mapping"
"Blocked","m150","tile","15","m150reek.wav","space","623.518314213","169","193649.463038","200521.277221","201288.654292","202055.917282","202823.304865","203573.374428","204340.773451","205108.075086","194416.704076","195184.396499","195951.055993","196718.595687","197468.977199","198236.210509","199003.701663","199770.772041","204350.404639","Mapping"
"Blocked","m150","done","22","m150jaw.wav","None","725.648417138","169","208227.10336","200521.277221","201288.654292","202055.917282","202823.304865","203573.374428","204340.773451","205108.075086","194416.704076","195184.396499","195951.055993","196718.595687","197468.977199","198236.210509","199003.701663","199770.772041","205118.212999","Mapping"
"Blocked","m150","done","22","m150done.wav","None","717.5621395","169","208227.10336","200521.277221","201288.654292","202055.917282","202823.304865","203573.374428","204340.773451","205108.075086","208977.38934","195184.396499","195951.055993","196718.595687","197468.977199","198236.210509","199003.701663","199770.772041","208237.224269","Mapping"
"Blocked","m150","done","22","m150cad.wav","space","411.374336574","169","208227.10336","200521.277221","201288.654292","202055.917282","202823.304865","203573.374428","204340.773451","205108.075086","208977.38934","209744.797947","195951.055993","196718.595687","197468.977199","198236.210509","199003.701663","199770.772041","208986.409303","Mapping"
"Blocked","m150","done","22","m150done.wav","None","726.144322194","169","208227.10336","200521.277221","201288.654292","202055.917282","202823.304865","203573.374428","204340.773451","205108.075086","208977.38934","209744.797947","210512.08536","196718.595687","197468.977199","198236.210509","199003.701663","199770.772041","209754.450776","Mapping"
"Blocked","m150","done","22","m150park.wav","space","340.341852978","169","208227.10336","200521.277221","201288.654292","202055.917282","202823.304865","203573.374428","204340.773451","205108.075086","208977.38934","209744.797947","210512.08536","211262.319709","197468.977199","198236.210509","199003.701663","199770.772041","210521.379555","Mapping"
"Blocked","m150","done","22","m150gnash.wav","None","734.303562902","169","208227.10336","200521.277221","201288.654292","202055.917282","202823.304865","203573.374428","204340.773451","205108.075086","208977.38934","209744.797947","210512.08536","211262.319709","212029.709766","198236.210509","199003.701663","199770.772041","211271.453755","Mapping"
"Blocked","m150","done","22","m150done.wav","None","733.461699914","169","208227.10336","200521.277221","201288.654292","202055.917282","202823.304865","203573.374428","204340.773451","205108.075086","208977.38934","209744.797947","210512.08536","211262.319709","212029.709766","212796.79653","199003.701663","199770.772041","212039.755547","Mapping"
"Blocked","m150","done","22","m150romp.wav","space","406.896662898","169","208227.10336","200521.277221","201288.654292","202055.917282","202823.304865","203573.374428","204340.773451","205108.075086","208977.38934","209744.797947","210512.08536","211262.319709","212029.709766","212796.79653","213564.238526","199770.772041","212806.765328","Mapping"
"Blocked","m150","done","22","m150cling.wav","None","724.806244951","169","208227.10336","200521.277221","201288.654292","202055.917282","202823.304865","203573.374428","204340.773451","205108.075086","208977.38934","209744.797947","210512.08536","211262.319709","212029.709766","212796.79653","213564.238526","214331.557166","213573.64866","Mapping"
"Blocked","m150","done","22","m150done.wav","None","720.450073481","169","208227.10336","215081.875299","201288.654292","202055.917282","202823.304865","203573.374428","204340.773451","205108.075086","208977.38934","209744.797947","210512.08536","211262.319709","212029.709766","212796.79653","213564.238526","214331.557166","214341.159601","Mapping"
"Blocked","m150","done","22","m150reek.wav","space","370.616777334","169","208227.10336","215081.875299","215849.056668","202055.917282","202823.304865","203573.374428","204340.773451","205108.075086","208977.38934","209744.797947","210512.08536","211262.319709","212029.709766","212796.79653","213564.238526","214331.557166","215090.954623","Mapping"
"Blocked","m150","done","22","m150depth.wav","None","728.471735492","169","208227.10336","215081.875299","215849.056668","216616.502993","202823.304865","203573.374428","204340.773451","205108.075086","208977.38934","209744.797947","210512.08536","211262.319709","212029.709766","212796.79653","213564.238526","214331.557166","215858.751235","Mapping"
"Blocked","m150","done","22","m150gnash.wav","None","724.129167385","169","208227.10336","215081.875299","215849.056668","216616.502993","217383.564405","203573.374428","204340.773451","205108.075086","208977.38934","209744.797947","210512.08536","211262.319709","212029.709766","212796.79653","213564.238526","214331.557166","216626.029683","Mapping"
"Blocked","m150","done","22","m150dime.wav","None","719.089736231","169","208227.10336","215081.875299","215849.056668","216616.502993","217383.564405","218134.106685","204340.773451","205108.075086","208977.38934","209744.797947","210512.08536","211262.319709","212029.709766","212796.79653","213564.238526","214331.557166","217394.008395","Mapping"
"Blocked","m150","done","22","m150cad.wav","None","738.468359224","169","208227.10336","215081.875299","215849.056668","216616.502993","217383.564405","218134.106685","218901.479119","205108.075086","208977.38934","209744.797947","210512.08536","211262.319709","212029.709766","212796.79653","213564.238526","214331.557166","218138.222633","Mapping"
"Blocked","m150","done","22","m150dime.wav","None","729.020198807","169","208227.10336","215081.875299","215849.056668","216616.502993","217383.564405","218134.106685","218901.479119","219668.422739","208977.38934","209744.797947","210512.08536","211262.319709","212029.709766","212796.79653","213564.238526","214331.557166","218911.14277","Mapping"
"Blocked","m150","done","24","m150reek.wav","None","725.595240016","169","222770.760602","215081.875299","215849.056668","216616.502993","217383.564405","218134.106685","218901.479119","219668.422739","208977.38934","209744.797947","210512.08536","211262.319709","212029.709766","212796.79653","213564.238526","214331.557166","219677.545346","Mapping"
"Blocked","m150","done","24","m150done.wav","None","735.097505152","169","222770.760602","215081.875299","215849.056668","216616.502993","217383.564405","218134.106685","218901.479119","219668.422739","223537.655372","209744.797947","210512.08536","211262.319709","212029.709766","212796.79653","213564.238526","214331.557166","222780.144765","Mapping"
"Blocked","m150","done","24","m150jaw.wav","space","426.445945632","169","222770.760602","215081.875299","215849.056668","216616.502993","217383.564405","218134.106685","218901.479119","219668.422739","223537.655372","224304.995962","210512.08536","211262.319709","212029.709766","212796.79653","213564.238526","214331.557166","223546.79282","Mapping"
"Blocked","m150","done","24","m150bluff.wav","None","725.73869396","169","222770.760602","215081.875299","215849.056668","216616.502993","217383.564405","218134.106685","218901.479119","219668.422739","223537.655372","224304.995962","225072.514633","211262.319709","212029.709766","212796.79653","213564.238526","214331.557166","224314.68311","Mapping"
"Blocked","m150","done","24","m150gnash.wav","None","721.533087548","169","222770.760602","215081.875299","215849.056668","216616.502993","217383.564405","218134.106685","218901.479119","219668.422739","223537.655372","224304.995962","225072.514633","225822.869867","212029.709766","212796.79653","213564.238526","214331.557166","225082.561651","Mapping"
"Blocked","m150","done","24","m150done.wav","None","734.996407758","169","222770.760602","215081.875299","215849.056668","216616.502993","217383.564405","218134.106685","218901.479119","219668.422739","223537.655372","224304.995962","225072.514633","225822.869867","226590.144604","212796.79653","213564.238526","214331.557166","225832.586384","Mapping"
"Blocked","m150","done","24","m150ball.wav","space","605.854335241","169","222770.760602","215081.875299","215849.056668","216616.502993","217383.564405","218134.106685","218901.479119","219668.422739","223537.655372","224304.995962","225072.514633","225822.869867","226590.144604","227357.28609","213564.238526","214331.557166","226599.275559","Mapping"
"Blocked","m150","done","24","m150done.wav","None","726.089599077","169","222770.760602","215081.875299","215849.056668","216616.502993","217383.564405","218134.106685","218901.479119","219668.422739","223537.655372","224304.995962","225072.514633","225822.869867","226590.144604","227357.28609","228124.736126","214331.557166","227366.638718","Mapping"
"Blocked","m150","done","24","m150reek.wav","space","526.74423065","169","222770.760602","215081.875299","215849.056668","216616.502993","217383.564405","218134.106685","218901.479119","219668.422739","223537.655372","224304.995962","225072.514633","225822.869867","226590.144604","227357.28609","228124.736126","228875.356934","228134.349072","Mapping"
"Blocked","m150","done","24","m150jolt.wav","None","733.730984852","169","222770.760602","229642.401651","215849.056668","216616.502993","217383.564405","218134.106685","218901.479119","219668.422739","223537.655372","224304.995962","225072.514633","225822.869867","226590.144604","227357.28609","228124.736126","228875.356934","228885.258643","Mapping"
"Blocked","m150","done","24","m150cad.wav","None","730.270163156","169","222770.760602","229642.401651","230409.967315","216616.502993","217383.564405","218134.106685","218901.479119","219668.422739","223537.655372","224304.995962","225072.514633","225822.869867","226590.144604","227357.28609","228124.736126","228875.356934","229651.734492","Mapping"
"Blocked","m150","done","24","m150gnash.wav","None","725.629249122","169","222770.760602","229642.401651","230409.967315","231176.97555","217383.564405","218134.106685","218901.479119","219668.422739","223537.655372","224304.995962","225072.514633","225822.869867","226590.144604","227357.28609","228124.736126","228875.356934","230419.301083","Mapping"
"Blocked","m150","done","24","m150depth.wav","None","721.25421837","169","222770.760602","229642.401651","230409.967315","231176.97555","231927.367575","218134.106685","218901.479119","219668.422739","223537.655372","224304.995962","225072.514633","225822.869867","226590.144604","227357.28609","228124.736126","228875.356934","231186.670117","Mapping"
"Blocked","m150","done","24","m150romp.wav","None","734.504521824","169","222770.760602","229642.401651","230409.967315","231176.97555","231927.367575","232695.008984","218901.479119","219668.422739","223537.655372","224304.995962","225072.514633","225822.869867","226590.144604","227357.28609","228124.736126","228875.356934","231936.952078","Mapping"
"Blocked","m150","done","24","m150done.wav","None","729.854023084","169","222770.760602","229642.401651","230409.967315","231176.97555","231927.367575","232695.008984","233462.032369","219668.422739","223537.655372","224304.995962","225072.514633","225822.869867","226590.144604","227357.28609","228124.736126","228875.356934","232704.650375","Mapping"
"Blocked","m150","done","24","m150lash.wav","space","482.331383042","169","222770.760602","229642.401651","230409.967315","231176.97555","231927.367575","232695.008984","233462.032369","234229.13088","223537.655372","224304.995962","225072.514633","225822.869867","226590.144604","227357.28609","228124.736126","228875.356934","233466.530757","Mapping"
"Blocked","m150","tile","14","m150romp.wav","None","720.804379787","169","237331.243052","229642.401651","230409.967315","231176.97555","231927.367575","232695.008984","233462.032369","234229.13088","223537.655372","224304.995962","225072.514633","225822.869867","226590.144604","227357.28609","228124.736126","228875.356934","234238.885736","Mapping"
"Blocked","m150","tile","14","m150tile.wav","None","734.994861763","169","237331.243052","229642.401651","230409.967315","231176.97555","231927.367575","232695.008984","233462.032369","234229.13088","238098.831594","224304.995962","225072.514633","225822.869867","226590.144604","227357.28609","228124.736126","228875.356934","237340.842704","Mapping"
"Blocked","m150","tile","14","m150done.wav","space","431.985919364","169","237331.243052","229642.401651","230409.967315","231176.97555","231927.367575","232695.008984","233462.032369","234229.13088","238098.831594","238865.678753","225072.514633","225822.869867","226590.144604","227357.28609","228124.736126","228875.356934","238108.760819","Mapping"
"Blocked","m150","tile","14","m150gnash.wav","None","727.165502496","169","237331.243052","229642.401651","230409.967315","231176.97555","231927.367575","232695.008984","233462.032369","234229.13088","238098.831594","238865.678753","239633.145483","225822.869867","226590.144604","227357.28609","228124.736126","228875.356934","238875.396507","Mapping"
"Blocked","m150","tile","14","m150bluff.wav","None","722.833755426","169","237331.243052","229642.401651","230409.967315","231176.97555","231927.367575","232695.008984","233462.032369","234229.13088","238098.831594","238865.678753","239633.145483","240383.546164","226590.144604","227357.28609","228124.736126","228875.356934","239642.806351","Mapping"
"Blocked","m150","tile","14","m150tile.wav","None","735.726352315","169","237331.243052","229642.401651","230409.967315","231176.97555","231927.367575","232695.008984","233462.032369","234229.13088","238098.831594","238865.678753","239633.145483","240383.546164","241150.711147","227357.28609","228124.736126","228875.356934","240393.05183","Mapping"
"Blocked","m150","tile","14","m150knife.wav","space","460.388833657","169","237331.243052","229642.401651","230409.967315","231176.97555","231927.367575","232695.008984","233462.032369","234229.13088","238098.831594","238865.678753","239633.145483","240383.546164","241150.711147","241918.015256","228124.736126","228875.356934","241160.214958","Mapping"
"Blocked","m150","tile","14","m150park.wav","None","727.421802003","169","237331.243052","229642.401651","230409.967315","231176.97555","231927.367575","232695.008984","233462.032369","234229.13088","238098.831594","238865.678753","239633.145483","240383.546164","241150.711147","241918.015256","242685.454779","228875.356934","241927.509173","Mapping"
"Blocked","m150","tile","14","m150dime.wav","None","722.951239441","169","237331.243052","229642.401651","230409.967315","231176.97555","231927.367575","232695.008984","233462.032369","234229.13088","238098.831594","238865.678753","239633.145483","240383.546164","241150.711147","241918.015256","242685.454779","243435.539801","242695.147492","Mapping"
"Blocked","m150","tile","14","m150jaw.wav","None","736.101372633","169","237331.243052","244203.124015","230409.967315","231176.97555","231927.367575","232695.008984","233462.032369","234229.13088","238098.831594","238865.678753","239633.145483","240383.546164","241150.711147","241918.015256","242685.454779","243435.539801","243445.045157","Mapping"
"Blocked","m150","tile","14","m150jaw.wav","None","731.408517808","169","237331.243052","244203.124015","244970.117719","231176.97555","231927.367575","232695.008984","233462.032369","234229.13088","238098.831594","238865.678753","239633.145483","240383.546164","241150.711147","241918.015256","242685.454779","243435.539801","244212.765096","Mapping"
"Blocked","m150","tile","14","m150gnash.wav","None","728.640540503","169","237331.243052","244203.124015","244970.117719","245737.689876","231927.367575","232695.008984","233462.032369","234229.13088","238098.831594","238865.678753","239633.145483","240383.546164","241150.711147","241918.015256","242685.454779","243435.539801","244979.19797","Mapping"
"Blocked","m150","tile","14","m150tile.wav","None","723.683347926","169","237331.243052","244203.124015","244970.117719","245737.689876","246504.892886","232695.008984","233462.032369","234229.13088","238098.831594","238865.678753","239633.145483","240383.546164","241150.711147","241918.015256","242685.454779","243435.539801","245747.731947","Mapping"
"Blocked","m150","tile","14","m150romp.wav","space","433.803515509","169","237331.243052","244203.124015","244970.117719","245737.689876","246504.892886","247255.436093","233462.032369","234229.13088","238098.831594","238865.678753","239633.145483","240383.546164","241150.711147","241918.015256","242685.454779","243435.539801","246514.627645","Mapping"
"Blocked","m150","tile","14","m150tile.wav","None","731.954507995","169","237331.243052","244203.124015","244970.117719","245737.689876","246504.892886","247255.436093","248022.438763","234229.13088","238098.831594","238865.678753","239633.145483","240383.546164","241150.711147","241918.015256","242685.454779","243435.539801","247265.052441","Mapping"
"Blocked","m150","tile","14","m150priest.wav","space","565.118726343","169","237331.243052","244203.124015","244970.117719","245737.689876","246504.892886","247255.436093","248022.438763","248789.764204","238098.831594","238865.678753","239633.145483","240383.546164","241150.711147","241918.015256","242685.454779","243435.539801","248079.238409","Mapping"
"Blocked","m150","tile","18","m150priest.wav","None","720.549007412","169","251891.858752","244203.124015","244970.117719","245737.689876","246504.892886","247255.436093","248022.438763","248789.764204","238098.831594","238865.678753","239633.145483","240383.546164","241150.711147","241918.015256","242685.454779","243435.539801","248802.962567","Mapping"
"Blocked","m150","tile","18","m150tile.wav","None","734.238019213","169","251891.858752","244203.124015","244970.117719","245737.689876","246504.892886","247255.436093","248022.438763","248789.764204","252659.077222","238865.678753","239633.145483","240383.546164","241150.711147","241918.015256","242685.454779","243435.539801","251902.6487","Mapping"
"Blocked","m150","tile","18","m150gnash.wav","space","543.670845218","169","251891.858752","244203.124015","244970.117719","245737.689876","246504.892886","247255.436093","248022.438763","248789.764204","252659.077222","253426.547662","239633.145483","240383.546164","241150.711147","241918.015256","242685.454779","243435.539801","252668.529092","Mapping"
"Blocked","m150","tile","18","m150greet.wav","None","723.807942588","169","251891.858752","244203.124015","244970.117719","245737.689876","246504.892886","247255.436093","248022.438763","248789.764204","252659.077222","253426.547662","254194.008827","240383.546164","241150.711147","241918.015256","242685.454779","243435.539801","253438.675378","Mapping"
"Blocked","m150","tile","18","m150tile.wav","None","721.885229461","169","251891.858752","244203.124015","244970.117719","245737.689876","246504.892886","247255.436093","248022.438763","248789.764204","252659.077222","253426.547662","254194.008827","254945.618972","241150.711147","241918.015256","242685.454779","243435.539801","254203.771411","Mapping"
"Blocked","m150","tile","18","m150park.wav","space","504.648643546","169","251891.858752","244203.124015","244970.117719","245737.689876","246504.892886","247255.436093","248022.438763","248789.764204","252659.077222","253426.547662","254194.008827","254945.618972","255711.306134","241918.015256","242685.454779","243435.539801","254955.452665","Mapping"
"Blocked","m150","tile","18","m150gnash.wav","None","731.010000687","169","251891.858752","244203.124015","244970.117719","245737.689876","246504.892886","247255.436093","248022.438763","248789.764204","252659.077222","253426.547662","254194.008827","254945.618972","255711.306134","256478.474827","242685.454779","243435.539801","255721.062844","Mapping"
"Blocked","m150","tile","18","m150jolt.wav","None","726.530472282","169","251891.858752","244203.124015","244970.117719","245737.689876","246504.892886","247255.436093","248022.438763","248789.764204","252659.077222","253426.547662","254194.008827","254945.618972","255711.306134","256478.474827","257246.0037","243435.539801","256488.857292","Mapping"
"Blocked","m150","tile","18","m150cad.wav","None","720.551480539","169","251891.858752","244203.124015","244970.117719","245737.689876","246504.892886","247255.436093","248022.438763","248789.764204","252659.077222","253426.547662","254194.008827","254945.618972","255711.306134","256478.474827","257246.0037","257996.127058","257258.109465","Mapping"
"Blocked","m150","tile","18","m150tile.wav","None","736.826061271","169","251891.858752","258763.438277","244970.117719","245737.689876","246504.892886","247255.436093","248022.438763","248789.764204","252659.077222","253426.547662","254194.008827","254945.618972","255711.306134","256478.474827","257246.0037","257996.127058","258005.072821","Mapping"
"Blocked","m150","tile","18","m150ball.wav","space","479.136754759","169","251891.858752","258763.438277","259530.965604","245737.689876","246504.892886","247255.436093","248022.438763","248789.764204","252659.077222","253426.547662","254194.008827","254945.618972","255711.306134","256478.474827","257246.0037","257996.127058","258772.857376","Mapping"
"Blocked","m150","tile","18","m150gnash.wav","None","728.056214284","169","251891.858752","258763.438277","259530.965604","260298.040929","246504.892886","247255.436093","248022.438763","248789.764204","252659.077222","253426.547662","254194.008827","254945.618972","255711.306134","256478.474827","257246.0037","257996.127058","259540.613178","Mapping"
"Blocked","m150","tile","18","m150depth.wav","None","724.436171353","169","251891.858752","258763.438277","259530.965604","260298.040929","261065.230027","247255.436093","248022.438763","248789.764204","252659.077222","253426.547662","254194.008827","254945.618972","255711.306134","256478.474827","257246.0037","257996.127058","260307.527117","Mapping"
"Blocked","m150","tile","18","m150lash.wav","None","720.634337515","169","251891.858752","258763.438277","259530.965604","260298.040929","261065.230027","261815.622051","248022.438763","248789.764204","252659.077222","253426.547662","254194.008827","254945.618972","255711.306134","256478.474827","257246.0037","257996.127058","261074.59935","Mapping"
"Blocked","m150","tile","18","m150tile.wav","None","734.432485886","169","251891.858752","258763.438277","259530.965604","260298.040929","261065.230027","261815.622051","262583.15649","248789.764204","252659.077222","253426.547662","254194.008827","254945.618972","255711.306134","256478.474827","257246.0037","257996.127058","261824.626557","Mapping"
"Blocked","m150","tile","18","m150park.wav","space","491.328158882","169","251891.858752","258763.438277","259530.965604","260298.040929","261065.230027","261815.622051","262583.15649","263350.419788","252659.077222","253426.547662","254194.008827","254945.618972","255711.306134","256478.474827","257246.0037","257996.127058","262592.519629","Mapping"
"Blocked","m150","cave","12","m150jolt.wav","None","724.817065522","169","266452.305648","258763.438277","259530.965604","260298.040929","261065.230027","261815.622051","262583.15649","263350.419788","252659.077222","253426.547662","254194.008827","254945.618972","255711.306134","256478.474827","257246.0037","257996.127058","263359.916488","Mapping"
"Blocked","m150","cave","12","m150priest.wav","None","736.260902602","169","266452.305648","258763.438277","259530.965604","260298.040929","261065.230027","261815.622051","262583.15649","263350.419788","267220.027442","253426.547662","254194.008827","254945.618972","255711.306134","256478.474827","257246.0037","257996.127058","266461.242446","Mapping"
"Blocked","m150","cave","12","m150tile.wav","None","730.54563161","169","266452.305648","258763.438277","259530.965604","260298.040929","261065.230027","261815.622051","262583.15649","263350.419788","267220.027442","267987.197062","254194.008827","254945.618972","255711.306134","256478.474827","257246.0037","257996.127058","267229.970889","Mapping"
"Blocked","m150","cave","12","m150cave.wav","None","727.300608531","169","266452.305648","258763.438277","259530.965604","260298.040929","261065.230027","261815.622051","262583.15649","263350.419788","267220.027442","267987.197062","268754.233432","254945.618972","255711.306134","256478.474827","257246.0037","257996.127058","267996.370373","Mapping"
"Blocked","m150","cave","12","m150knife.wav","space","439.814969432","169","266452.305648","258763.438277","259530.965604","260298.040929","261065.230027","261815.622051","262583.15649","263350.419788","267220.027442","267987.197062","268754.233432","269504.825178","255711.306134","256478.474827","257246.0037","257996.127058","268763.806496","Mapping"
"Blocked","m150","cave","12","m150romp.wav","None","735.662354622","169","266452.305648","258763.438277","259530.965604","260298.040929","261065.230027","261815.622051","262583.15649","263350.419788","267220.027442","267987.197062","268754.233432","269504.825178","270272.064052","256478.474827","257246.0037","257996.127058","269514.723178","Mapping"
"Blocked","m150","cave","12","m150cave.wav","None","731.82125669","169","266452.305648","258763.438277","259530.965604","260298.040929","261065.230027","261815.622051","262583.15649","263350.419788","267220.027442","267987.197062","268754.233432","269504.825178","270272.064052","271039.146796","257246.0037","257996.127058","270281.797574","Mapping"
"Blocked","m150","cave","12","m150dime.wav","space","523.283099756","169","266452.305648","258763.438277","259530.965604","260298.040929","261065.230027","261815.622051","262583.15649","263350.419788","267220.027442","267987.197062","268754.233432","269504.825178","270272.064052","271039.146796","271806.28952","257996.127058","271048.253636","Mapping"
"Blocked","m150","cave","12","m150cave.wav","None","724.241086747","169","266452.305648","258763.438277","259530.965604","260298.040929","261065.230027","261815.622051","262583.15649","263350.419788","267220.027442","267987.197062","268754.233432","269504.825178","270272.064052","271039.146796","271806.28952","272573.747284","271815.270219","Mapping"
"Blocked","m150","cave","12","m150depth.wav","space","451.611876022","169","266452.305648","273324.419105","259530.965604","260298.040929","261065.230027","261815.622051","262583.15649","263350.419788","267220.027442","267987.197062","268754.233432","269504.825178","270272.064052","271039.146796","271806.28952","272573.747284","272583.753801","Mapping"
"Blocked","m150","cave","12","m150cling.wav","None","731.19952064","169","266452.305648","273324.419105","274091.459494","260298.040929","261065.230027","261815.622051","262583.15649","263350.419788","267220.027442","267987.197062","268754.233432","269504.825178","270272.064052","271039.146796","271806.28952","272573.747284","273333.959089","Mapping"
"Blocked","m150","cave","12","m150gnash.wav","None","727.666971739","169","266452.305648","273324.419105","274091.459494","274858.536054","261065.230027","261815.622051","262583.15649","263350.419788","267220.027442","267987.197062","268754.233432","269504.825178","270272.064052","271039.146796","271806.28952","272573.747284","274100.70144","Mapping"
"Blocked","m150","cave","12","m150cave.wav","None","723.648412619","169","266452.305648","273324.419105","274091.459494","274858.536054","275626.395737","261815.622051","262583.15649","263350.419788","267220.027442","267987.197062","268754.233432","269504.825178","270272.064052","271039.146796","271806.28952","272573.747284","274867.794386","Mapping"
"Blocked","m150","cave","12","m150tile.wav","space","495.209139306","169","266452.305648","273324.419105","274091.459494","274858.536054","275626.395737","276376.485396","262583.15649","263350.419788","267220.027442","267987.197062","268754.233432","269504.825178","270272.064052","271039.146796","271806.28952","272573.747284","275636.144408","Mapping"
"Blocked","m150","cave","12","m150ball.wav","None","732.028398663","169","266452.305648","273324.419105","274091.459494","274858.536054","275626.395737","276376.485396","277143.724579","263350.419788","267220.027442","267987.197062","268754.233432","269504.825178","270272.064052","271039.146796","271806.28952","272573.747284","276385.886254","Mapping"
"Blocked","m150","cave","12","m150depth.wav","None","727.844434325","169","266452.305648","273324.419105","274091.459494","274858.536054","275626.395737","276376.485396","277143.724579","277910.636663","267220.027442","267987.197062","268754.233432","269504.825178","270272.064052","271039.146796","271806.28952","272573.747284","277153.262398","Mapping"
"Blocked","m150","ball","5","m150priest.wav","None","724.417312071","169","281013.134056","273324.419105","274091.459494","274858.536054","275626.395737","276376.485396","277143.724579","277910.636663","267220.027442","267987.197062","268754.233432","269504.825178","270272.064052","271039.146796","271806.28952","272573.747284","277920.005676","Mapping"
"Blocked","m150","ball","5","m150reek.wav","None","735.523228999","169","281013.134056","273324.419105","274091.459494","274858.536054","275626.395737","276376.485396","277143.724579","277910.636663","281780.221747","267987.197062","268754.233432","269504.825178","270272.064052","271039.146796","271806.28952","272573.747284","281022.57727","Mapping"
"Blocked","m150","ball","5","m150ball.wav","None","731.547025032","169","281013.134056","273324.419105","274091.459494","274858.536054","275626.395737","276376.485396","277143.724579","277910.636663","281780.221747","282547.480717","268754.233432","269504.825178","270272.064052","271039.146796","271806.28952","272573.747284","281789.714428","Mapping"
"Blocked","m150","ball","5","m150lash.wav","space","358.295522165","169","281013.134056","273324.419105","274091.459494","274858.536054","275626.395737","276376.485396","277143.724579","277910.636663","281780.221747","282547.480717","283314.627459","269504.825178","270272.064052","271039.146796","271806.28952","272573.747284","282556.819432","Mapping"
"Blocked","m150","ball","5","m150depth.wav","None","723.762185778","169","281013.134056","273324.419105","274091.459494","274858.536054","275626.395737","276376.485396","277143.724579","277910.636663","281780.221747","282547.480717","283314.627459","284081.520993","270272.064052","271039.146796","271806.28952","272573.747284","283323.717295","Mapping"
"Blocked","m150","ball","5","m150ball.wav","None","723.949541338","169","281013.134056","273324.419105","274091.459494","274858.536054","275626.395737","276376.485396","277143.724579","277910.636663","281780.221747","282547.480717","283314.627459","284081.520993","284832.292366","271039.146796","271806.28952","272573.747284","284090.611447","Mapping"
"Blocked","m150","ball","5","m150park.wav","space","377.306544688","169","281013.134056","273324.419105","274091.459494","274858.536054","275626.395737","276376.485396","277143.724579","277910.636663","281780.221747","282547.480717","283314.627459","284081.520993","284832.292366","285600.017251","271806.28952","272573.747284","284841.72816","Mapping"
"Blocked","m150","ball","5","m150ball.wav","None","731.752003077","169","281013.134056","273324.419105","274091.459494","274858.536054","275626.395737","276376.485396","277143.724579","277910.636663","281780.221747","282547.480717","283314.627459","284081.520993","284832.292366","285600.017251","286366.953451","272573.747284","285609.11729","Mapping"
"Blocked","m150","ball","5","m150reek.wav","space","418.438505847","169","281013.134056","273324.419105","274091.459494","274858.536054","275626.395737","276376.485396","277143.724579","277910.636663","281780.221747","282547.480717","283314.627459","284081.520993","284832.292366","285600.017251","286366.953451","287134.299296","286376.547538","Mapping"
"Blocked","m150","ball","5","m150bluff.wav","None","723.147560842","169","281013.134056","287884.635362","274091.459494","274858.536054","275626.395737","276376.485396","277143.724579","277910.636663","281780.221747","282547.480717","283314.627459","284081.520993","284832.292366","285600.017251","286366.953451","287134.299296","287143.509707","Mapping"
"Blocked","m150","ball","5","m150priest.wav","None","736.245135311","169","281013.134056","287884.635362","288652.122497","274858.536054","275626.395737","276376.485396","277143.724579","277910.636663","281780.221747","282547.480717","283314.627459","284081.520993","284832.292366","285600.017251","286366.953451","287134.299296","287893.752095","Mapping"
"Blocked","m150","ball","5","m150done.wav","None","732.855113223","169","281013.134056","287884.635362","288652.122497","289419.241105","275626.395737","276376.485396","277143.724579","277910.636663","281780.221747","282547.480717","283314.627459","284081.520993","284832.292366","285600.017251","286366.953451","287134.299296","288661.687214","Mapping"
"Blocked","m150","ball","5","m150ball.wav","None","729.224248789","169","281013.134056","287884.635362","288652.122497","289419.241105","290186.330342","276376.485396","277143.724579","277910.636663","281780.221747","282547.480717","283314.627459","284081.520993","284832.292366","285600.017251","286366.953451","287134.299296","289428.814169","Mapping"
"Blocked","m150","ball","5","m150romp.wav","space","479.064718354","169","281013.134056","287884.635362","288652.122497","289419.241105","290186.330342","290953.900644","277143.724579","277910.636663","281780.221747","282547.480717","283314.627459","284081.520993","284832.292366","285600.017251","286366.953451","287134.299296","290195.765827","Mapping"
"Blocked","m150","ball","5","m150done.wav","None","720.523346681","169","281013.134056","287884.635362","288652.122497","289419.241105","290186.330342","290953.900644","291704.112732","277910.636663","281780.221747","282547.480717","283314.627459","284081.520993","284832.292366","285600.017251","286366.953451","287134.299296","290963.171033","Mapping"
"Blocked","m150","ball","5","m150priest.wav","None","734.326441772","169","281013.134056","287884.635362","288652.122497","289419.241105","290186.330342","290953.900644","291704.112732","292471.413749","281780.221747","282547.480717","283314.627459","284081.520993","284832.292366","285600.017251","286366.953451","287134.299296","291713.466597","Mapping"
"Blocked","m150","cave","9","m150bluff.wav","None","730.218840763","169","295590.262706","287884.635362","288652.122497","289419.241105","290186.330342","290953.900644","291704.112732","292471.413749","281780.221747","282547.480717","283314.627459","284081.520993","284832.292366","285600.017251","286366.953451","287134.299296","292481.065342","Mapping"
"Blocked","m150","cave","9","m150depth.wav","None","735.148518346","169","295590.262706","287884.635362","288652.122497","289419.241105","290186.330342","290953.900644","291704.112732","292471.413749","296357.656782","282547.480717","283314.627459","284081.520993","284832.292366","285600.017251","286366.953451","287134.299296","295599.377893","Mapping"
"Blocked","m150","cave","9","m150greet.wav","None","730.968263","169","295590.262706","287884.635362","288652.122497","289419.241105","290186.330342","290953.900644","291704.112732","292471.413749","296357.656782","297124.783119","283314.627459","284081.520993","284832.292366","285600.017251","286366.953451","287134.299296","296366.908312","Mapping"
"Blocked","m150","cave","9","m150cave.wav","None","726.852624677","169","295590.262706","287884.635362","288652.122497","289419.241105","290186.330342","290953.900644","291704.112732","292471.413749","296357.656782","297124.783119","297891.944392","284081.520993","284832.292366","285600.017251","286366.953451","287134.299296","297134.40936","Mapping"
"Blocked","m150","cave","9","m150romp.wav","space","413.202135358","169","295590.262706","287884.635362","288652.122497","289419.241105","290186.330342","290953.900644","291704.112732","292471.413749","296357.656782","297124.783119","297891.944392","298642.575094","284832.292366","285600.017251","286366.953451","287134.299296","297901.291145","Mapping"
"Blocked","m150","cave","9","m150bluff.wav","None","735.776437446","169","295590.262706","287884.635362","288652.122497","289419.241105","290186.330342","290953.900644","291704.112732","292471.413749","296357.656782","297124.783119","297891.944392","298642.575094","299409.873328","285600.017251","286366.953451","287134.299296","298651.838372","Mapping"
"Blocked","m150","cave","9","m150park.wav","None","731.490137987","169","295590.262706","287884.635362","288652.122497","289419.241105","290186.330342","290953.900644","291704.112732","292471.413749","296357.656782","297124.783119","297891.944392","298642.575094","299409.873328","300176.940305","286366.953451","287134.299296","299419.523066","Mapping"
"Blocked","m150","cave","9","m150cave.wav","None","728.18451887","169","295590.262706","287884.635362","288652.122497","289419.241105","290186.330342","290953.900644","291704.112732","292471.413749","296357.656782","297124.783119","297891.944392","298642.575094","299409.873328","300176.940305","300944.411982","287134.299296","300186.13031","Mapping"
"Blocked","m150","cave","9","m150priest.wav","space","504.384614527","169","295590.262706","287884.635362","288652.122497","289419.241105","290186.330342","290953.900644","291704.112732","292471.413749","296357.656782","297124.783119","297891.944392","298642.575094","299409.873328","300176.940305","300944.411982","301711.692284","300954.070995","Mapping"
"Blocked","m150","cave","9","m150tile.wav","None","719.451462384","169","295590.262706","302461.851815","288652.122497","289419.241105","290186.330342","290953.900644","291704.112732","292471.413749","296357.656782","297124.783119","297891.944392","298642.575094","299409.873328","300176.940305","300944.411982","301711.692284","301721.732501","Mapping"
"Blocked","m150","cave","9","m150priest.wav","None","733.431091998","169","295590.262706","302461.851815","303229.061627","289419.241105","290186.330342","290953.900644","291704.112732","292471.413749","296357.656782","297124.783119","297891.944392","298642.575094","299409.873328","300176.940305","300944.411982","301711.692284","302471.069646","Mapping"
"Blocked","m150","cave","9","m150cave.wav","None","730.029321276","169","295590.262706","302461.851815","303229.061627","303996.341311","290186.330342","290953.900644","291704.112732","292471.413749","296357.656782","297124.783119","297891.944392","298642.575094","299409.873328","300176.940305","300944.411982","301711.692284","303237.934118","Mapping"
"Blocked","m150","cave","9","m150knife.wav","space","356.615814846","169","295590.262706","302461.851815","303229.061627","303996.341311","304763.643565","290953.900644","291704.112732","292471.413749","296357.656782","297124.783119","297891.944392","298642.575094","299409.873328","300176.940305","300944.411982","301711.692284","304005.733822","Mapping"
"Blocked","m150","cave","9","m150cave.wav","None","721.34233173","169","295590.262706","302461.851815","303229.061627","303996.341311","304763.643565","305514.222635","291704.112732","292471.413749","296357.656782","297124.783119","297891.944392","298642.575094","299409.873328","300176.940305","300944.411982","301711.692284","304773.017834","Mapping"
"Blocked","m150","cave","9","m150jolt.wav","space","598.340636119","169","295590.262706","302461.851815","303229.061627","303996.341311","304763.643565","305514.222635","306281.523961","292471.413749","296357.656782","297124.783119","297891.944392","298642.575094","299409.873328","300176.940305","300944.411982","301711.692284","305523.936371","Mapping"
"Blocked","m150","cave","9","m150done.wav","None","729.139846284","169","295590.262706","302461.851815","303229.061627","303996.341311","304763.643565","305514.222635","306281.523961","307048.606396","296357.656782","297124.783119","297891.944392","298642.575094","299409.873328","300176.940305","300944.411982","301711.692284","306290.980779","Mapping"
"Blocked","m150","done","21","m150jolt.wav","None","725.524440873","169","310150.794932","302461.851815","303229.061627","303996.341311","304763.643565","305514.222635","306281.523961","307048.606396","296357.656782","297124.783119","297891.944392","298642.575094","299409.873328","300176.940305","300944.411982","301711.692284","307057.926562","Mapping"
"Blocked","m150","done","21","m150done.wav","None","736.285636202","169","310150.794932","302461.851815","303229.061627","303996.341311","304763.643565","305514.222635","306281.523961","307048.606396","310917.971972","297124.783119","297891.944392","298642.575094","299409.873328","300176.940305","300944.411982","301711.692284","310159.804384","Mapping"
"Blocked","m150","done","21","m150cad.wav","space","395.217549056","169","310150.794932","302461.851815","303229.061627","303996.341311","304763.643565","305514.222635","306281.523961","307048.606396","310917.971972","311685.365739","297891.944392","298642.575094","299409.873328","300176.940305","300944.411982","301711.692284","310926.862704","Mapping"
"Blocked","m150","done","21","m150ball.wav","None","727.977376431","169","310150.794932","302461.851815","303229.061627","303996.341311","304763.643565","305514.222635","306281.523961","307048.606396","310917.971972","311685.365739","312452.648206","298642.575094","299409.873328","300176.940305","300944.411982","301711.692284","311694.685904","Mapping"
"Blocked","m150","done","21","m150gnash.wav","None","723.954178859","169","310150.794932","302461.851815","303229.061627","303996.341311","304763.643565","305514.222635","306281.523961","307048.606396","310917.971972","311685.365739","312452.648206","313220.292089","299409.873328","300176.940305","300944.411982","301711.692284","312462.179532","Mapping"
"Blocked","m150","done","21","m150priest.wav","None","719.479287509","169","310150.794932","302461.851815","303229.061627","303996.341311","304763.643565","305514.222635","306281.523961","307048.606396","310917.971972","311685.365739","312452.648206","313220.292089","313970.247569","300176.940305","300944.411982","301711.692284","313230.142168","Mapping"
"Blocked","m150","done","21","m150romp.wav","None","733.442221768","169","310150.794932","302461.851815","303229.061627","303996.341311","304763.643565","305514.222635","306281.523961","307048.606396","310917.971972","311685.365739","312452.648206","313220.292089","313970.247569","314737.55817","300944.411982","301711.692284","313979.59556","Mapping"
"Blocked","m150","done","21","m150gnash.wav","None","730.510076974","169","310150.794932","302461.851815","303229.061627","303996.341311","304763.643565","305514.222635","306281.523961","307048.606396","310917.971972","311685.365739","312452.648206","313220.292089","313970.247569","314737.55817","315504.997693","301711.692284","314746.849273","Mapping"
"Blocked","m150","done","21","m150done.wav","None","726.34558985","169","310150.794932","302461.851815","303229.061627","303996.341311","304763.643565","305514.222635","306281.523961","307048.606396","310917.971972","311685.365739","312452.648206","313220.292089","313970.247569","314737.55817","315504.997693","316272.212762","315514.499649","Mapping"
"Blocked","m150","done","21","m150bluff.wav","space","352.7920302","169","310150.794932","317022.485757","303229.061627","303996.341311","304763.643565","305514.222635","306281.523961","307048.606396","310917.971972","311685.365739","312452.648206","313220.292089","313970.247569","314737.55817","315504.997693","316272.212762","316281.122662","Mapping"
"Blocked","m150","done","21","m150done.wav","None","735.268165823","169","310150.794932","317022.485757","317789.856027","303996.341311","304763.643565","305514.222635","306281.523961","307048.606396","310917.971972","311685.365739","312452.648206","313220.292089","313970.247569","314737.55817","315504.997693","316272.212762","317031.377725","Mapping"
"Blocked","m150","done","21","m150bluff.wav","space","450.414160732","169","310150.794932","317022.485757","317789.856027","318557.138494","304763.643565","305514.222635","306281.523961","307048.606396","310917.971972","311685.365739","312452.648206","313220.292089","313970.247569","314737.55817","315504.997693","316272.212762","317799.435584","Mapping"
"Blocked","m150","done","21","m150done.wav","None","726.65321175","169","310150.794932","317022.485757","317789.856027","318557.138494","319324.407975","305514.222635","306281.523961","307048.606396","310917.971972","311685.365739","312452.648206","313220.292089","313970.247569","314737.55817","315504.997693","316272.212762","318566.522347","Mapping"
"Blocked","m150","done","21","m150jaw.wav","space","412.078310736","169","310150.794932","317022.485757","317789.856027","318557.138494","319324.407975","320074.808347","306281.523961","307048.606396","310917.971972","311685.365739","312452.648206","313220.292089","313970.247569","314737.55817","315504.997693","316272.212762","319333.708972","Mapping"
"Blocked","m150","done","21","m150ball.wav","None","734.661269933","169","310150.794932","317022.485757","317789.856027","318557.138494","319324.407975","320074.808347","320842.114619","307048.606396","310917.971972","311685.365739","312452.648206","313220.292089","313970.247569","314737.55817","315504.997693","316272.212762","320084.360697","Mapping"
"Blocked","m150","done","21","m150reek.wav","None","730.760193896","169","310150.794932","317022.485757","317789.856027","318557.138494","319324.407975","320074.808347","320842.114619","321609.283622","310917.971972","311685.365739","312452.648206","313220.292089","313970.247569","314737.55817","315504.997693","316272.212762","320851.760956","Mapping"
"Blocked","m150","tile","13","m150priest.wav","None","728.598802816","169","324728.263975","317022.485757","317789.856027","318557.138494","319324.407975","320074.808347","320842.114619","321609.283622","310917.971972","311685.365739","312452.648206","313220.292089","313970.247569","314737.55817","315504.997693","316272.212762","321618.391698","Mapping"
"Blocked","m150","tile","13","m150tile.wav","None","736.053760629","169","324728.263975","317022.485757","317789.856027","318557.138494","319324.407975","320074.808347","320842.114619","321609.283622","325495.432977","311685.365739","312452.648206","313220.292089","313970.247569","314737.55817","315504.997693","316272.212762","324737.638244","Mapping"
"Blocked","m150","tile","13","m150jaw.wav","space","561.529909726","169","324728.263975","317022.485757","317789.856027","318557.138494","319324.407975","320074.808347","320842.114619","321609.283622","325495.432977","326263.265762","312452.648206","313220.292089","313970.247569","314737.55817","315504.997693","316272.212762","325503.993208","Mapping"
"Blocked","m150","tile","13","m150tile.wav","None","727.606375236","169","324728.263975","317022.485757","317789.856027","318557.138494","319324.407975","320074.808347","320842.114619","321609.283622","325495.432977","326263.265762","327029.808081","313220.292089","313970.247569","314737.55817","315504.997693","316272.212762","326272.248625","Mapping"
"Blocked","m150","tile","13","m150priest.wav","space","666.5726793","169","324728.263975","317022.485757","317789.856027","318557.138494","319324.407975","320074.808347","320842.114619","321609.283622","325495.432977","326263.265762","327029.808081","327797.074162","313970.247569","314737.55817","315504.997693","316272.212762","327038.936563","Mapping"
"Blocked","m150","tile","13","m150tile.wav","None","720.62599007","169","324728.263975","317022.485757","317789.856027","318557.138494","319324.407975","320074.808347","320842.114619","321609.283622","325495.432977","326263.265762","327029.808081","327797.074162","328547.707646","314737.55817","315504.997693","316272.212762","327806.408858","Mapping"
"Blocked","m150","tile","13","m150depth.wav","space","620.437459555","169","324728.263975","317022.485757","317789.856027","318557.138494","319324.407975","320074.808347","320842.114619","321609.283622","325495.432977","326263.265762","327029.808081","327797.074162","328547.707646","329314.745561","315504.997693","316272.212762","328557.022556","Mapping"
"Blocked","m150","tile","13","m150cad.wav","None","729.55134837","169","324728.263975","317022.485757","317789.856027","318557.138494","319324.407975","320074.808347","320842.114619","321609.283622","325495.432977","326263.265762","327029.808081","327797.074162","328547.707646","329314.745561","330081.888284","316272.212762","329323.529321","Mapping"
"Blocked","m150","tile","13","m150dime.wav","None","725.773320533","169","324728.263975","317022.485757","317789.856027","318557.138494","319324.407975","320074.808347","320842.114619","321609.283622","325495.432977","326263.265762","327029.808081","327797.074162","328547.707646","329314.745561","330081.888284","330849.144781","330090.984921","Mapping"
"Blocked","m150","tile","13","m150knife.wav","None","728.492449503","169","324728.263975","331599.623991","317789.856027","318557.138494","319324.407975","320074.808347","320842.114619","321609.283622","325495.432977","326263.265762","327029.808081","327797.074162","328547.707646","329314.745561","330081.888284","330849.144781","330852.813054","Mapping"
"Blocked","m150","tile","13","m150greet.wav","None","736.052833032","169","324728.263975","331599.623991","332367.372991","318557.138494","319324.407975","320074.808347","320842.114619","321609.283622","325495.432977","326263.265762","327029.808081","327797.074162","328547.707646","329314.745561","330081.888284","330849.144781","331609.017119","Mapping"
"Blocked","m150","tile","13","m150tile.wav","None","732.264293358","169","324728.263975","331599.623991","332367.372991","333134.178721","319324.407975","320074.808347","320842.114619","321609.283622","325495.432977","326263.265762","327029.808081","327797.074162","328547.707646","329314.745561","330081.888284","330849.144781","332376.43191","Mapping"
"Blocked","m150","tile","13","m150romp.wav","space","458.17302959","169","324728.263975","331599.623991","332367.372991","333134.178721","333901.570942","320074.808347","320842.114619","321609.283622","325495.432977","326263.265762","327029.808081","327797.074162","328547.707646","329314.745561","330081.888284","330849.144781","333143.131286","Mapping"
"Blocked","m150","tile","13","m150knife.wav","None","724.461832084","169","324728.263975","331599.623991","332367.372991","333134.178721","333901.570942","334668.855264","320842.114619","321609.283622","325495.432977","326263.265762","327029.808081","327797.074162","328547.707646","329314.745561","330081.888284","330849.144781","333911.034561","Mapping"
"Blocked","m150","tile","13","m150reek.wav","None","720.591672231","169","324728.263975","331599.623991","332367.372991","333134.178721","333901.570942","334668.855264","335419.161958","321609.283622","325495.432977","326263.265762","327029.808081","327797.074162","328547.707646","329314.745561","330081.888284","330849.144781","334678.563435","Mapping"
"Blocked","m150","tile","13","m150reek.wav","None","734.649521299","169","324728.263975","331599.623991","332367.372991","333134.178721","333901.570942","334668.855264","335419.161958","336186.524808","325495.432977","326263.265762","327029.808081","327797.074162","328547.707646","329314.745561","330081.888284","330849.144781","335428.161826","Mapping"
"Blocked","m150","cave","8","m150depth.wav","None","730.566963553","169","339305.195994","331599.623991","332367.372991","333134.178721","333901.570942","334668.855264","335419.161958","336186.524808","325495.432977","326263.265762","327029.808081","327797.074162","328547.707646","329314.745561","330081.888284","330849.144781","336195.88331","Mapping"
"Blocked","m150","cave","8","m150depth.wav","None","734.954978805","169","339305.195994","331599.623991","332367.372991","333134.178721","333901.570942","334668.855264","335419.161958","336186.524808","340072.714665","326263.265762","327029.808081","327797.074162","328547.707646","329314.745561","330081.888284","330849.144781","339315.090902","Mapping"
"Blocked","m150","cave","8","m150cave.wav","None","732.89839644","169","339305.195994","331599.623991","332367.372991","333134.178721","333901.570942","334668.855264","335419.161958","336186.524808","340072.714665","340840.079679","327029.808081","327797.074162","328547.707646","329314.745561","330081.888284","330849.144781","340081.734628","Mapping"
"Blocked","m150","cave","8","m150bluff.wav","space","455.409690272","169","339305.195994","331599.623991","332367.372991","333134.178721","333901.570942","334668.855264","335419.161958","336186.524808","340072.714665","340840.079679","341607.272487","327797.074162","328547.707646","329314.745561","330081.888284","330849.144781","340849.640067","Mapping"
"Blocked","m150","cave","8","m150knife.wav","None","724.070116878","169","339305.195994","331599.623991","332367.372991","333134.178721","333901.570942","334668.855264","335419.161958","336186.524808","340072.714665","340840.079679","341607.272487","342374.415828","328547.707646","329314.745561","330081.888284","330849.144781","341616.336043","Mapping"
"Blocked","m150","cave","8","m150cave.wav","None","719.855853822","169","339305.195994","331599.623991","332367.372991","333134.178721","333901.570942","334668.855264","335419.161958","336186.524808","340072.714665","340840.079679","341607.272487","342374.415828","343124.665635","329314.745561","330081.888284","330849.144781","342384.295277","Mapping"
"Blocked","m150","cave","8","m150lash.wav","space","435.460035224","169","339305.195994","331599.623991","332367.372991","333134.178721","333901.570942","334668.855264","335419.161958","336186.524808","340072.714665","340840.079679","341607.272487","342374.415828","343124.665635","343891.956759","330081.888284","330849.144781","343133.430845","Mapping"
"Blocked","m150","cave","8","m150gnash.wav","None","729.573299177","169","339305.195994","331599.623991","332367.372991","333134.178721","333901.570942","334668.855264","335419.161958","336186.524808","340072.714665","340840.079679","341607.272487","342374.415828","343124.665635","343891.956759","344659.485323","330849.144781","343901.069473","Mapping"
"Blocked","m150","cave","8","m150cave.wav","None","725.129324943","169","339305.195994","331599.623991","332367.372991","333134.178721","333901.570942","334668.855264","335419.161958","336186.524808","340072.714665","340840.079679","341607.272487","342374.415828","343124.665635","343891.956759","344659.485323","345426.279923","344669.050967","Mapping"
"Blocked","m150","cave","8","m150gnash.wav","space","397.767872084","169","339305.195994","346176.992554","332367.372991","333134.178721","333901.570942","334668.855264","335419.161958","336186.524808","340072.714665","340840.079679","341607.272487","342374.415828","343124.665635","343891.956759","344659.485323","345426.279923","345435.094908","Mapping"
"Blocked","m150","cave","8","m150jaw.wav","None","739.965348504","169","339305.195994","346176.992554","346943.943284","333134.178721","333901.570942","334668.855264","335419.161958","336186.524808","340072.714665","340840.079679","341607.272487","342374.415828","343124.665635","343891.956759","344659.485323","345426.279923","346180.785422","Mapping"
"Blocked","m150","cave","8","m150ball.wav","None","731.257953215","169","339305.195994","346176.992554","346943.943284","347711.401667","333901.570942","334668.855264","335419.161958","336186.524808","340072.714665","340840.079679","341607.272487","342374.415828","343124.665635","343891.956759","344659.485323","345426.279923","346953.125251","Mapping"
"Blocked","m150","cave","8","m150greet.wav","None","727.493220009","169","339305.195994","346176.992554","346943.943284","347711.401667","348478.629411","334668.855264","335419.161958","336186.524808","340072.714665","340840.079679","341607.272487","342374.415828","343124.665635","343891.956759","344659.485323","345426.279923","347720.512526","Mapping"
"Blocked","m150","cave","8","m150priest.wav","None","723.572047893","169","339305.195994","346176.992554","346943.943284","347711.401667","348478.629411","349246.190438","335419.161958","336186.524808","340072.714665","340840.079679","341607.272487","342374.415828","343124.665635","343891.956759","344659.485323","345426.279923","348488.122092","Mapping"
"Blocked","m150","cave","8","m150cave.wav","None","720.343410969","169","339305.195994","346176.992554","346943.943284","347711.401667","348478.629411","349246.190438","349996.736737","336186.524808","340072.714665","340840.079679","341607.272487","342374.415828","343124.665635","343891.956759","344659.485323","345426.279923","349255.303769","Mapping"
"Blocked","m150","cave","8","m150lash.wav","space","418.905658182","169","339305.195994","346176.992554","346943.943284","347711.401667","348478.629411","349246.190438","349996.736737","350763.73446","340072.714665","340840.079679","341607.272487","342374.415828","343124.665635","343891.956759","344659.485323","345426.279923","350005.771849","Mapping"
"Blocked","m150","done","19","m150cave.wav","None","728.441745974","169","353866.01389","346176.992554","346943.943284","347711.401667","348478.629411","349246.190438","349996.736737","350763.73446","340072.714665","340840.079679","341607.272487","342374.415828","343124.665635","343891.956759","344659.485323","345426.279923","350773.302887","Mapping"
"Blocked","m150","done","19","m150done.wav","None","735.275894869","169","353866.01389","346176.992554","346943.943284","347711.401667","348478.629411","349246.190438","349996.736737","350763.73446","354633.135281","340840.079679","341607.272487","342374.415828","343124.665635","343891.956759","344659.485323","345426.279923","353875.238832","Mapping"
"Blocked","m150","done","19","m150reek.wav","space","358.385798987","169","353866.01389","346176.992554","346943.943284","347711.401667","348478.629411","349246.190438","349996.736737","350763.73446","354633.135281","355400.624271","341607.272487","342374.415828","343124.665635","343891.956759","344659.485323","345426.279923","354642.121545","Mapping"
"Blocked","m150","done","19","m150depth.wav","None","727.120054886","169","353866.01389","346176.992554","346943.943284","347711.401667","348478.629411","349246.190438","349996.736737","350763.73446","354633.135281","355400.624271","356167.750608","342374.415828","343124.665635","343891.956759","344659.485323","345426.279923","355409.625066","Mapping"
"Blocked","m150","done","19","m150cad.wav","None","723.129010759","169","353866.01389","346176.992554","346943.943284","347711.401667","348478.629411","349246.190438","349996.736737","350763.73446","354633.135281","355400.624271","356167.750608","356935.030292","343124.665635","343891.956759","344659.485323","345426.279923","356177.609034","Mapping"
"Blocked","m150","done","19","m150done.wav","None","721.257928759","169","353866.01389","346176.992554","346943.943284","347711.401667","348478.629411","349246.190438","349996.736737","350763.73446","354633.135281","355400.624271","356167.750608","356935.030292","357685.366976","343891.956759","344659.485323","345426.279923","356943.891344","Mapping"
"Blocked","m150","done","19","m150park.wav","space","321.842812002","169","353866.01389","346176.992554","346943.943284","347711.401667","348478.629411","349246.190438","349996.736737","350763.73446","354633.135281","355400.624271","356167.750608","356935.030292","357685.366976","358452.70973","344659.485323","345426.279923","357694.544615","Mapping"
"Blocked","m150","done","19","m150cave.wav","None","729.209100362","169","353866.01389","346176.992554","346943.943284","347711.401667","348478.629411","349246.190438","349996.736737","350763.73446","354633.135281","355400.624271","356167.750608","356935.030292","357685.366976","358452.70973","359219.975811","345426.279923","358461.909629","Mapping"
"Blocked","m150","done","19","m150cling.wav","None","725.372639485","169","353866.01389","346176.992554","346943.943284","347711.401667","348478.629411","349246.190438","349996.736737","350763.73446","354633.135281","355400.624271","356167.750608","356935.030292","357685.366976","358452.70973","359219.975811","359986.969206","359229.53589","Mapping"
"Blocked","m150","done","19","m150ball.wav","None","723.268445116","169","353866.01389","360737.875994","346943.943284","347711.401667","348478.629411","349246.190438","349996.736737","350763.73446","354633.135281","355400.624271","356167.750608","356935.030292","357685.366976","358452.70973","359219.975811","359986.969206","359996.281333","Mapping"
"Blocked","m150","done","19","m150done.wav","None","736.023461912","169","353866.01389","360737.875994","361504.900615","347711.401667","348478.629411","349246.190438","349996.736737","350763.73446","354633.135281","355400.624271","356167.750608","356935.030292","357685.366976","358452.70973","359219.975811","359986.969206","360747.313953","Mapping"
"Blocked","m150","done","19","m150dime.wav","space","398.002529982","169","353866.01389","360737.875994","361504.900615","362272.067453","348478.629411","349246.190438","349996.736737","350763.73446","354633.135281","355400.624271","356167.750608","356935.030292","357685.366976","358452.70973","359219.975811","359986.969206","361514.295599","Mapping"
"Blocked","m150","done","19","m150done.wav","None","728.344667703","169","353866.01389","360737.875994","361504.900615","362272.067453","363039.46864","349246.190438","349996.736737","350763.73446","354633.135281","355400.624271","356167.750608","356935.030292","357685.366976","358452.70973","359219.975811","359986.969206","362281.016926","Mapping"
"Blocked","m150","done","19","m150romp.wav","space","631.351383869","169","353866.01389","360737.875994","361504.900615","362272.067453","363039.46864","363806.511502","349996.736737","350763.73446","354633.135281","355400.624271","356167.750608","356935.030292","357685.366976","358452.70973","359219.975811","359986.969206","363048.860223","Mapping"
"Blocked","m150","done","19","m150park.wav","None","720.830968581","169","353866.01389","360737.875994","361504.900615","362272.067453","363039.46864","363806.511502","364557.201873","350763.73446","354633.135281","355400.624271","356167.750608","356935.030292","357685.366976","358452.70973","359219.975811","359986.969206","363815.82672","Mapping"
"Blocked","m150","done","19","m150lash.wav","None","733.728202526","169","353866.01389","360737.875994","361504.900615","362272.067453","363039.46864","363806.511502","364557.201873","365324.377059","354633.135281","355400.624271","356167.750608","356935.030292","357685.366976","358452.70973","359219.975811","359986.969206","364566.717123","Mapping"
"Blocked","m150","ball","1","m150gnash.wav","None","730.465556961","169","368443.061847","360737.875994","361504.900615","362272.067453","363039.46864","363806.511502","364557.201873","365324.377059","354633.135281","355400.624271","356167.750608","356935.030292","357685.366976","358452.70973","359219.975811","359986.969206","365333.94734","Mapping"
"Blocked","m150","ball","1","m150gnash.wav","None","736.014496535","169","368443.061847","360737.875994","361504.900615","362272.067453","363039.46864","363806.511502","364557.201873","365324.377059","369210.527341","355400.624271","356167.750608","356935.030292","357685.366976","358452.70973","359219.975811","359986.969206","368451.999263","Mapping"
"Blocked","m150","ball","1","m150ball.wav","None","733.465409372","169","368443.061847","360737.875994","361504.900615","362272.067453","363039.46864","363806.511502","364557.201873","365324.377059","369210.527341","369977.974903","356167.750608","356935.030292","357685.366976","358452.70973","359219.975811","359986.969206","369219.537102","Mapping"
"Blocked","m150","ball","1","m150gnash.wav","None","729.531561956","169","368443.061847","360737.875994","361504.900615","362272.067453","363039.46864","363806.511502","364557.201873","365324.377059","369210.527341","369977.974903","370744.997669","356935.030292","357685.366976","358452.70973","359219.975811","359986.969206","369987.25735","Mapping"
"Blocked","m150","ball","1","m150jolt.wav","space","13.7653760612","169","368443.061847","360737.875994","361504.900615","362272.067453","363039.46864","363806.511502","364557.201873","365324.377059","369210.527341","369977.974903","370744.997669","371512.045787","357685.366976","358452.70973","359219.975811","359986.969206","370754.175617","Mapping"
"Blocked","m150","ball","1","m150ball.wav","None","721.74393991","169","368443.061847","360737.875994","361504.900615","362272.067453","363039.46864","363806.511502","364557.201873","365324.377059","369210.527341","369977.974903","370744.997669","371512.045787","372262.44554","358452.70973","359219.975811","359986.969206","371521.161901","Mapping"
"Blocked","m150","ball","1","m150romp.wav","space","552.322281059","169","368443.061847","360737.875994","361504.900615","362272.067453","363039.46864","363806.511502","364557.201873","365324.377059","369210.527341","369977.974903","370744.997669","371512.045787","372262.44554","373030.016151","359219.975811","359986.969206","372271.528574","Mapping"
"Blocked","m150","ball","1","m150depth.wav","None","730.059310794","169","368443.061847","360737.875994","361504.900615","362272.067453","363039.46864","363806.511502","364557.201873","365324.377059","369210.527341","369977.974903","370744.997669","371512.045787","372262.44554","373030.016151","373797.044173","359986.969206","373039.865302","Mapping"
"Blocked","m150","ball","1","m150ball.wav","None","727.412836161","169","368443.061847","360737.875994","361504.900615","362272.067453","363039.46864","363806.511502","364557.201873","365324.377059","369210.527341","369977.974903","370744.997669","371512.045787","372262.44554","373030.016151","373797.044173","374564.325712","373806.392472","Mapping"
"Blocked","m150","ball","1","m150bluff.wav","space","490.25503872","169","368443.061847","375314.553259","361504.900615","362272.067453","363039.46864","363806.511502","364557.201873","365324.377059","369210.527341","369977.974903","370744.997669","371512.045787","372262.44554","373030.016151","373797.044173","374564.325712","374573.535195","Mapping"
"Blocked","m150","ball","1","m150jaw.wav","None","736.668385565","169","368443.061847","375314.553259","376082.16468","362272.067453","363039.46864","363806.511502","364557.201873","365324.377059","369210.527341","369977.974903","370744.997669","371512.045787","372262.44554","373030.016151","373797.044173","374564.325712","375323.468106","Mapping"
"Blocked","m150","ball","1","m150jaw.wav","None","732.229048386","169","368443.061847","375314.553259","376082.16468","376849.168277","363039.46864","363806.511502","364557.201873","365324.377059","369210.527341","369977.974903","370744.997669","371512.045787","372262.44554","373030.016151","373797.044173","374564.325712","376091.835132","Mapping"
"Blocked","m150","ball","1","m150ball.wav","None","729.410986416","169","368443.061847","375314.553259","376082.16468","376849.168277","377616.422919","363806.511502","364557.201873","365324.377059","369210.527341","369977.974903","370744.997669","371512.045787","372262.44554","373030.016151","373797.044173","374564.325712","376858.406513","Mapping"
"Blocked","m150","ball","1","m150cave.wav","space","478.175861761","169","368443.061847","375314.553259","376082.16468","376849.168277","377616.422919","378383.746196","364557.201873","365324.377059","369210.527341","369977.974903","370744.997669","371512.045787","372262.44554","373030.016151","373797.044173","374564.325712","377625.512445","Mapping"
"Blocked","m150","ball","1","m150knife.wav","None","720.561373979","169","368443.061847","375314.553259","376082.16468","376849.168277","377616.422919","378383.746196","379150.563984","365324.377059","369210.527341","369977.974903","370744.997669","371512.045787","372262.44554","373030.016151","373797.044173","374564.325712","378393.299473","Mapping"
"Blocked","m150","ball","1","m150cave.wav","None","722.511603031","169","368443.061847","375314.553259","376082.16468","376849.168277","377616.422919","378383.746196","379150.563984","379901.416049","369210.527341","369977.974903","370744.997669","371512.045787","372262.44554","373030.016151","373797.044173","374564.325712","379159.346197","Mapping"
"Blocked","m150","ball","2","m150gnash.wav","None","735.439753626","169","383020.398566","375314.553259","376082.16468","376849.168277","377616.422919","378383.746196","379150.563984","379901.416049","369210.527341","369977.974903","370744.997669","371512.045787","372262.44554","373030.016151","373797.044173","374564.325712","379910.299979","Mapping"
"Blocked","m150","ball","2","m150jolt.wav","None","736.213600263","169","383020.398566","375314.553259","376082.16468","376849.168277","377616.422919","378383.746196","379150.563984","379901.416049","383787.780894","369977.974903","370744.997669","371512.045787","372262.44554","373030.016151","373797.044173","374564.325712","383029.28126","Mapping"
"Blocked","m150","ball","2","m150lash.wav","None","732.395689934","169","383020.398566","375314.553259","376082.16468","376849.168277","377616.422919","378383.746196","379150.563984","379901.416049","383787.780894","384554.915579","370744.997669","371512.045787","372262.44554","373030.016151","373797.044173","374564.325712","383797.061486","Mapping"
"Blocked","m150","ball","2","m150park.wav","None","729.875355959","169","383020.398566","375314.553259","376082.16468","376849.168277","377616.422919","378383.746196","379150.563984","379901.416049","383787.780894","384554.915579","385322.318621","371512.045787","372262.44554","373030.016151","373797.044173","374564.325712","384564.246256","Mapping"
"Blocked","m150","ball","2","m150priest.wav","None","726.214193739","169","383020.398566","375314.553259","376082.16468","376849.168277","377616.422919","378383.746196","379150.563984","379901.416049","383787.780894","384554.915579","385322.318621","386089.610672","372262.44554","373030.016151","373797.044173","374564.325712","385331.729063","Mapping"
"Blocked","m150","ball","2","m150ball.wav","None","722.808094695","169","383020.398566","375314.553259","376082.16468","376849.168277","377616.422919","378383.746196","379150.563984","379901.416049","383787.780894","384554.915579","385322.318621","386089.610672","386840.405232","373030.016151","373797.044173","374564.325712","386099.138907","Mapping"
"Blocked","m150","ball","2","m150depth.wav","space","365.195833147","169","383020.398566","375314.553259","376082.16468","376849.168277","377616.422919","378383.746196","379150.563984","379901.416049","383787.780894","384554.915579","385322.318621","386089.610672","386840.405232","387607.050505","373797.044173","374564.325712","386850.13288","Mapping"
"Blocked","m150","ball","2","m150ball.wav","None","732.066735625","169","383020.398566","375314.553259","376082.16468","376849.168277","377616.422919","378383.746196","379150.563984","379901.416049","383787.780894","384554.915579","385322.318621","386089.610672","386840.405232","387607.050505","388374.335445","374564.325712","387616.162909","Mapping"
"Blocked","m150","ball","2","m150bluff.wav","space","479.867317714","169","383020.398566","375314.553259","376082.16468","376849.168277","377616.422919","378383.746196","379150.563984","379901.416049","383787.780894","384554.915579","385322.318621","386089.610672","386840.405232","387607.050505","388374.335445","389141.550822","388383.409821","Mapping"
"Blocked","m150","ball","2","m150ball.wav","None","724.275404122","169","383020.398566","389909.524587","376082.16468","376849.168277","377616.422919","378383.746196","379150.563984","379901.416049","383787.780894","384554.915579","385322.318621","386089.610672","386840.405232","387607.050505","388374.335445","389141.550822","389150.772053","Mapping"
"Blocked","m150","ball","2","m150park.wav","space","455.781309865","169","383020.398566","389909.524587","390659.30446","376849.168277","377616.422919","378383.746196","379150.563984","379901.416049","383787.780894","384554.915579","385322.318621","386089.610672","386840.405232","387607.050505","388374.335445","389141.550822","389919.445156","Mapping"
"Blocked","m150","ball","2","m150priest.wav","None","732.942916453","169","383020.398566","389909.524587","390659.30446","391426.731926","377616.422919","378383.746196","379150.563984","379901.416049","383787.780894","384554.915579","385322.318621","386089.610672","386840.405232","387607.050505","388374.335445","389141.550822","390668.43696","Mapping"
