"Condition","Talker","Target","Trial","current_stimulus","response_response","response_time_response","subject_nr","time_Audio1","time_Audio10","time_Audio11","time_Audio12","time_Audio13","time_Audio14","time_Audio15","time_Audio16","time_Audio2","time_Audio3","time_Audio4","time_Audio5","time_Audio6","time_Audio7","time_Audio8","time_Audio9","time_response","title"
"Blocked","m150","ball","2","m150gnash.wav","NA","NA","105","3083946.53932","NA","NA","NA","NA","NA","NA","NA","NA","NA","NA","NA","NA","NA","NA","NA","NA","Mapping"
"Blocked","m150","ball","2","m150ball.wav","space","0.0383376609534","105","3083946.53932","NA","NA","NA","NA","NA","NA","NA","3084713.20136","NA","NA","NA","NA","NA","NA","NA","3083960.64194","Mapping"
"Blocked","m150","ball","2","m150tile.wav","None","723.416128894","105","3083946.53932","NA","NA","NA","NA","NA","NA","NA","3084713.20136","3085479.48188","NA","NA","NA","NA","NA","NA","3084722.54766","Mapping"
"Blocked","m150","ball","2","m150ball.wav","space","108.316048048","105","3083946.53932","NA","NA","NA","NA","NA","NA","NA","3084713.20136","3085479.48188","3086245.85206","NA","NA","NA","NA","NA","3085490.20926","Mapping"
"Blocked","m150","ball","2","m150gnash.wav","None","720.715191681","105","3083946.53932","NA","NA","NA","NA","NA","NA","NA","3084713.20136","3085479.48188","3086245.85206","3086996.35547","NA","NA","NA","NA","3086255.2299","Mapping"
"Blocked","m150","ball","2","m150jolt.wav","space","648.423386738","105","3083946.53932","NA","NA","NA","NA","NA","NA","NA","3084713.20136","3085479.48188","3086245.85206","3086996.35547","3087762.98813","NA","NA","NA","3087006.05856","Mapping"
"Blocked","m150","ball","2","m150depth.wav","None","733.553918079","105","3083946.53932","NA","NA","NA","NA","NA","NA","NA","3084713.20136","3085479.48188","3086245.85206","3086996.35547","3087762.98813","3088529.09768","NA","NA","3087772.73327","Mapping"
"Blocked","m150","ball","2","m150cad.wav","None","733.531966805","105","3083946.53932","NA","NA","NA","NA","NA","NA","NA","3084713.20136","3085479.48188","3086245.85206","3086996.35547","3087762.98813","3088529.09768","3089295.85278","NA","3088539.3848","Mapping"
"Blocked","m150","ball","2","m150jaw.wav","None","734.631386818","105","3083946.53932","NA","NA","NA","NA","NA","NA","NA","3084713.20136","3085479.48188","3086245.85206","3086996.35547","3087762.98813","3088529.09768","3089295.85278","3090079.31622","3089305.1725","Mapping"
"Blocked","m150","ball","2","m150ball.wav","None","721.89963446","105","3083946.53932","3090829.29806","NA","NA","NA","NA","NA","NA","3084713.20136","3085479.48188","3086245.85206","3086996.35547","3087762.98813","3088529.09768","3089295.85278","3090079.31622","3090088.40468","Mapping"
"Blocked","m150","ball","2","m150dime.wav","space","367.750081699","105","3083946.53932","3090829.29806","3091595.93784","NA","NA","NA","NA","NA","3084713.20136","3085479.48188","3086245.85206","3086996.35547","3087762.98813","3088529.09768","3089295.85278","3090079.31622","3090838.62674","Mapping"
"Blocked","m150","ball","2","m150depth.wav","None","734.777316451","105","3083946.53932","3090829.29806","3091595.93784","3092362.90905","NA","NA","NA","NA","3084713.20136","3085479.48188","3086245.85206","3086996.35547","3087762.98813","3088529.09768","3089295.85278","3090079.31622","3091605.68638","Mapping"
"Blocked","m150","ball","2","m150cave.wav","None","730.673042126","105","3083946.53932","3090829.29806","3091595.93784","3092362.90905","3093129.37414","NA","NA","NA","3084713.20136","3085479.48188","3086245.85206","3086996.35547","3087762.98813","3088529.09768","3089295.85278","3090079.31622","3092372.94666","Mapping"
"Blocked","m150","ball","2","m150ball.wav","None","732.004032936","105","3083946.53932","3090829.29806","3091595.93784","3092362.90905","3093129.37414","3093895.80647","NA","NA","3084713.20136","3085479.48188","3086245.85206","3086996.35547","3087762.98813","3088529.09768","3089295.85278","3090079.31622","3093138.80114","Mapping"
"Blocked","m150","ball","2","m150greet.wav","space","381.342262961","105","3083946.53932","3090829.29806","3091595.93784","3092362.90905","3093129.37414","3093895.80647","3094663.34254","NA","3084713.20136","3085479.48188","3086245.85206","3086996.35547","3087762.98813","3088529.09768","3089295.85278","3090079.31622","3093905.02663","Mapping"
"Blocked","m150","ball","2","m150jolt.wav","None","727.889246773","105","3083946.53932","3090829.29806","3091595.93784","3092362.90905","3093129.37414","3093895.80647","3094663.34254","3095429.13518","3084713.20136","3085479.48188","3086245.85206","3086996.35547","3087762.98813","3088529.09768","3089295.85278","3090079.31622","3094672.91794","Mapping"
"Blocked","m150","done","21","m150tile.wav","None","725.924450904","105","3098596.53052","3090829.29806","3091595.93784","3092362.90905","3093129.37414","3093895.80647","3094663.34254","3095429.13518","3084713.20136","3085479.48188","3086245.85206","3086996.35547","3087762.98813","3088529.09768","3089295.85278","3090079.31622","3095437.95466","Mapping"
"Blocked","m150","done","21","m150done.wav","None","718.947030371","105","3098596.53052","3090829.29806","3091595.93784","3092362.90905","3093129.37414","3093895.80647","3094663.34254","3095429.13518","3099363.08466","3085479.48188","3086245.85206","3086996.35547","3087762.98813","3088529.09768","3089295.85278","3090079.31622","3098606.68099","Mapping"
"Blocked","m150","done","21","m150lash.wav","space","425.0837781","105","3098596.53052","3090829.29806","3091595.93784","3092362.90905","3093129.37414","3093895.80647","3094663.34254","3095429.13518","3099363.08466","3100129.51451","3086245.85206","3086996.35547","3087762.98813","3088529.09768","3089295.85278","3090079.31622","3099373.1637","Mapping"
"Blocked","m150","done","21","m150knife.wav","None","719.722745707","105","3098596.53052","3090829.29806","3091595.93784","3092362.90905","3093129.37414","3093895.80647","3094663.34254","3095429.13518","3099363.08466","3100129.51451","3100896.95443","3086996.35547","3087762.98813","3088529.09768","3089295.85278","3090079.31622","3100138.9817","Mapping"
"Blocked","m150","done","21","m150jolt.wav","None","719.138099346","105","3098596.53052","3090829.29806","3091595.93784","3092362.90905","3093129.37414","3093895.80647","3094663.34254","3095429.13518","3099363.08466","3100129.51451","3100896.95443","3101645.56044","3087762.98813","3088529.09768","3089295.85278","3090079.31622","3100906.76542","Mapping"
"Blocked","m150","done","21","m150greet.wav","None","735.012597172","105","3098596.53052","3090829.29806","3091595.93784","3092362.90905","3093129.37414","3093895.80647","3094663.34254","3095429.13518","3099363.08466","3100129.51451","3100896.95443","3101645.56044","3102412.30163","3088529.09768","3089295.85278","3090079.31622","3101654.5005","Mapping"
"Blocked","m150","done","21","m150cad.wav","None","731.624677544","105","3098596.53052","3090829.29806","3091595.93784","3092362.90905","3093129.37414","3093895.80647","3094663.34254","3095429.13518","3099363.08466","3100129.51451","3100896.95443","3101645.56044","3102412.30163","3103179.45062","3089295.85278","3090079.31622","3102421.22839","Mapping"
"Blocked","m150","done","21","m150done.wav","None","727.223287802","105","3098596.53052","3090829.29806","3091595.93784","3092362.90905","3093129.37414","3093895.80647","3094663.34254","3095429.13518","3099363.08466","3100129.51451","3100896.95443","3101645.56044","3102412.30163","3103179.45062","3103946.37576","3090079.31622","3103188.78703","Mapping"
"Blocked","m150","done","21","m150cave.wav","space","434.105142951","105","3098596.53052","3090829.29806","3091595.93784","3092362.90905","3093129.37414","3093895.80647","3094663.34254","3095429.13518","3099363.08466","3100129.51451","3100896.95443","3101645.56044","3102412.30163","3103179.45062","3103946.37576","3104712.9231","3103956.02382","Mapping"
"Blocked","m150","done","21","m150done.wav","None","725.155846449","105","3098596.53052","3105462.54568","3091595.93784","3092362.90905","3093129.37414","3093895.80647","3094663.34254","3095429.13518","3099363.08466","3100129.51451","3100896.95443","3101645.56044","3102412.30163","3103179.45062","3103946.37576","3104712.9231","3104717.66829","Mapping"
"Blocked","m150","done","21","m150depth.wav","space","414.031454828","105","3098596.53052","3105462.54568","3106228.83794","3092362.90905","3093129.37414","3093895.80647","3094663.34254","3095429.13518","3099363.08466","3100129.51451","3100896.95443","3101645.56044","3102412.30163","3103179.45062","3103946.37576","3104712.9231","3105472.12541","Mapping"
"Blocked","m150","done","21","m150romp.wav","None","731.480293442","105","3098596.53052","3105462.54568","3106228.83794","3106996.04258","3093129.37414","3093895.80647","3094663.34254","3095429.13518","3099363.08466","3100129.51451","3100896.95443","3101645.56044","3102412.30163","3103179.45062","3103946.37576","3104712.9231","3106237.82839","Mapping"
"Blocked","m150","done","21","m150ball.wav","None","730.750026414","105","3098596.53052","3105462.54568","3106228.83794","3106996.04258","3107762.20716","3093895.80647","3094663.34254","3095429.13518","3099363.08466","3100129.51451","3100896.95443","3101645.56044","3102412.30163","3103179.45062","3103946.37576","3104712.9231","3107005.38147","Mapping"
"Blocked","m150","done","21","m150jaw.wav","None","685.532209231","105","3098596.53052","3105462.54568","3106228.83794","3106996.04258","3107762.20716","3108528.76594","3094663.34254","3095429.13518","3099363.08466","3100129.51451","3100896.95443","3101645.56044","3102412.30163","3103179.45062","3103946.37576","3104712.9231","3107813.99027","Mapping"
"Blocked","m150","done","21","m150done.wav","None","716.55712137","105","3098596.53052","3105462.54568","3106228.83794","3106996.04258","3107762.20716","3108528.76594","3109296.15824","3095429.13518","3099363.08466","3100129.51451","3100896.95443","3101645.56044","3102412.30163","3103179.45062","3103946.37576","3104712.9231","3108546.43117","Mapping"
"Blocked","m150","done","21","m150priest.wav","space","437.901480822","105","3098596.53052","3105462.54568","3106228.83794","3106996.04258","3107762.20716","3108528.76594","3109296.15824","3110063.09792","3099363.08466","3100129.51451","3100896.95443","3101645.56044","3102412.30163","3103179.45062","3103946.37576","3104712.9231","3109320.17513","Mapping"
"Blocked","m150","cave","11","m150priest.wav","None","720.127453562","105","3113179.40393","3105462.54568","3106228.83794","3106996.04258","3107762.20716","3108528.76594","3109296.15824","3110063.09792","3099363.08466","3100129.51451","3100896.95443","3101645.56044","3102412.30163","3103179.45062","3103946.37576","3104712.9231","3110072.80843","Mapping"
"Blocked","m150","cave","11","m150cave.wav","None","720.22638889","105","3113179.40393","3105462.54568","3106228.83794","3106996.04258","3107762.20716","3108528.76594","3109296.15824","3110063.09792","3113928.98817","3100129.51451","3100896.95443","3101645.56044","3102412.30163","3103179.45062","3103946.37576","3104712.9231","3113188.82351","Mapping"
"Blocked","m150","cave","11","m150done.wav","space","483.952210518","105","3113179.40393","3105462.54568","3106228.83794","3106996.04258","3107762.20716","3108528.76594","3109296.15824","3110063.09792","3113928.98817","3114695.91301","3100896.95443","3101645.56044","3102412.30163","3103179.45062","3103946.37576","3104712.9231","3113938.01479","Mapping"
"Blocked","m150","cave","11","m150priest.wav","None","730.404679896","105","3113179.40393","3105462.54568","3106228.83794","3106996.04258","3107762.20716","3108528.76594","3109296.15824","3110063.09792","3113928.98817","3114695.91301","3115462.40222","3101645.56044","3102412.30163","3103179.45062","3103946.37576","3104712.9231","3114704.9387","Mapping"
"Blocked","m150","cave","11","m150priest.wav","None","726.921534631","105","3113179.40393","3105462.54568","3106228.83794","3106996.04258","3107762.20716","3108528.76594","3109296.15824","3110063.09792","3113928.98817","3114695.91301","3115462.40222","3116228.90133","3102412.30163","3103179.45062","3103946.37576","3104712.9231","3115471.8453","Mapping"
"Blocked","m150","cave","11","m150cave.wav","None","724.315822823","105","3113179.40393","3105462.54568","3106228.83794","3106996.04258","3107762.20716","3108528.76594","3109296.15824","3110063.09792","3113928.98817","3114695.91301","3115462.40222","3116228.90133","3116996.06639","3103179.45062","3103946.37576","3104712.9231","3116237.77243","Mapping"
"Blocked","m150","cave","11","m150gnash.wav","space","591.74266411","105","3113179.40393","3105462.54568","3106228.83794","3106996.04258","3107762.20716","3108528.76594","3109296.15824","3110063.09792","3113928.98817","3114695.91301","3115462.40222","3116228.90133","3116996.06639","3117745.69268","3103946.37576","3104712.9231","3117006.22984","Mapping"
"Blocked","m150","cave","11","m150cave.wav","None","734.018914634","105","3113179.40393","3105462.54568","3106228.83794","3106996.04258","3107762.20716","3108528.76594","3109296.15824","3110063.09792","3113928.98817","3114695.91301","3115462.40222","3116228.90133","3116996.06639","3117745.69268","3118512.43603","3104712.9231","3117754.77835","Mapping"
"Blocked","m150","cave","11","m150lash.wav","space","643.974384526","105","3113179.40393","3105462.54568","3106228.83794","3106996.04258","3107762.20716","3108528.76594","3109296.15824","3110063.09792","3113928.98817","3114695.91301","3115462.40222","3116228.90133","3116996.06639","3117745.69268","3118512.43603","3119279.15526","3118521.86303","Mapping"
"Blocked","m150","cave","11","m150cave.wav","None","726.166842971","105","3113179.40393","3120046.18677","3106228.83794","3106996.04258","3107762.20716","3108528.76594","3109296.15824","3110063.09792","3113928.98817","3114695.91301","3115462.40222","3116228.90133","3116996.06639","3117745.69268","3118512.43603","3119279.15526","3119288.91215","Mapping"
"Blocked","m150","cave","11","m150priest.wav","space","429.60018036","105","3113179.40393","3120046.18677","3120812.17604","3106996.04258","3107762.20716","3108528.76594","3109296.15824","3110063.09792","3113928.98817","3114695.91301","3115462.40222","3116228.90133","3116996.06639","3117745.69268","3118512.43603","3119279.15526","3120056.26705","Mapping"
"Blocked","m150","cave","11","m150dime.wav","None","720.246176003","105","3113179.40393","3120046.18677","3120812.17604","3121578.89157","3107762.20716","3108528.76594","3109296.15824","3110063.09792","3113928.98817","3114695.91301","3115462.40222","3116228.90133","3116996.06639","3117745.69268","3118512.43603","3119279.15526","3120821.17051","Mapping"
"Blocked","m150","cave","11","m150jaw.wav","None","721.973526757","105","3113179.40393","3120046.18677","3120812.17604","3121578.89157","3122328.76798","3108528.76594","3109296.15824","3110063.09792","3113928.98817","3114695.91301","3115462.40222","3116228.90133","3116996.06639","3117745.69268","3118512.43603","3119279.15526","3121587.77875","Mapping"
"Blocked","m150","cave","11","m150greet.wav","None","735.129464883","105","3113179.40393","3120046.18677","3120812.17604","3121578.89157","3122328.76798","3123095.27852","3109296.15824","3110063.09792","3113928.98817","3114695.91301","3115462.40222","3116228.90133","3116996.06639","3117745.69268","3118512.43603","3119279.15526","3122338.05523","Mapping"
"Blocked","m150","cave","11","m150cling.wav","None","732.376277214","105","3113179.40393","3120046.18677","3120812.17604","3121578.89157","3122328.76798","3123095.27852","3123861.95231","3110063.09792","3113928.98817","3114695.91301","3115462.40222","3116228.90133","3116996.06639","3117745.69268","3118512.43603","3119279.15526","3123104.1552","Mapping"
"Blocked","m150","cave","11","m150reek.wav","None","732.648040634","105","3113179.40393","3120046.18677","3120812.17604","3121578.89157","3122328.76798","3123095.27852","3123861.95231","3124628.47553","3113928.98817","3114695.91301","3115462.40222","3116228.90133","3116996.06639","3117745.69268","3118512.43603","3119279.15526","3123870.75447","Mapping"
"Blocked","m150","tile","17","m150romp.wav","None","732.921349583","105","3127762.36144","3120046.18677","3120812.17604","3121578.89157","3122328.76798","3123095.27852","3123861.95231","3124628.47553","3113928.98817","3114695.91301","3115462.40222","3116228.90133","3116996.06639","3117745.69268","3118512.43603","3119279.15526","3124637.33242","Mapping"
"Blocked","m150","tile","17","m150tile.wav","None","719.312782167","105","3127762.36144","3120046.18677","3120812.17604","3121578.89157","3122328.76798","3123095.27852","3123861.95231","3124628.47553","3128511.82201","3114695.91301","3115462.40222","3116228.90133","3116996.06639","3117745.69268","3118512.43603","3119279.15526","3127772.67298","Mapping"
"Blocked","m150","tile","17","m150priest.wav","space","445.155920694","105","3127762.36144","3120046.18677","3120812.17604","3121578.89157","3122328.76798","3123095.27852","3123861.95231","3124628.47553","3128511.82201","3129278.50415","3115462.40222","3116228.90133","3116996.06639","3117745.69268","3118512.43603","3119279.15526","3128520.55182","Mapping"
"Blocked","m150","tile","17","m150knife.wav","None","731.08517006","105","3127762.36144","3120046.18677","3120812.17604","3121578.89157","3122328.76798","3123095.27852","3123861.95231","3124628.47553","3128511.82201","3129278.50415","3130045.54183","3116228.90133","3116996.06639","3117745.69268","3118512.43603","3119279.15526","3129287.52582","Mapping"
"Blocked","m150","tile","17","m150cave.wav","None","727.568943519","105","3127762.36144","3120046.18677","3120812.17604","3121578.89157","3122328.76798","3123095.27852","3123861.95231","3124628.47553","3128511.82201","3129278.50415","3130045.54183","3130812.44162","3116996.06639","3117745.69268","3118512.43603","3119279.15526","3130054.56814","Mapping"
"Blocked","m150","tile","17","m150tile.wav","None","723.762403009","105","3127762.36144","3120046.18677","3120812.17604","3121578.89157","3122328.76798","3123095.27852","3123861.95231","3124628.47553","3128511.82201","3129278.50415","3130045.54183","3130812.44162","3131579.17168","3117745.69268","3118512.43603","3119279.15526","3130821.99786","Mapping"
"Blocked","m150","tile","17","m150dime.wav","space","400.606226875","105","3127762.36144","3120046.18677","3120812.17604","3121578.89157","3122328.76798","3123095.27852","3123861.95231","3124628.47553","3128511.82201","3129278.50415","3130045.54183","3130812.44162","3131579.17168","3132328.60288","3118512.43603","3119279.15526","3131589.00524","Mapping"
"Blocked","m150","tile","17","m150ball.wav","None","735.18047831","105","3127762.36144","3120046.18677","3120812.17604","3121578.89157","3122328.76798","3123095.27852","3123861.95231","3124628.47553","3128511.82201","3129278.50415","3130045.54183","3130812.44162","3131579.17168","3132328.60288","3133095.09673","3119279.15526","3132337.60198","Mapping"
"Blocked","m150","tile","17","m150tile.wav","None","732.334848028","105","3127762.36144","3120046.18677","3120812.17604","3121578.89157","3122328.76798","3123095.27852","3123861.95231","3124628.47553","3128511.82201","3129278.50415","3130045.54183","3130812.44162","3131579.17168","3132328.60288","3133095.09673","3133862.14956","3133104.04606","Mapping"
"Blocked","m150","tile","17","m150knife.wav","space","470.240379218","105","3127762.36144","3134628.69659","3120812.17604","3121578.89157","3122328.76798","3123095.27852","3123861.95231","3124628.47553","3128511.82201","3129278.50415","3130045.54183","3130812.44162","3131579.17168","3132328.60288","3133095.09673","3133862.14956","3133871.33819","Mapping"
"Blocked","m150","tile","17","m150lash.wav","None","725.538911996","105","3127762.36144","3134628.69659","3135395.48385","3121578.89157","3122328.76798","3123095.27852","3123861.95231","3124628.47553","3128511.82201","3129278.50415","3130045.54183","3130812.44162","3131579.17168","3132328.60288","3133095.09673","3133862.14956","3134637.64685","Mapping"
"Blocked","m150","tile","17","m150tile.wav","None","722.592800623","105","3127762.36144","3134628.69659","3135395.48385","3136144.81271","3122328.76798","3123095.27852","3123861.95231","3124628.47553","3128511.82201","3129278.50415","3130045.54183","3130812.44162","3131579.17168","3132328.60288","3133095.09673","3133862.14956","3135404.32713","Mapping"
"Blocked","m150","tile","17","m150reek.wav","space","443.959111348","105","3127762.36144","3134628.69659","3135395.48385","3136144.81271","3136911.9889","3123095.27852","3123861.95231","3124628.47553","3128511.82201","3129278.50415","3130045.54183","3130812.44162","3131579.17168","3132328.60288","3133095.09673","3133862.14956","3136153.59323","Mapping"
"Blocked","m150","tile","17","m150depth.wav","None","732.478613732","105","3127762.36144","3134628.69659","3135395.48385","3136144.81271","3136911.9889","3137678.60209","3123861.95231","3124628.47553","3128511.82201","3129278.50415","3130045.54183","3130812.44162","3131579.17168","3132328.60288","3133095.09673","3133862.14956","3136921.0888","Mapping"
"Blocked","m150","tile","17","m150greet.wav","None","729.407596169","105","3127762.36144","3134628.69659","3135395.48385","3136144.81271","3136911.9889","3137678.60209","3138445.00257","3124628.47553","3128511.82201","3129278.50415","3130045.54183","3130812.44162","3131579.17168","3132328.60288","3133095.09673","3133862.14956","3137687.62902","Mapping"
"Blocked","m150","tile","17","m150jolt.wav","None","726.981823333","105","3127762.36144","3134628.69659","3135395.48385","3136144.81271","3136911.9889","3137678.60209","3138445.00257","3139211.76602","3128511.82201","3129278.50415","3130045.54183","3130812.44162","3131579.17168","3132328.60288","3133095.09673","3133862.14956","3138453.89656","Mapping"
"Blocked","m150","ball","6","m150gnash.wav","None","724.326334894","105","3142328.27423","3134628.69659","3135395.48385","3136144.81271","3136911.9889","3137678.60209","3138445.00257","3139211.76602","3128511.82201","3129278.50415","3130045.54183","3130812.44162","3131579.17168","3132328.60288","3133095.09673","3133862.14956","3139220.69927","Mapping"
"Blocked","m150","ball","6","m150tile.wav","None","721.366310492","105","3142328.27423","3134628.69659","3135395.48385","3136144.81271","3136911.9889","3137678.60209","3138445.00257","3139211.76602","3143078.40787","3129278.50415","3130045.54183","3130812.44162","3131579.17168","3132328.60288","3133095.09673","3133862.14956","3142337.16327","Mapping"
"Blocked","m150","ball","6","m150jolt.wav","None","734.637260903","105","3142328.27423","3134628.69659","3135395.48385","3136144.81271","3136911.9889","3137678.60209","3138445.00257","3139211.76602","3143078.40787","3143845.41711","3130045.54183","3130812.44162","3131579.17168","3132328.60288","3133095.09673","3133862.14956","3143087.4147","Mapping"
"Blocked","m150","ball","6","m150romp.wav","None","730.513199698","105","3142328.27423","3134628.69659","3135395.48385","3136144.81271","3136911.9889","3137678.60209","3138445.00257","3139211.76602","3143078.40787","3143845.41711","3144611.82934","3130812.44162","3131579.17168","3132328.60288","3133095.09673","3133862.14956","3143855.02312","Mapping"
"Blocked","m150","ball","6","m150greet.wav","None","728.217588738","105","3142328.27423","3134628.69659","3135395.48385","3136144.81271","3136911.9889","3137678.60209","3138445.00257","3139211.76602","3143078.40787","3143845.41711","3144611.82934","3145378.79097","3131579.17168","3132328.60288","3133095.09673","3133862.14956","3144620.89739","Mapping"
"Blocked","m150","ball","6","m150gnash.wav","None","725.034650415","105","3142328.27423","3134628.69659","3135395.48385","3136144.81271","3136911.9889","3137678.60209","3138445.00257","3139211.76602","3143078.40787","3143845.41711","3144611.82934","3145378.79097","3146145.05294","3132328.60288","3133095.09673","3133862.14956","3145387.76966","Mapping"
"Blocked","m150","ball","6","m150ball.wav","None","722.509324085","105","3142328.27423","3134628.69659","3135395.48385","3136144.81271","3136911.9889","3137678.60209","3138445.00257","3139211.76602","3143078.40787","3143845.41711","3144611.82934","3145378.79097","3146145.05294","3146894.54751","3133095.09673","3133862.14956","3146153.97104","Mapping"
"Blocked","m150","ball","6","m150romp.wav","space","421.993282856","105","3142328.27423","3134628.69659","3135395.48385","3136144.81271","3136911.9889","3137678.60209","3138445.00257","3139211.76602","3143078.40787","3143845.41711","3144611.82934","3145378.79097","3146145.05294","3146894.54751","3147661.7673","3133862.14956","3146903.37441","Mapping"
"Blocked","m150","ball","6","m150ball.wav","None","732.533955714","105","3142328.27423","3134628.69659","3135395.48385","3136144.81271","3136911.9889","3137678.60209","3138445.00257","3139211.76602","3143078.40787","3143845.41711","3144611.82934","3145378.79097","3146145.05294","3146894.54751","3147661.7673","3148428.41945","3147670.76362","Mapping"
"Blocked","m150","ball","6","m150knife.wav","space","391.996062361","105","3142328.27423","3149195.13776","3135395.48385","3136144.81271","3136911.9889","3137678.60209","3138445.00257","3139211.76602","3143078.40787","3143845.41711","3144611.82934","3145378.79097","3146145.05294","3146894.54751","3147661.7673","3148428.41945","3148437.35672","Mapping"
"Blocked","m150","ball","6","m150ball.wav","None","725.618060213","105","3142328.27423","3149195.13776","3149962.14483","3136144.81271","3136911.9889","3137678.60209","3138445.00257","3139211.76602","3143078.40787","3143845.41711","3144611.82934","3145378.79097","3146145.05294","3146894.54751","3147661.7673","3148428.41945","3149204.24198","Mapping"
"Blocked","m150","ball","6","m150gnash.wav","space","441.601665691","105","3142328.27423","3149195.13776","3149962.14483","3150711.20348","3136911.9889","3137678.60209","3138445.00257","3139211.76602","3143078.40787","3143845.41711","3144611.82934","3145378.79097","3146145.05294","3146894.54751","3147661.7673","3148428.41945","3149971.70663","Mapping"
"Blocked","m150","ball","6","m150cave.wav","None","736.264130333","105","3142328.27423","3149195.13776","3149962.14483","3150711.20348","3151478.33577","3137678.60209","3138445.00257","3139211.76602","3143078.40787","3143845.41711","3144611.82934","3145378.79097","3146145.05294","3146894.54751","3147661.7673","3148428.41945","3150720.12714","Mapping"
"Blocked","m150","ball","6","m150greet.wav","None","732.640311355","105","3142328.27423","3149195.13776","3149962.14483","3150711.20348","3151478.33577","3152244.74923","3138445.00257","3139211.76602","3143078.40787","3143845.41711","3144611.82934","3145378.79097","3146145.05294","3146894.54751","3147661.7673","3148428.41945","3151487.37847","Mapping"
"Blocked","m150","ball","6","m150ball.wav","None","729.899181519","105","3142328.27423","3149195.13776","3149962.14483","3150711.20348","3151478.33577","3152244.74923","3153011.7356","3139211.76602","3143078.40787","3143845.41711","3144611.82934","3145378.79097","3146145.05294","3146894.54751","3147661.7673","3148428.41945","3152253.70969","Mapping"
"Blocked","m150","ball","6","m150knife.wav","space","376.003769459","105","3142328.27423","3149195.13776","3149962.14483","3150711.20348","3151478.33577","3152244.74923","3153011.7356","3153778.1469","3143078.40787","3143845.41711","3144611.82934","3145378.79097","3146145.05294","3146894.54751","3147661.7673","3148428.41945","3153021.14683","Mapping"
"Blocked","m150","done","19","m150cling.wav","None","723.532687174","105","3156895.30994","3149195.13776","3149962.14483","3150711.20348","3151478.33577","3152244.74923","3153011.7356","3153778.1469","3143078.40787","3143845.41711","3144611.82934","3145378.79097","3146145.05294","3146894.54751","3147661.7673","3148428.41945","3153786.95555","Mapping"
"Blocked","m150","done","19","m150done.wav","None","720.321614295","105","3156895.30994","3149195.13776","3149962.14483","3150711.20348","3151478.33577","3152244.74923","3153011.7356","3153778.1469","3157644.91767","3143845.41711","3144611.82934","3145378.79097","3146145.05294","3146894.54751","3147661.7673","3148428.41945","3156904.86091","Mapping"
"Blocked","m150","done","19","m150cad.wav","space","471.02722479","105","3156895.30994","3149195.13776","3149962.14483","3150711.20348","3151478.33577","3152244.74923","3153011.7356","3153778.1469","3157644.91767","3158411.68143","3144611.82934","3145378.79097","3146145.05294","3146894.54751","3147661.7673","3148428.41945","3157654.11434","Mapping"
"Blocked","m150","done","19","m150done.wav","None","730.742296902","105","3156895.30994","3149195.13776","3149962.14483","3150711.20348","3151478.33577","3152244.74923","3153011.7356","3153778.1469","3157644.91767","3158411.68143","3159177.85436","3145378.79097","3146145.05294","3146894.54751","3147661.7673","3148428.41945","3158421.04134","Mapping"
"Blocked","m150","done","19","m150cave.wav","space","458.674828056","105","3156895.30994","3149195.13776","3149962.14483","3150711.20348","3151478.33577","3152244.74923","3153011.7356","3153778.1469","3157644.91767","3158411.68143","3159177.85436","3159944.81629","3146145.05294","3146894.54751","3147661.7673","3148428.41945","3159186.51615","Mapping"
"Blocked","m150","done","19","m150jaw.wav","None","724.668589653","105","3156895.30994","3149195.13776","3149962.14483","3150711.20348","3151478.33577","3152244.74923","3153011.7356","3153778.1469","3157644.91767","3158411.68143","3159177.85436","3159944.81629","3160711.97672","3146894.54751","3147661.7673","3148428.41945","3159953.74522","Mapping"
"Blocked","m150","done","19","m150cad.wav","None","720.760949422","105","3156895.30994","3149195.13776","3149962.14483","3150711.20348","3151478.33577","3152244.74923","3153011.7356","3153778.1469","3157644.91767","3158411.68143","3159177.85436","3159944.81629","3160711.97672","3161461.14265","3147661.7673","3148428.41945","3160721.29644","Mapping"
"Blocked","m150","done","19","m150ball.wav","None","735.804699128","105","3156895.30994","3149195.13776","3149962.14483","3150711.20348","3151478.33577","3152244.74923","3153011.7356","3153778.1469","3157644.91767","3158411.68143","3159177.85436","3159944.81629","3160711.97672","3161461.14265","3162228.10706","3148428.41945","3161469.93182","Mapping"
"Blocked","m150","done","19","m150jolt.wav","None","732.23313014","105","3156895.30994","3149195.13776","3149962.14483","3150711.20348","3151478.33577","3152244.74923","3153011.7356","3153778.1469","3157644.91767","3158411.68143","3159177.85436","3159944.81629","3160711.97672","3161461.14265","3162228.10706","3162995.00438","3162237.33464","Mapping"
"Blocked","m150","done","19","m150jaw.wav","None","729.279907886","105","3156895.30994","3163761.19029","3149962.14483","3150711.20348","3151478.33577","3152244.74923","3153011.7356","3153778.1469","3157644.91767","3158411.68143","3159177.85436","3159944.81629","3160711.97672","3161461.14265","3162228.10706","3162995.00438","3163004.03409","Mapping"
"Blocked","m150","done","19","m150done.wav","None","727.072720416","105","3156895.30994","3163761.19029","3164528.55446","3150711.20348","3151478.33577","3152244.74923","3153011.7356","3153778.1469","3157644.91767","3158411.68143","3159177.85436","3159944.81629","3160711.97672","3161461.14265","3162228.10706","3162995.00438","3163770.03172","Mapping"
"Blocked","m150","done","19","m150bluff.wav","space","491.08267203","105","3156895.30994","3163761.19029","3164528.55446","3165294.83375","3151478.33577","3152244.74923","3153011.7356","3153778.1469","3157644.91767","3158411.68143","3159177.85436","3159944.81629","3160711.97672","3161461.14265","3162228.10706","3162995.00438","3164537.98332","Mapping"
"Blocked","m150","done","19","m150knife.wav","None","725.469966419","105","3156895.30994","3163761.19029","3164528.55446","3165294.83375","3166061.78146","3152244.74923","3153011.7356","3153778.1469","3157644.91767","3158411.68143","3159177.85436","3159944.81629","3160711.97672","3161461.14265","3162228.10706","3162995.00438","3165303.79482","Mapping"
"Blocked","m150","done","19","m150done.wav","None","721.609011525","105","3156895.30994","3163761.19029","3164528.55446","3165294.83375","3166061.78146","3166811.45134","3153011.7356","3153778.1469","3157644.91767","3158411.68143","3159177.85436","3159944.81629","3160711.97672","3161461.14265","3162228.10706","3162995.00438","3166071.3615","Mapping"
"Blocked","m150","done","19","m150cling.wav","space","528.703176184","105","3156895.30994","3163761.19029","3164528.55446","3165294.83375","3166061.78146","3166811.45134","3167578.07752","3153778.1469","3157644.91767","3158411.68143","3159177.85436","3159944.81629","3160711.97672","3161461.14265","3162228.10706","3162995.00438","3166820.34935","Mapping"
"Blocked","m150","done","19","m150dime.wav","None","733.079028083","105","3156895.30994","3163761.19029","3164528.55446","3165294.83375","3166061.78146","3166811.45134","3167578.07752","3168344.45759","3157644.91767","3158411.68143","3159177.85436","3159944.81629","3160711.97672","3161461.14265","3162228.10706","3162995.00438","3167586.9882","Mapping"
"Blocked","m150","tile","13","m150knife.wav","None","730.471770512","105","3171478.38802","3163761.19029","3164528.55446","3165294.83375","3166061.78146","3166811.45134","3167578.07752","3168344.45759","3157644.91767","3158411.68143","3159177.85436","3159944.81629","3160711.97672","3161461.14265","3162228.10706","3162995.00438","3168353.27552","Mapping"
"Blocked","m150","tile","13","m150tile.wav","None","720.36366188","105","3171478.38802","3163761.19029","3164528.55446","3165294.83375","3166061.78146","3166811.45134","3167578.07752","3168344.45759","3172227.63835","3158411.68143","3159177.85436","3159944.81629","3160711.97672","3161461.14265","3162228.10706","3162995.00438","3171487.88057","Mapping"
"Blocked","m150","tile","13","m150cave.wav","space","632.473759586","105","3171478.38802","3163761.19029","3164528.55446","3165294.83375","3166061.78146","3166811.45134","3167578.07752","3168344.45759","3172227.63835","3172994.78672","3159177.85436","3159944.81629","3160711.97672","3161461.14265","3162228.10706","3162995.00438","3172236.48782","Mapping"
"Blocked","m150","tile","13","m150jaw.wav","None","731.504718075","105","3171478.38802","3163761.19029","3164528.55446","3165294.83375","3166061.78146","3166811.45134","3167578.07752","3168344.45759","3172227.63835","3172994.78672","3173761.30747","3159944.81629","3160711.97672","3161461.14265","3162228.10706","3162995.00438","3173003.81396","Mapping"
"Blocked","m150","tile","13","m150lash.wav","None","728.375267005","105","3171478.38802","3163761.19029","3164528.55446","3165294.83375","3166061.78146","3166811.45134","3167578.07752","3168344.45759","3172227.63835","3172994.78672","3173761.30747","3174527.60623","3160711.97672","3161461.14265","3162228.10706","3162995.00438","3173770.80929","Mapping"
"Blocked","m150","tile","13","m150tile.wav","None","726.340288995","105","3171478.38802","3163761.19029","3164528.55446","3165294.83375","3166061.78146","3166811.45134","3167578.07752","3168344.45759","3172227.63835","3172994.78672","3173761.30747","3174527.60623","3175294.48222","3161461.14265","3162228.10706","3162995.00438","3174536.54566","Mapping"
"Blocked","m150","tile","13","m150reek.wav","space","349.510408705","105","3171478.38802","3163761.19029","3164528.55446","3165294.83375","3166061.78146","3166811.45134","3167578.07752","3168344.45759","3172227.63835","3172994.78672","3173761.30747","3174527.60623","3175294.48222","3176044.95007","3162228.10706","3162995.00438","3175303.36538","Mapping"
"Blocked","m150","tile","13","m150priest.wav","None","736.23012146","105","3171478.38802","3163761.19029","3164528.55446","3165294.83375","3166061.78146","3166811.45134","3167578.07752","3168344.45759","3172227.63835","3172994.78672","3173761.30747","3174527.60623","3175294.48222","3176044.95007","3176810.95667","3162995.00438","3176053.94825","Mapping"
"Blocked","m150","tile","13","m150depth.wav","None","734.26563479","105","3171478.38802","3163761.19029","3164528.55446","3165294.83375","3166061.78146","3166811.45134","3167578.07752","3168344.45759","3172227.63835","3172994.78672","3173761.30747","3174527.60623","3175294.48222","3176044.95007","3176810.95667","3177577.56553","3176819.71461","Mapping"
"Blocked","m150","tile","13","m150knife.wav","None","731.353532523","105","3171478.38802","3178344.75409","3164528.55446","3165294.83375","3166061.78146","3166811.45134","3167578.07752","3168344.45759","3172227.63835","3172994.78672","3173761.30747","3174527.60623","3175294.48222","3176044.95007","3176810.95667","3177577.56553","3177586.44622","Mapping"
"Blocked","m150","tile","13","m150tile.wav","None","727.081686258","105","3171478.38802","3178344.75409","3179111.43375","3165294.83375","3166061.78146","3166811.45134","3167578.07752","3168344.45759","3172227.63835","3172994.78672","3173761.30747","3174527.60623","3175294.48222","3176044.95007","3176810.95667","3177577.56553","3178354.41513","Mapping"
"Blocked","m150","tile","13","m150depth.wav","space","339.968396351","105","3171478.38802","3178344.75409","3179111.43375","3179878.31128","3166061.78146","3166811.45134","3167578.07752","3168344.45759","3172227.63835","3172994.78672","3173761.30747","3174527.60623","3175294.48222","3176044.95007","3176810.95667","3177577.56553","3179120.78871","Mapping"
"Blocked","m150","tile","13","m150gnash.wav","None","720.705298241","105","3171478.38802","3178344.75409","3179111.43375","3179878.31128","3180627.33406","3166811.45134","3167578.07752","3168344.45759","3172227.63835","3172994.78672","3173761.30747","3174527.60623","3175294.48222","3176044.95007","3176810.95667","3177577.56553","3179887.74972","Mapping"
"Blocked","m150","tile","13","m150cad.wav","None","736.068732804","105","3171478.38802","3178344.75409","3179111.43375","3179878.31128","3180627.33406","3181394.65155","3167578.07752","3168344.45759","3172227.63835","3172994.78672","3173761.30747","3174527.60623","3175294.48222","3176044.95007","3176810.95667","3177577.56553","3180636.16529","Mapping"
"Blocked","m150","tile","13","m150tile.wav","None","737.957781181","105","3171478.38802","3178344.75409","3179111.43375","3179878.31128","3180627.33406","3181394.65155","3182160.87302","3168344.45759","3172227.63835","3172994.78672","3173761.30747","3174527.60623","3175294.48222","3176044.95007","3176810.95667","3177577.56553","3181398.15819","Mapping"
"Blocked","m150","tile","13","m150jaw.wav","space","379.173722351","105","3171478.38802","3178344.75409","3179111.43375","3179878.31128","3180627.33406","3181394.65155","3182160.87302","3182927.47724","3172227.63835","3172994.78672","3173761.30747","3174527.60623","3175294.48222","3176044.95007","3176810.95667","3177577.56553","3182169.60902","Mapping"
"Blocked","m150","done","24","m150ball.wav","None","726.941321744","105","3186045.01036","3178344.75409","3179111.43375","3179878.31128","3180627.33406","3181394.65155","3182160.87302","3182927.47724","3172227.63835","3172994.78672","3173761.30747","3174527.60623","3175294.48222","3176044.95007","3176810.95667","3177577.56553","3182936.21015","Mapping"
"Blocked","m150","done","24","m150done.wav","None","720.138274599","105","3186045.01036","3178344.75409","3179111.43375","3179878.31128","3180627.33406","3181394.65155","3182160.87302","3182927.47724","3186794.35345","3172994.78672","3173761.30747","3174527.60623","3175294.48222","3176044.95007","3176810.95667","3177577.56553","3186054.5635","Mapping"
"Blocked","m150","done","24","m150cling.wav","space","401.255181525","105","3186045.01036","3178344.75409","3179111.43375","3179878.31128","3180627.33406","3181394.65155","3182160.87302","3182927.47724","3186794.35345","3187560.91191","3173761.30747","3174527.60623","3175294.48222","3176044.95007","3176810.95667","3177577.56553","3186803.39553","Mapping"
"Blocked","m150","done","24","m150dime.wav","None","731.836460996","105","3186045.01036","3178344.75409","3179111.43375","3179878.31128","3180627.33406","3181394.65155","3182160.87302","3182927.47724","3186794.35345","3187560.91191","3188327.68896","3174527.60623","3175294.48222","3176044.95007","3176810.95667","3177577.56553","3187569.68316","Mapping"
"Blocked","m150","done","24","m150done.wav","None","728.18883555","105","3186045.01036","3178344.75409","3179111.43375","3179878.31128","3180627.33406","3181394.65155","3182160.87302","3182927.47724","3186794.35345","3187560.91191","3188327.68896","3189094.52445","3175294.48222","3176044.95007","3176810.95667","3177577.56553","3188337.01548","Mapping"
"Blocked","m150","done","24","m150cling.wav","space","557.085585082","105","3186045.01036","3178344.75409","3179111.43375","3179878.31128","3180627.33406","3181394.65155","3182160.87302","3182927.47724","3186794.35345","3187560.91191","3188327.68896","3189094.52445","3189861.36055","3176044.95007","3176810.95667","3177577.56553","3189103.52201","Mapping"
"Blocked","m150","done","24","m150done.wav","None","720.666342415","105","3186045.01036","3178344.75409","3179111.43375","3179878.31128","3180627.33406","3181394.65155","3182160.87302","3182927.47724","3186794.35345","3187560.91191","3188327.68896","3189094.52445","3189861.36055","3190610.86812","3176810.95667","3177577.56553","3189871.16444","Mapping"
"Blocked","m150","done","24","m150jolt.wav","space","536.881425418","105","3186045.01036","3178344.75409","3179111.43375","3179878.31128","3180627.33406","3181394.65155","3182160.87302","3182927.47724","3186794.35345","3187560.91191","3188327.68896","3189094.52445","3189861.36055","3190610.86812","3191377.62538","3177577.56553","3190619.69439","Mapping"
"Blocked","m150","done","24","m150cad.wav","None","731.636735145","105","3186045.01036","3178344.75409","3179111.43375","3179878.31128","3180627.33406","3181394.65155","3182160.87302","3182927.47724","3186794.35345","3187560.91191","3188327.68896","3189094.52445","3189861.36055","3190610.86812","3191377.62538","3192144.44788","3191387.08917","Mapping"
"Blocked","m150","done","24","m150romp.wav","None","729.025149252","105","3186045.01036","3192911.03912","3179111.43375","3179878.31128","3180627.33406","3181394.65155","3182160.87302","3182927.47724","3186794.35345","3187560.91191","3188327.68896","3189094.52445","3189861.36055","3190610.86812","3191377.62538","3192144.44788","3192153.5181","Mapping"
"Blocked","m150","done","24","m150knife.wav","None","726.015966386","105","3186045.01036","3192911.03912","3193677.85946","3179878.31128","3180627.33406","3181394.65155","3182160.87302","3182927.47724","3186794.35345","3187560.91191","3188327.68896","3189094.52445","3189861.36055","3190610.86812","3191377.62538","3192144.44788","3192920.53383","Mapping"
"Blocked","m150","done","24","m150knife.wav","None","722.173561808","105","3186045.01036","3192911.03912","3193677.85946","3194444.59539","3180627.33406","3181394.65155","3182160.87302","3182927.47724","3186794.35345","3187560.91191","3188327.68896","3189094.52445","3189861.36055","3190610.86812","3191377.62538","3192144.44788","3193688.00312","Mapping"
"Blocked","m150","done","24","m150park.wav","None","719.832811505","105","3186045.01036","3192911.03912","3193677.85946","3194444.59539","3195210.81562","3181394.65155","3182160.87302","3182927.47724","3186794.35345","3187560.91191","3188327.68896","3189094.52445","3189861.36055","3190610.86812","3191377.62538","3192144.44788","3194454.27715","Mapping"
"Blocked","m150","done","24","m150done.wav","None","723.127361154","105","3186045.01036","3192911.03912","3193677.85946","3194444.59539","3195210.81562","3195961.11714","3182160.87302","3182927.47724","3186794.35345","3187560.91191","3188327.68896","3189094.52445","3189861.36055","3190610.86812","3191377.62538","3192144.44788","3195219.5847","Mapping"
"Blocked","m150","done","24","m150cave.wav","space","434.055056889","105","3186045.01036","3192911.03912","3193677.85946","3194444.59539","3195210.81562","3195961.11714","3196727.54668","3182927.47724","3186794.35345","3187560.91191","3188327.68896","3189094.52445","3189861.36055","3190610.86812","3191377.62538","3192144.44788","3195970.47087","Mapping"
"Blocked","m150","done","24","m150cad.wav","None","732.250753092","105","3186045.01036","3192911.03912","3193677.85946","3194444.59539","3195210.81562","3195961.11714","3196727.54668","3197494.3429","3186794.35345","3187560.91191","3188327.68896","3189094.52445","3189861.36055","3190610.86812","3191377.62538","3192144.44788","3196737.38674","Mapping"
"Blocked","m150","done","20","m150depth.wav","None","730.10478192","105","3200611.1473","3192911.03912","3193677.85946","3194444.59539","3195210.81562","3195961.11714","3196727.54668","3197494.3429","3186794.35345","3187560.91191","3188327.68896","3189094.52445","3189861.36055","3190610.86812","3191377.62538","3192144.44788","3197503.34263","Mapping"
"Blocked","m150","done","20","m150jolt.wav","None","736.087592551","105","3200611.1473","3192911.03912","3193677.85946","3194444.59539","3195210.81562","3195961.11714","3196727.54668","3197494.3429","3201377.43864","3187560.91191","3188327.68896","3189094.52445","3189861.36055","3190610.86812","3191377.62538","3192144.44788","3200620.3248","Mapping"
"Blocked","m150","done","20","m150park.wav","None","733.888443559","105","3200611.1473","3192911.03912","3193677.85946","3194444.59539","3195210.81562","3195961.11714","3196727.54668","3197494.3429","3201377.43864","3202144.24414","3188327.68896","3189094.52445","3189861.36055","3190610.86812","3191377.62538","3192144.44788","3201386.45661","Mapping"
"Blocked","m150","done","20","m150jaw.wav","None","736.038434086","105","3200611.1473","3192911.03912","3193677.85946","3194444.59539","3195210.81562","3195961.11714","3196727.54668","3197494.3429","3201377.43864","3202144.24414","3202910.9677","3189094.52445","3189861.36055","3190610.86812","3191377.62538","3192144.44788","3202148.26432","Mapping"
"Blocked","m150","done","20","m150jolt.wav","None","728.174922755","105","3200611.1473","3192911.03912","3193677.85946","3194444.59539","3195210.81562","3195961.11714","3196727.54668","3197494.3429","3201377.43864","3202144.24414","3202910.9677","3203677.44115","3189861.36055","3190610.86812","3191377.62538","3192144.44788","3202920.10439","Mapping"
"Blocked","m150","done","20","m150jaw.wav","None","725.666909944","105","3200611.1473","3192911.03912","3193677.85946","3194444.59539","3195210.81562","3195961.11714","3196727.54668","3197494.3429","3201377.43864","3202144.24414","3202910.9677","3203677.44115","3204444.46492","3190610.86812","3191377.62538","3192144.44788","3203686.37316","Mapping"
"Blocked","m150","done","20","m150tile.wav","None","721.33415658","105","3200611.1473","3192911.03912","3193677.85946","3194444.59539","3195210.81562","3195961.11714","3196727.54668","3197494.3429","3201377.43864","3202144.24414","3202910.9677","3203677.44115","3204444.46492","3205211.0982","3191377.62538","3192144.44788","3204454.60023","Mapping"
"Blocked","m150","done","20","m150done.wav","None","719.728001626","105","3200611.1473","3192911.03912","3193677.85946","3194444.59539","3195210.81562","3195961.11714","3196727.54668","3197494.3429","3201377.43864","3202144.24414","3202910.9677","3203677.44115","3204444.46492","3205211.0982","3205960.77891","3192144.44788","3205220.73761","Mapping"
"Blocked","m150","done","20","m150ball.wav","space","410.202344647","105","3200611.1473","3192911.03912","3193677.85946","3194444.59539","3195210.81562","3195961.11714","3196727.54668","3197494.3429","3201377.43864","3202144.24414","3202910.9677","3203677.44115","3204444.46492","3205211.0982","3205960.77891","3206727.39952","3205970.12707","Mapping"
"Blocked","m150","done","20","m150done.wav","None","730.756519129","105","3200611.1473","3207494.19976","3193677.85946","3194444.59539","3195210.81562","3195961.11714","3196727.54668","3197494.3429","3201377.43864","3202144.24414","3202910.9677","3203677.44115","3204444.46492","3205211.0982","3205960.77891","3206727.39952","3206736.41995","Mapping"
"Blocked","m150","done","20","m150tile.wav","space","412.899262272","105","3200611.1473","3207494.19976","3208261.59485","3194444.59539","3195210.81562","3195961.11714","3196727.54668","3197494.3429","3201377.43864","3202144.24414","3202910.9677","3203677.44115","3204444.46492","3205211.0982","3205960.77891","3206727.39952","3207503.40632","Mapping"
"Blocked","m150","done","20","m150cling.wav","None","722.760063363","105","3200611.1473","3207494.19976","3208261.59485","3209027.99038","3195210.81562","3195961.11714","3196727.54668","3197494.3429","3201377.43864","3202144.24414","3202910.9677","3203677.44115","3204444.46492","3205211.0982","3205960.77891","3206727.39952","3208271.13346","Mapping"
"Blocked","m150","done","20","m150done.wav","None","720.08447838","105","3200611.1473","3207494.19976","3208261.59485","3209027.99038","3209777.19372","3195961.11714","3196727.54668","3197494.3429","3201377.43864","3202144.24414","3202910.9677","3203677.44115","3204444.46492","3205211.0982","3205960.77891","3206727.39952","3209037.71851","Mapping"
"Blocked","m150","done","20","m150lash.wav","space","434.115964221","105","3200611.1473","3207494.19976","3208261.59485","3209027.99038","3209777.19372","3210544.11361","3196727.54668","3197494.3429","3201377.43864","3202144.24414","3202910.9677","3203677.44115","3204444.46492","3205211.0982","3205960.77891","3206727.39952","3209786.11274","Mapping"
"Blocked","m150","done","20","m150done.wav","None","731.575828046","105","3200611.1473","3207494.19976","3208261.59485","3209027.99038","3209777.19372","3210544.11361","3211310.73452","3197494.3429","3201377.43864","3202144.24414","3202910.9677","3203677.44115","3204444.46492","3205211.0982","3205960.77891","3206727.39952","3210553.11766","Mapping"
"Blocked","m150","done","20","m150dime.wav","space","499.869683525","105","3200611.1473","3207494.19976","3208261.59485","3209027.99038","3209777.19372","3210544.11361","3211310.73452","3212077.2797","3201377.43864","3202144.24414","3202910.9677","3203677.44115","3204444.46492","3205211.0982","3205960.77891","3206727.39952","3211320.32817","Mapping"
"Blocked","m150","tile","15","m150done.wav","None","725.52067088","105","3215194.44057","3207494.19976","3208261.59485","3209027.99038","3209777.19372","3210544.11361","3211310.73452","3212077.2797","3201377.43864","3202144.24414","3202910.9677","3203677.44115","3204444.46492","3205211.0982","3205960.77891","3206727.39952","3212086.25221","Mapping"
"Blocked","m150","tile","15","m150tile.wav","space","527.827906888","105","3215194.44057","3207494.19976","3208261.59485","3209027.99038","3209777.19372","3210544.11361","3211310.73452","3212077.2797","3215943.84796","3202144.24414","3202910.9677","3203677.44115","3204444.46492","3205211.0982","3205960.77891","3206727.39952","3215204.31216","Mapping"
"Blocked","m150","tile","15","m150dime.wav","None","734.480510233","105","3215194.44057","3207494.19976","3208261.59485","3209027.99038","3209777.19372","3210544.11361","3211310.73452","3212077.2797","3215943.84796","3216710.53845","3202910.9677","3203677.44115","3204444.46492","3205211.0982","3205960.77891","3206727.39952","3215952.90148","Mapping"
"Blocked","m150","tile","15","m150greet.wav","None","732.1750056","105","3215194.44057","3207494.19976","3208261.59485","3209027.99038","3209777.19372","3210544.11361","3211310.73452","3212077.2797","3215943.84796","3216710.53845","3217477.1977","3203677.44115","3204444.46492","3205211.0982","3205960.77891","3206727.39952","3216719.44356","Mapping"
"Blocked","m150","tile","15","m150cave.wav","None","728.364755167","105","3215194.44057","3207494.19976","3208261.59485","3209027.99038","3209777.19372","3210544.11361","3211310.73452","3212077.2797","3215943.84796","3216710.53845","3217477.1977","3218244.00969","3204444.46492","3205211.0982","3205960.77891","3206727.39952","3217487.10485","Mapping"
"Blocked","m150","tile","15","m150tile.wav","None","726.213837042","105","3215194.44057","3207494.19976","3208261.59485","3209027.99038","3209777.19372","3210544.11361","3211310.73452","3212077.2797","3215943.84796","3216710.53845","3217477.1977","3218244.00969","3219010.56321","3205211.0982","3205960.77891","3206727.39952","3218253.42278","Mapping"
"Blocked","m150","tile","15","m150jaw.wav","space","408.560016658","105","3215194.44057","3207494.19976","3208261.59485","3209027.99038","3209777.19372","3210544.11361","3211310.73452","3212077.2797","3215943.84796","3216710.53845","3217477.1977","3218244.00969","3219010.56321","3219777.52608","3205960.77891","3206727.39952","3219019.52614","Mapping"
"Blocked","m150","tile","15","m150cave.wav","None","719.819517108","105","3215194.44057","3207494.19976","3208261.59485","3209027.99038","3209777.19372","3210544.11361","3211310.73452","3212077.2797","3215943.84796","3216710.53845","3217477.1977","3218244.00969","3219010.56321","3219777.52608","3220527.0256","3206727.39952","3219786.92711","Mapping"
"Blocked","m150","tile","15","m150tile.wav","None","734.468761599","105","3215194.44057","3207494.19976","3208261.59485","3209027.99038","3209777.19372","3210544.11361","3211310.73452","3212077.2797","3215943.84796","3216710.53845","3217477.1977","3218244.00969","3219010.56321","3219777.52608","3220527.0256","3221293.9458","3220536.26184","Mapping"
"Blocked","m150","tile","15","m150jaw.wav","space","621.133595938","105","3215194.44057","3222060.45418","3208261.59485","3209027.99038","3209777.19372","3210544.11361","3211310.73452","3212077.2797","3215943.84796","3216710.53845","3217477.1977","3218244.00969","3219010.56321","3219777.52608","3220527.0256","3221293.9458","3221302.86668","Mapping"
"Blocked","m150","tile","15","m150gnash.wav","None","728.61240292","105","3215194.44057","3222060.45418","3222827.03089","3209027.99038","3209777.19372","3210544.11361","3211310.73452","3212077.2797","3215943.84796","3216710.53845","3217477.1977","3218244.00969","3219010.56321","3219777.52608","3220527.0256","3221293.9458","3222069.48791","Mapping"
"Blocked","m150","tile","15","m150park.wav","None","726.176118013","105","3215194.44057","3222060.45418","3222827.03089","3223594.22749","3209777.19372","3210544.11361","3211310.73452","3212077.2797","3215943.84796","3216710.53845","3217477.1977","3218244.00969","3219010.56321","3219777.52608","3220527.0256","3221293.9458","3222835.983","Mapping"
"Blocked","m150","tile","15","m150jaw.wav","None","722.320419038","105","3215194.44057","3222060.45418","3222827.03089","3223594.22749","3224361.36937","3210544.11361","3211310.73452","3212077.2797","3215943.84796","3216710.53845","3217477.1977","3218244.00969","3219010.56321","3219777.52608","3220527.0256","3221293.9458","3223604.00911","Mapping"
"Blocked","m150","tile","15","m150tile.wav","None","719.26887962","105","3215194.44057","3222060.45418","3222827.03089","3223594.22749","3224361.36937","3225110.37947","3211310.73452","3212077.2797","3215943.84796","3216710.53845","3217477.1977","3218244.00969","3219010.56321","3219777.52608","3220527.0256","3221293.9458","3224371.20262","Mapping"
"Blocked","m150","tile","15","m150bluff.wav","space","436.610064236","105","3215194.44057","3222060.45418","3222827.03089","3223594.22749","3224361.36937","3225110.37947","3225876.99822","3212077.2797","3215943.84796","3216710.53845","3217477.1977","3218244.00969","3219010.56321","3219777.52608","3220527.0256","3221293.9458","3225119.43299","Mapping"
"Blocked","m150","tile","15","m150dime.wav","None","731.774626533","105","3215194.44057","3222060.45418","3222827.03089","3223594.22749","3224361.36937","3225110.37947","3225876.99822","3226643.88194","3215943.84796","3216710.53845","3217477.1977","3218244.00969","3219010.56321","3219777.52608","3220527.0256","3221293.9458","3225886.02423","Mapping"
"Blocked","m150","done","23","m150tile.wav","None","729.052974842","105","3229777.37613","3222060.45418","3222827.03089","3223594.22749","3224361.36937","3225110.37947","3225876.99822","3226643.88194","3215943.84796","3216710.53845","3217477.1977","3218244.00969","3219010.56321","3219777.52608","3220527.0256","3221293.9458","3226652.86497","Mapping"
"Blocked","m150","done","23","m150gnash.wav","None","720.063763903","105","3229777.37613","3222060.45418","3222827.03089","3223594.22749","3224361.36937","3225110.37947","3225876.99822","3226643.88194","3230526.84412","3216710.53845","3217477.1977","3218244.00969","3219010.56321","3219777.52608","3220527.0256","3221293.9458","3229786.89743","Mapping"
"Blocked","m150","done","23","m150depth.wav","None","735.232110135","105","3229777.37613","3222060.45418","3222827.03089","3223594.22749","3224361.36937","3225110.37947","3225876.99822","3226643.88194","3230526.84412","3231293.73618","3217477.1977","3218244.00969","3219010.56321","3219777.52608","3220527.0256","3221293.9458","3230535.75913","Mapping"
"Blocked","m150","done","23","m150done.wav","None","732.442131266","105","3229777.37613","3222060.45418","3222827.03089","3223594.22749","3224361.36937","3225110.37947","3225876.99822","3226643.88194","3230526.84412","3231293.73618","3232059.96291","3218244.00969","3219010.56321","3219777.52608","3220527.0256","3221293.9458","3231302.73281","Mapping"
"Blocked","m150","done","23","m150park.wav","space","375.024308683","105","3229777.37613","3222060.45418","3222827.03089","3223594.22749","3224361.36937","3225110.37947","3225876.99822","3226643.88194","3230526.84412","3231293.73618","3232059.96291","3232826.83456","3219010.56321","3219777.52608","3220527.0256","3221293.9458","3232068.81639","Mapping"
"Blocked","m150","done","23","m150done.wav","None","726.483745268","105","3229777.37613","3222060.45418","3222827.03089","3223594.22749","3224361.36937","3225110.37947","3225876.99822","3226643.88194","3230526.84412","3231293.73618","3232059.96291","3232826.83456","3233594.07167","3219777.52608","3220527.0256","3221293.9458","3232835.83243","Mapping"
"Blocked","m150","done","23","m150tile.wav","space","472.077795537","105","3229777.37613","3222060.45418","3222827.03089","3223594.22749","3224361.36937","3225110.37947","3225876.99822","3226643.88194","3230526.84412","3231293.73618","3232059.96291","3232826.83456","3233594.07167","3234360.23192","3220527.0256","3221293.9458","3233603.7525","Mapping"
"Blocked","m150","done","23","m150done.wav","None","720.471563516","105","3229777.37613","3222060.45418","3222827.03089","3223594.22749","3224361.36937","3225110.37947","3225876.99822","3226643.88194","3230526.84412","3231293.73618","3232059.96291","3232826.83456","3233594.07167","3234360.23192","3235109.91045","3221293.9458","3234369.11137","Mapping"
"Blocked","m150","done","23","m150lash.wav","space","405.040388694","105","3229777.37613","3222060.45418","3222827.03089","3223594.22749","3224361.36937","3225110.37947","3225876.99822","3226643.88194","3230526.84412","3231293.73618","3232059.96291","3232826.83456","3233594.07167","3234360.23192","3235109.91045","3235876.45439","3235118.75775","Mapping"
"Blocked","m150","done","23","m150jolt.wav","None","731.657449622","105","3229777.37613","3236643.203","3222827.03089","3223594.22749","3224361.36937","3225110.37947","3225876.99822","3226643.88194","3230526.84412","3231293.73618","3232059.96291","3232826.83456","3233594.07167","3234360.23192","3235109.91045","3235876.45439","3235885.26459","Mapping"
"Blocked","m150","done","23","m150done.wav","None","729.156238493","105","3229777.37613","3236643.203","3237410.17947","3223594.22749","3224361.36937","3225110.37947","3225876.99822","3226643.88194","3230526.84412","3231293.73618","3232059.96291","3232826.83456","3233594.07167","3234360.23192","3235109.91045","3235876.45439","3236651.92354","Mapping"
"Blocked","m150","done","23","m150reek.wav","space","576.581119327","105","3229777.37613","3236643.203","3237410.17947","3238176.7033","3224361.36937","3225110.37947","3225876.99822","3226643.88194","3230526.84412","3231293.73618","3232059.96291","3232826.83456","3233594.07167","3234360.23192","3235109.91045","3235876.45439","3237419.18475","Mapping"
"Blocked","m150","done","23","m150knife.wav","None","722.776449518","105","3229777.37613","3236643.203","3237410.17947","3238176.7033","3238943.94164","3225110.37947","3225876.99822","3226643.88194","3230526.84412","3231293.73618","3232059.96291","3232826.83456","3233594.07167","3234360.23192","3235109.91045","3235876.45439","3238185.53824","Mapping"
"Blocked","m150","done","23","m150tile.wav","None","719.026178587","105","3229777.37613","3236643.203","3237410.17947","3238176.7033","3238943.94164","3239693.07851","3225876.99822","3226643.88194","3230526.84412","3231293.73618","3232059.96291","3232826.83456","3233594.07167","3234360.23192","3235109.91045","3235876.45439","3238953.42027","Mapping"
"Blocked","m150","done","23","m150priest.wav","None","734.930357197","105","3229777.37613","3236643.203","3237410.17947","3238176.7033","3238943.94164","3239693.07851","3240460.05127","3226643.88194","3230526.84412","3231293.73618","3232059.96291","3232826.83456","3233594.07167","3234360.23192","3235109.91045","3235876.45439","3239701.77741","Mapping"
"Blocked","m150","done","23","m150cave.wav","None","732.056592125","105","3229777.37613","3236643.203","3237410.17947","3238176.7033","3238943.94164","3239693.07851","3240460.05127","3241226.3964","3230526.84412","3231293.73618","3232059.96291","3232826.83456","3233594.07167","3234360.23192","3235109.91045","3235876.45439","3240468.71121","Mapping"
"Blocked","m150","cave","10","m150greet.wav","None","729.768401477","105","3244360.45607","3236643.203","3237410.17947","3238176.7033","3238943.94164","3239693.07851","3240460.05127","3241226.3964","3230526.84412","3231293.73618","3232059.96291","3232826.83456","3233594.07167","3234360.23192","3235109.91045","3235876.45439","3241235.17754","Mapping"
"Blocked","m150","cave","10","m150bluff.wav","None","719.453146681","105","3244360.45607","3236643.203","3237410.17947","3238176.7033","3238943.94164","3239693.07851","3240460.05127","3241226.3964","3245109.81306","3231293.73618","3232059.96291","3232826.83456","3233594.07167","3234360.23192","3235109.91045","3235876.45439","3244370.19997","Mapping"
"Blocked","m150","cave","10","m150ball.wav","None","735.087417066","105","3244360.45607","3236643.203","3237410.17947","3238176.7033","3238943.94164","3239693.07851","3240460.05127","3241226.3964","3245109.81306","3245876.9435","3232059.96291","3232826.83456","3233594.07167","3234360.23192","3235109.91045","3235876.45439","3245118.6075","Mapping"
"Blocked","m150","cave","10","m150romp.wav","None","731.777408859","105","3244360.45607","3236643.203","3237410.17947","3238176.7033","3238943.94164","3239693.07851","3240460.05127","3241226.3964","3245109.81306","3245876.9435","3246643.52268","3232826.83456","3233594.07167","3234360.23192","3235109.91045","3235876.45439","3245886.37885","Mapping"
"Blocked","m150","cave","10","m150cave.wav","None","729.6994559","105","3244360.45607","3236643.203","3237410.17947","3238176.7033","3238943.94164","3239693.07851","3240460.05127","3241226.3964","3245109.81306","3245876.9435","3246643.52268","3247409.98407","3233594.07167","3234360.23192","3235109.91045","3235876.45439","3246652.54312","Mapping"
"Blocked","m150","cave","10","m150greet.wav","space","485.951633658","105","3244360.45607","3236643.203","3237410.17947","3238176.7033","3238943.94164","3239693.07851","3240460.05127","3241226.3964","3245109.81306","3245876.9435","3246643.52268","3247409.98407","3248176.79698","3234360.23192","3235109.91045","3235876.45439","3247413.62366","Mapping"
"Blocked","m150","cave","10","m150cave.wav","None","723.036773503","105","3244360.45607","3236643.203","3237410.17947","3238176.7033","3238943.94164","3239693.07851","3240460.05127","3241226.3964","3245109.81306","3245876.9435","3246643.52268","3247409.98407","3248176.79698","3248943.45284","3235109.91045","3235876.45439","3248186.48524","Mapping"
"Blocked","m150","cave","10","m150tile.wav","space","618.95361566","105","3244360.45607","3236643.203","3237410.17947","3238176.7033","3238943.94164","3239693.07851","3240460.05127","3241226.3964","3245109.81306","3245876.9435","3246643.52268","3247409.98407","3248176.79698","3248943.45284","3249693.19136","3235876.45439","3248952.57376","Mapping"
"Blocked","m150","cave","10","m150gnash.wav","None","734.481747029","105","3244360.45607","3236643.203","3237410.17947","3238176.7033","3238943.94164","3239693.07851","3240460.05127","3241226.3964","3245109.81306","3245876.9435","3246643.52268","3247409.98407","3248176.79698","3248943.45284","3249693.19136","3250459.97923","3249702.28878","Mapping"
"Blocked","m150","cave","10","m150cave.wav","None","731.473800959","105","3244360.45607","3251226.18957","3237410.17947","3238176.7033","3238943.94164","3239693.07851","3240460.05127","3241226.3964","3245109.81306","3245876.9435","3246643.52268","3247409.98407","3248176.79698","3248943.45284","3249693.19136","3250459.97923","3250469.42076","Mapping"
"Blocked","m150","cave","10","m150lash.wav","space","664.44566939","105","3244360.45607","3251226.18957","3251992.97558","3238176.7033","3238943.94164","3239693.07851","3240460.05127","3241226.3964","3245109.81306","3245876.9435","3246643.52268","3247409.98407","3248176.79698","3248943.45284","3249693.19136","3250459.97923","3251235.06222","Mapping"
"Blocked","m150","cave","10","m150greet.wav","None","726.443862077","105","3244360.45607","3251226.18957","3251992.97558","3252759.77675","3238943.94164","3239693.07851","3240460.05127","3241226.3964","3245109.81306","3245876.9435","3246643.52268","3247409.98407","3248176.79698","3248943.45284","3249693.19136","3250459.97923","3252001.84484","Mapping"
"Blocked","m150","cave","10","m150reek.wav","None","723.78682741","105","3244360.45607","3251226.18957","3251992.97558","3252759.77675","3253527.02869","3239693.07851","3240460.05127","3241226.3964","3245109.81306","3245876.9435","3246643.52268","3247409.98407","3248176.79698","3248943.45284","3249693.19136","3250459.97923","3252768.60674","Mapping"
"Blocked","m150","cave","10","m150dime.wav","None","720.164244995","105","3244360.45607","3251226.18957","3251992.97558","3252759.77675","3253527.02869","3254276.34179","3240460.05127","3241226.3964","3245109.81306","3245876.9435","3246643.52268","3247409.98407","3248176.79698","3248943.45284","3249693.19136","3250459.97923","3253536.4594","Mapping"
"Blocked","m150","cave","10","m150cave.wav","None","735.291471472","105","3244360.45607","3251226.18957","3251992.97558","3252759.77675","3253527.02869","3254276.34179","3255043.22643","3241226.3964","3245109.81306","3245876.9435","3246643.52268","3247409.98407","3248176.79698","3248943.45284","3249693.19136","3250459.97923","3254285.8433","Mapping"
"Blocked","m150","cave","10","m150done.wav","space","527.125156252","105","3244360.45607","3251226.18957","3251992.97558","3252759.77675","3253527.02869","3254276.34179","3255043.22643","3255809.66525","3245109.81306","3245876.9435","3246643.52268","3247409.98407","3248176.79698","3248943.45284","3249693.19136","3250459.97923","3255052.32231","Mapping"
"Blocked","m150","ball","5","m150cling.wav","None","730.330787599","105","3258943.33721","3251226.18957","3251992.97558","3252759.77675","3253527.02869","3254276.34179","3255043.22643","3255809.66525","3245109.81306","3245876.9435","3246643.52268","3247409.98407","3248176.79698","3248943.45284","3249693.19136","3250459.97923","3255818.27356","Mapping"
"Blocked","m150","ball","5","m150ball.wav","None","719.103471842","105","3258943.33721","3251226.18957","3251992.97558","3252759.77675","3253527.02869","3254276.34179","3255043.22643","3255809.66525","3259693.07696","3245876.9435","3246643.52268","3247409.98407","3248176.79698","3248943.45284","3249693.19136","3250459.97923","3258953.43264","Mapping"
"Blocked","m150","ball","5","m150reek.wav","space","629.137471551","105","3258943.33721","3251226.18957","3251992.97558","3252759.77675","3253527.02869","3254276.34179","3255043.22643","3255809.66525","3259693.07696","3260459.52011","3246643.52268","3247409.98407","3248176.79698","3248943.45284","3249693.19136","3250459.97923","3259702.22107","Mapping"
"Blocked","m150","ball","5","m150depth.wav","None","731.696714647","105","3258943.33721","3251226.18957","3251992.97558","3252759.77675","3253527.02869","3254276.34179","3255043.22643","3255809.66525","3259693.07696","3260459.52011","3261226.03374","3247409.98407","3248176.79698","3248943.45284","3249693.19136","3250459.97923","3260468.14666","Mapping"
"Blocked","m150","ball","5","m150cave.wav","None","729.327520356","105","3258943.33721","3251226.18957","3251992.97558","3252759.77675","3253527.02869","3254276.34179","3255043.22643","3255809.66525","3259693.07696","3260459.52011","3261226.03374","3261992.78915","3248176.79698","3248943.45284","3249693.19136","3250459.97923","3261234.76789","Mapping"
"Blocked","m150","ball","5","m150ball.wav","None","726.640805369","105","3258943.33721","3251226.18957","3251992.97558","3252759.77675","3253527.02869","3254276.34179","3255043.22643","3255809.66525","3259693.07696","3260459.52011","3261226.03374","3261992.78915","3262760.16415","3248943.45284","3249693.19136","3250459.97923","3262001.65933","Mapping"
"Blocked","m150","ball","5","m150done.wav","space","369.676230708","105","3258943.33721","3251226.18957","3251992.97558","3252759.77675","3253527.02869","3254276.34179","3255043.22643","3255809.66525","3259693.07696","3260459.52011","3261226.03374","3261992.78915","3262760.16415","3263526.6985","3249693.19136","3250459.97923","3262769.59393","Mapping"
"Blocked","m150","ball","5","m150jolt.wav","None","719.565995038","105","3258943.33721","3251226.18957","3251992.97558","3252759.77675","3253527.02869","3254276.34179","3255043.22643","3255809.66525","3259693.07696","3260459.52011","3261226.03374","3261992.78915","3262760.16415","3263526.6985","3264275.86504","3250459.97923","3263536.15827","Mapping"
"Blocked","m150","ball","5","m150greet.wav","None","735.46924605","105","3258943.33721","3251226.18957","3251992.97558","3252759.77675","3253527.02869","3254276.34179","3255043.22643","3255809.66525","3259693.07696","3260459.52011","3261226.03374","3261992.78915","3262760.16415","3263526.6985","3264275.86504","3265043.26941","3264284.66009","Mapping"
"Blocked","m150","ball","5","m150cad.wav","None","732.059683884","105","3258943.33721","3265809.38112","3251992.97558","3252759.77675","3253527.02869","3254276.34179","3255043.22643","3255809.66525","3259693.07696","3260459.52011","3261226.03374","3261992.78915","3262760.16415","3263526.6985","3264275.86504","3265043.26941","3265052.32942","Mapping"
"Blocked","m150","ball","5","m150ball.wav","None","730.513199698","105","3258943.33721","3265809.38112","3266575.90681","3252759.77675","3253527.02869","3254276.34179","3255043.22643","3255809.66525","3259693.07696","3260459.52011","3261226.03374","3261992.78915","3262760.16415","3263526.6985","3264275.86504","3265043.26941","3265818.20832","Mapping"
"Blocked","m150","ball","5","m150dime.wav","space","386.542247143","105","3258943.33721","3265809.38112","3266575.90681","3267343.53842","3253527.02869","3254276.34179","3255043.22643","3255809.66525","3259693.07696","3260459.52011","3261226.03374","3261992.78915","3262760.16415","3263526.6985","3264275.86504","3265043.26941","3266584.67373","Mapping"
"Blocked","m150","ball","5","m150bluff.wav","None","723.232479999","105","3258943.33721","3265809.38112","3266575.90681","3267343.53842","3268109.52863","3254276.34179","3255043.22643","3255809.66525","3259693.07696","3260459.52011","3261226.03374","3261992.78915","3262760.16415","3263526.6985","3264275.86504","3265043.26941","3267353.02447","Mapping"
"Blocked","m150","ball","5","m150lash.wav","None","722.463257145","105","3258943.33721","3265809.38112","3266575.90681","3267343.53842","3268109.52863","3268860.1285","3255043.22643","3255809.66525","3259693.07696","3260459.52011","3261226.03374","3261992.78915","3262760.16415","3263526.6985","3264275.86504","3265043.26941","3268118.2875","Mapping"
"Blocked","m150","ball","5","m150ball.wav","None","736.142007168","105","3258943.33721","3265809.38112","3266575.90681","3267343.53842","3268109.52863","3268860.1285","3269626.13416","3255809.66525","3259693.07696","3260459.52011","3261226.03374","3261992.78915","3262760.16415","3263526.6985","3264275.86504","3265043.26941","3268869.06113","Mapping"
"Blocked","m150","ball","5","m150park.wav","space","408.09811186","105","3258943.33721","3265809.38112","3266575.90681","3267343.53842","3268109.52863","3268860.1285","3269626.13416","3270393.02777","3259693.07696","3260459.52011","3261226.03374","3261992.78915","3262760.16415","3263526.6985","3264275.86504","3265043.26941","3269635.06772","Mapping"
"Blocked","m150","cave","7","m150tile.wav","None","730.162288062","105","3273526.62677","3265809.38112","3266575.90681","3267343.53842","3268109.52863","3268860.1285","3269626.13416","3270393.02777","3259693.07696","3260459.52011","3261226.03374","3261992.78915","3262760.16415","3263526.6985","3264275.86504","3265043.26941","3270402.5129","Mapping"
"Blocked","m150","cave","7","m150cave.wav","None","720.177230425","105","3273526.62677","3265809.38112","3266575.90681","3267343.53842","3268109.52863","3268860.1285","3269626.13416","3270393.02777","3274275.97294","3260459.52011","3261226.03374","3261992.78915","3262760.16415","3263526.6985","3264275.86504","3265043.26941","3273535.98761","Mapping"
"Blocked","m150","cave","7","m150tile.wav","space","526.096845977","105","3273526.62677","3265809.38112","3266575.90681","3267343.53842","3268109.52863","3268860.1285","3269626.13416","3270393.02777","3274275.97294","3275042.59943","3261226.03374","3261992.78915","3262760.16415","3263526.6985","3264275.86504","3265043.26941","3274284.98349","Mapping"
"Blocked","m150","cave","7","m150jolt.wav","None","732.046698686","105","3273526.62677","3265809.38112","3266575.90681","3267343.53842","3268109.52863","3268860.1285","3269626.13416","3270393.02777","3274275.97294","3275042.59943","3275809.5558","3261992.78915","3262760.16415","3263526.6985","3264275.86504","3265043.26941","3275051.50702","Mapping"
"Blocked","m150","cave","7","m150dime.wav","None","728.94136305","105","3273526.62677","3265809.38112","3266575.90681","3267343.53842","3268109.52863","3268860.1285","3269626.13416","3270393.02777","3274275.97294","3275042.59943","3275809.5558","3276575.71234","3262760.16415","3263526.6985","3264275.86504","3265043.26941","3275819.04711","Mapping"
"Blocked","m150","cave","7","m150cave.wav","None","727.557194652","105","3273526.62677","3265809.38112","3266575.90681","3267343.53842","3268109.52863","3268860.1285","3269626.13416","3270393.02777","3274275.97294","3275042.59943","3275809.5558","3276575.71234","3277343.32231","3263526.6985","3264275.86504","3265043.26941","3276584.66816","Mapping"
"Blocked","m150","cave","7","m150dime.wav","space","610.095803393","105","3273526.62677","3265809.38112","3266575.90681","3267343.53842","3268109.52863","3268860.1285","3269626.13416","3270393.02777","3274275.97294","3275042.59943","3275809.5558","3276575.71234","3277343.32231","3278109.92251","3264275.86504","3265043.26941","3277352.9478","Mapping"
"Blocked","m150","cave","7","m150greet.wav","None","720.072729979","105","3273526.62677","3265809.38112","3266575.90681","3267343.53842","3268109.52863","3268860.1285","3269626.13416","3270393.02777","3274275.97294","3275042.59943","3275809.5558","3276575.71234","3277343.32231","3278109.92251","3278859.38617","3265043.26941","3278119.3727","Mapping"
"Blocked","m150","cave","7","m150tile.wav","None","735.351142008","105","3273526.62677","3265809.38112","3266575.90681","3267343.53842","3268109.52863","3268860.1285","3269626.13416","3270393.02777","3274275.97294","3275042.59943","3275809.5558","3276575.71234","3277343.32231","3278109.92251","3278859.38617","3279625.64103","3278868.45515","Mapping"
"Blocked","m150","cave","7","m150jaw.wav","None","733.579579275","105","3273526.62677","3280392.48672","3266575.90681","3267343.53842","3268109.52863","3268860.1285","3269626.13416","3270393.02777","3274275.97294","3275042.59943","3275809.5558","3276575.71234","3277343.32231","3278109.92251","3278859.38617","3279625.64103","3279634.62004","Mapping"
"Blocked","m150","cave","7","m150cave.wav","None","735.970106674","105","3273526.62677","3280392.48672","3281159.58717","3267343.53842","3268109.52863","3268860.1285","3269626.13416","3270393.02777","3274275.97294","3275042.59943","3275809.5558","3276575.71234","3277343.32231","3278109.92251","3278859.38617","3279625.64103","3280401.39524","Mapping"
"Blocked","m150","cave","7","m150park.wav","space","570.275532082","105","3273526.62677","3280392.48672","3281159.58717","3281926.02908","3268109.52863","3268860.1285","3269626.13416","3270393.02777","3274275.97294","3275042.59943","3275809.5558","3276575.71234","3277343.32231","3278109.92251","3278859.38617","3279625.64103","3281168.722","Mapping"
"Blocked","m150","cave","7","m150cling.wav","None","728.993613273","105","3273526.62677","3280392.48672","3281159.58717","3281926.02908","3282692.80922","3268860.1285","3269626.13416","3270393.02777","3274275.97294","3275042.59943","3275809.5558","3276575.71234","3277343.32231","3278109.92251","3278859.38617","3279625.64103","3281935.89665","Mapping"
"Blocked","m150","cave","7","m150cave.wav","None","727.260697633","105","3273526.62677","3280392.48672","3281159.58717","3281926.02908","3282692.80922","3283459.08665","3269626.13416","3270393.02777","3274275.97294","3275042.59943","3275809.5558","3276575.71234","3277343.32231","3278109.92251","3278859.38617","3279625.64103","3282701.83708","Mapping"
"Blocked","m150","cave","7","m150jolt.wav","space","647.113419836","105","3273526.62677","3280392.48672","3281159.58717","3281926.02908","3282692.80922","3283459.08665","3284226.37353","3270393.02777","3274275.97294","3275042.59943","3275809.5558","3276575.71234","3277343.32231","3278109.92251","3278859.38617","3279625.64103","3283467.77874","Mapping"
"Blocked","m150","cave","7","m150done.wav","None","720.427969936","105","3273526.62677","3280392.48672","3281159.58717","3281926.02908","3282692.80922","3283459.08665","3284226.37353","3284976.1309","3274275.97294","3275042.59943","3275809.5558","3276575.71234","3277343.32231","3278109.92251","3278859.38617","3279625.64103","3284236.01447","Mapping"
"Blocked","m150","cave","9","m150greet.wav","None","736.06749624","105","3288109.56882","3280392.48672","3281159.58717","3281926.02908","3282692.80922","3283459.08665","3284226.37353","3284976.1309","3274275.97294","3275042.59943","3275809.5558","3276575.71234","3277343.32231","3278109.92251","3278859.38617","3279625.64103","3284985.16401","Mapping"
"Blocked","m150","cave","9","m150romp.wav","None","719.693683553","105","3288109.56882","3280392.48672","3281159.58717","3281926.02908","3282692.80922","3283459.08665","3284226.37353","3284976.1309","3288858.88871","3275042.59943","3275809.5558","3276575.71234","3277343.32231","3278109.92251","3278859.38617","3279625.64103","3288119.30623","Mapping"
"Blocked","m150","cave","9","m150ball.wav","None","735.757086426","105","3288109.56882","3280392.48672","3281159.58717","3281926.02908","3282692.80922","3283459.08665","3284226.37353","3284976.1309","3288858.88871","3289625.47408","3275809.5558","3276575.71234","3277343.32231","3278109.92251","3278859.38617","3279625.64103","3288867.54185","Mapping"
"Blocked","m150","cave","9","m150cave.wav","None","733.277826337","105","3288109.56882","3280392.48672","3281159.58717","3281926.02908","3282692.80922","3283459.08665","3284226.37353","3284976.1309","3288858.88871","3289625.47408","3290392.28452","3276575.71234","3277343.32231","3278109.92251","3278859.38617","3279625.64103","3289634.44165","Mapping"
"Blocked","m150","cave","9","m150cling.wav","space","473.724142648","105","3288109.56882","3280392.48672","3281159.58717","3281926.02908","3282692.80922","3283459.08665","3284226.37353","3284976.1309","3288858.88871","3289625.47408","3290392.28452","3291158.92956","3277343.32231","3278109.92251","3278859.38617","3279625.64103","3290401.14728","Mapping"
"Blocked","m150","cave","9","m150cave.wav","None","727.402608143","105","3288109.56882","3280392.48672","3281159.58717","3281926.02908","3282692.80922","3283459.08665","3284226.37353","3284976.1309","3288858.88871","3289625.47408","3290392.28452","3291158.92956","3291925.8649","3278109.92251","3278859.38617","3279625.64103","3291167.67421","Mapping"
"Blocked","m150","cave","9","m150romp.wav","space","523.949019844","105","3288109.56882","3280392.48672","3281159.58717","3281926.02908","3282692.80922","3283459.08665","3284226.37353","3284976.1309","3288858.88871","3289625.47408","3290392.28452","3291158.92956","3291925.8649","3292692.97092","3278859.38617","3279625.64103","3291934.81454","Mapping"
"Blocked","m150","cave","9","m150priest.wav","None","719.935456989","105","3288109.56882","3280392.48672","3281159.58717","3281926.02908","3282692.80922","3283459.08665","3284226.37353","3284976.1309","3288858.88871","3289625.47408","3290392.28452","3291158.92956","3291925.8649","3292692.97092","3293442.1724","3279625.64103","3292703.14117","Mapping"
"Blocked","m150","cave","9","m150cave.wav","None","736.824661493","105","3288109.56882","3280392.48672","3281159.58717","3281926.02908","3282692.80922","3283459.08665","3284226.37353","3284976.1309","3288858.88871","3289625.47408","3290392.28452","3291158.92956","3291925.8649","3292692.97092","3293442.1724","3294208.78095","3293450.8849","Mapping"
"Blocked","m150","cave","9","m150tile.wav","space","441.341341706","105","3288109.56882","3294975.43835","3281159.58717","3281926.02908","3282692.80922","3283459.08665","3284226.37353","3284976.1309","3288858.88871","3289625.47408","3290392.28452","3291158.92956","3291925.8649","3292692.97092","3293442.1724","3294208.78095","3294217.40348","Mapping"
"Blocked","m150","cave","9","m150ball.wav","None","731.037557358","105","3288109.56882","3294975.43835","3295742.61888","3281926.02908","3282692.80922","3283459.08665","3284226.37353","3284976.1309","3288858.88871","3289625.47408","3290392.28452","3291158.92956","3291925.8649","3292692.97092","3293442.1724","3294208.78095","3294984.32832","Mapping"
"Blocked","m150","cave","9","m150reek.wav","None","728.212332819","105","3288109.56882","3294975.43835","3295742.61888","3296509.26638","3282692.80922","3283459.08665","3284226.37353","3284976.1309","3288858.88871","3289625.47408","3290392.28452","3291158.92956","3291925.8649","3292692.97092","3293442.1724","3294208.78095","3295751.66003","Mapping"
"Blocked","m150","cave","9","m150cave.wav","None","725.938363699","105","3288109.56882","3294975.43835","3295742.61888","3296509.26638","3297276.09198","3283459.08665","3284226.37353","3284976.1309","3288858.88871","3289625.47408","3290392.28452","3291158.92956","3291925.8649","3292692.97092","3293442.1724","3294208.78095","3296518.30939","Mapping"
"Blocked","m150","cave","9","m150greet.wav","space","373.031996656","105","3288109.56882","3294975.43835","3295742.61888","3296509.26638","3297276.09198","3298042.82791","3284226.37353","3284976.1309","3288858.88871","3289625.47408","3290392.28452","3291158.92956","3291925.8649","3292692.97092","3293442.1724","3294208.78095","3297285.63213","Mapping"
"Blocked","m150","cave","9","m150priest.wav","None","718.915803824","105","3288109.56882","3294975.43835","3295742.61888","3296509.26638","3297276.09198","3298042.82791","3298792.33826","3284976.1309","3288858.88871","3289625.47408","3290392.28452","3291158.92956","3291925.8649","3292692.97092","3293442.1724","3294208.78095","3298052.90232","Mapping"
"Blocked","m150","cave","9","m150cling.wav","None","734.397033462","105","3288109.56882","3294975.43835","3295742.61888","3296509.26638","3297276.09198","3298042.82791","3298792.33826","3299559.04976","3288858.88871","3289625.47408","3290392.28452","3291158.92956","3291925.8649","3292692.97092","3293442.1724","3294208.78095","3298801.74485","Mapping"
"Blocked","m150","cave","8","m150priest.wav","None","732.217053184","105","3302692.86363","3294975.43835","3295742.61888","3296509.26638","3297276.09198","3298042.82791","3298792.33826","3299559.04976","3288858.88871","3289625.47408","3290392.28452","3291158.92956","3291925.8649","3292692.97092","3293442.1724","3294208.78095","3299568.08164","Mapping"
"Blocked","m150","cave","8","m150park.wav","None","720.309247263","105","3302692.86363","3294975.43835","3295742.61888","3296509.26638","3297276.09198","3298042.82791","3298792.33826","3299559.04976","3303441.82025","3289625.47408","3290392.28452","3291158.92956","3291925.8649","3292692.97092","3293442.1724","3294208.78095","3302702.25972","Mapping"
"Blocked","m150","cave","8","m150lash.wav","None","734.644062817","105","3302692.86363","3294975.43835","3295742.61888","3296509.26638","3297276.09198","3298042.82791","3298792.33826","3299559.04976","3303441.82025","3304208.99552","3290392.28452","3291158.92956","3291925.8649","3292692.97092","3293442.1724","3294208.78095","3303452.43138","Mapping"
"Blocked","m150","cave","8","m150reek.wav","None","733.434268041","105","3302692.86363","3294975.43835","3295742.61888","3296509.26638","3297276.09198","3298042.82791","3298792.33826","3299559.04976","3303441.82025","3304208.99552","3304975.60407","3291158.92956","3291925.8649","3292692.97092","3293442.1724","3294208.78095","3304218.16065","Mapping"
"Blocked","m150","cave","8","m150gnash.wav","None","730.623574462","105","3302692.86363","3294975.43835","3295742.61888","3296509.26638","3297276.09198","3298042.82791","3298792.33826","3299559.04976","3303441.82025","3304208.99552","3304975.60407","3305741.95755","3291925.8649","3292692.97092","3293442.1724","3294208.78095","3304985.39157","Mapping"
"Blocked","m150","cave","8","m150cave.wav","None","728.255616967","105","3302692.86363","3294975.43835","3295742.61888","3296509.26638","3297276.09198","3298042.82791","3298792.33826","3299559.04976","3303441.82025","3304208.99552","3304975.60407","3305741.95755","3306508.75872","3292692.97092","3293442.1724","3294208.78095","3305752.3634","Mapping"
"Blocked","m150","cave","8","m150knife.wav","space","605.074830819","105","3302692.86363","3294975.43835","3295742.61888","3296509.26638","3297276.09198","3298042.82791","3298792.33826","3299559.04976","3303441.82025","3304208.99552","3304975.60407","3305741.95755","3306508.75872","3307275.83413","3293442.1724","3294208.78095","3306517.42918","Mapping"
"Blocked","m150","cave","8","m150cave.wav","None","722.66514739","105","3302692.86363","3294975.43835","3295742.61888","3296509.26638","3297276.09198","3298042.82791","3298792.33826","3299559.04976","3303441.82025","3304208.99552","3304975.60407","3305741.95755","3306508.75872","3307275.83413","3308042.75618","3294208.78095","3307285.38139","Mapping"
"Blocked","m150","cave","8","m150knife.wav","space","580.730842194","105","3302692.86363","3294975.43835","3295742.61888","3296509.26638","3297276.09198","3298042.82791","3298792.33826","3299559.04976","3303441.82025","3304208.99552","3304975.60407","3305741.95755","3306508.75872","3307275.83413","3308042.75618","3308791.90108","3308053.77882","Mapping"
"Blocked","m150","cave","8","m150cave.wav","None","735.260245157","105","3302692.86363","3309558.88219","3295742.61888","3296509.26638","3297276.09198","3298042.82791","3298792.33826","3299559.04976","3303441.82025","3304208.99552","3304975.60407","3305741.95755","3306508.75872","3307275.83413","3308042.75618","3308791.90108","3308800.45683","Mapping"
"Blocked","m150","cave","8","m150dime.wav","space","465.032974724","105","3302692.86363","3309558.88219","3310325.09995","3296509.26638","3297276.09198","3298042.82791","3298792.33826","3299559.04976","3303441.82025","3304208.99552","3304975.60407","3305741.95755","3306508.75872","3307275.83413","3308042.75618","3308791.90108","3309569.43675","Mapping"
"Blocked","m150","cave","8","m150reek.wav","None","723.705515033","105","3302692.86363","3309558.88219","3310325.09995","3311092.33489","3297276.09198","3298042.82791","3298792.33826","3299559.04976","3303441.82025","3304208.99552","3304975.60407","3305741.95755","3306508.75872","3307275.83413","3308042.75618","3308791.90108","3310339.35747","Mapping"
"Blocked","m150","cave","8","m150priest.wav","None","726.054922212","105","3302692.86363","3309558.88219","3310325.09995","3311092.33489","3311858.7332","3298042.82791","3298792.33826","3299559.04976","3303441.82025","3304208.99552","3304975.60407","3305741.95755","3306508.75872","3307275.83413","3308042.75618","3308791.90108","3311101.59679","Mapping"
"Blocked","m150","cave","8","m150cave.wav","None","724.560069852","105","3302692.86363","3309558.88219","3310325.09995","3311092.33489","3311858.7332","3312625.31083","3298792.33826","3299559.04976","3303441.82025","3304208.99552","3304975.60407","3305741.95755","3306508.75872","3307275.83413","3308042.75618","3308791.90108","3311867.63522","Mapping"
"Blocked","m150","cave","8","m150cad.wav","space","552.307004109","105","3302692.86363","3309558.88219","3310325.09995","3311092.33489","3311858.7332","3312625.31083","3313375.22836","3299559.04976","3303441.82025","3304208.99552","3304975.60407","3305741.95755","3306508.75872","3307275.83413","3308042.75618","3308791.90108","3312634.06446","Mapping"
"Blocked","m150","cave","8","m150jaw.wav","None","735.522423871","105","3302692.86363","3309558.88219","3310325.09995","3311092.33489","3311858.7332","3312625.31083","3313375.22836","3314141.85299","3303441.82025","3304208.99552","3304975.60407","3305741.95755","3306508.75872","3307275.83413","3308042.75618","3308791.90108","3313384.35268","Mapping"
"Blocked","m150","cave","12","m150dime.wav","None","733.488682657","105","3317275.64893","3309558.88219","3310325.09995","3311092.33489","3311858.7332","3312625.31083","3313375.22836","3314141.85299","3303441.82025","3304208.99552","3304975.60407","3305741.95755","3306508.75872","3307275.83413","3308042.75618","3308791.90108","3314150.86323","Mapping"
"Blocked","m150","cave","12","m150reek.wav","None","720.19949113","105","3317275.64893","3309558.88219","3310325.09995","3311092.33489","3311858.7332","3312625.31083","3313375.22836","3314141.85299","3318025.20906","3304208.99552","3304975.60407","3305741.95755","3306508.75872","3307275.83413","3308042.75618","3308791.90108","3317285.26174","Mapping"
"Blocked","m150","cave","12","m150gnash.wav","None","735.850765835","105","3317275.64893","3309558.88219","3310325.09995","3311092.33489","3311858.7332","3312625.31083","3313375.22836","3314141.85299","3318025.20906","3318792.02321","3304975.60407","3305741.95755","3306508.75872","3307275.83413","3308042.75618","3308791.90108","3318034.16673","Mapping"
"Blocked","m150","cave","12","m150cave.wav","None","733.385727741","105","3317275.64893","3309558.88219","3310325.09995","3311092.33489","3311858.7332","3312625.31083","3313375.22836","3314141.85299","3318025.20906","3318792.02321","3319558.7174","3305741.95755","3306508.75872","3307275.83413","3308042.75618","3308791.90108","3318801.29006","Mapping"
"Blocked","m150","cave","12","m150dime.wav","space","586.506197695","105","3317275.64893","3309558.88219","3310325.09995","3311092.33489","3311858.7332","3312625.31083","3313375.22836","3314141.85299","3318025.20906","3318792.02321","3319558.7174","3320325.28112","3306508.75872","3307275.83413","3308042.75618","3308791.90108","3319567.79473","Mapping"
"Blocked","m150","cave","12","m150knife.wav","None","727.580073522","105","3317275.64893","3309558.88219","3310325.09995","3311092.33489","3311858.7332","3312625.31083","3313375.22836","3314141.85299","3318025.20906","3318792.02321","3319558.7174","3320325.28112","3321091.73849","3307275.83413","3308042.75618","3308791.90108","3320334.57549","Mapping"
"Blocked","m150","cave","12","m150priest.wav","None","726.402432658","105","3317275.64893","3309558.88219","3310325.09995","3311092.33489","3311858.7332","3312625.31083","3313375.22836","3314141.85299","3318025.20906","3318792.02321","3319558.7174","3320325.28112","3321091.73849","3321858.77308","3308042.75618","3308791.90108","3321100.3941","Mapping"
"Blocked","m150","cave","12","m150cave.wav","None","723.688819679","105","3317275.64893","3309558.88219","3310325.09995","3311092.33489","3311858.7332","3312625.31083","3313375.22836","3314141.85299","3318025.20906","3318792.02321","3319558.7174","3320325.28112","3321091.73849","3321858.77308","3322625.6466","3308791.90108","3321867.68902","Mapping"
"Blocked","m150","cave","12","m150bluff.wav","space","455.056883395","105","3317275.64893","3309558.88219","3310325.09995","3311092.33489","3311858.7332","3312625.31083","3313375.22836","3314141.85299","3318025.20906","3318792.02321","3319558.7174","3320325.28112","3321091.73849","3321858.77308","3322625.6466","3323375.16034","3322635.17964","Mapping"
"Blocked","m150","cave","12","m150cave.wav","None","734.922937118","105","3317275.64893","3324141.94667","3310325.09995","3311092.33489","3311858.7332","3312625.31083","3313375.22836","3314141.85299","3318025.20906","3318792.02321","3319558.7174","3320325.28112","3321091.73849","3321858.77308","3322625.6466","3323375.16034","3323384.22654","Mapping"
"Blocked","m150","cave","12","m150priest.wav","space","666.251859395","105","3317275.64893","3324141.94667","3324908.59294","3311092.33489","3311858.7332","3312625.31083","3313375.22836","3314141.85299","3318025.20906","3318792.02321","3319558.7174","3320325.28112","3321091.73849","3321858.77308","3322625.6466","3323375.16034","3324151.9475","Mapping"
"Blocked","m150","cave","12","m150jolt.wav","None","729.211889673","105","3317275.64893","3324141.94667","3324908.59294","3325675.2185","3311858.7332","3312625.31083","3313375.22836","3314141.85299","3318025.20906","3318792.02321","3319558.7174","3320325.28112","3321091.73849","3321858.77308","3322625.6466","3323375.16034","3324917.66687","Mapping"
"Blocked","m150","cave","12","m150dime.wav","None","727.566160727","105","3317275.64893","3324141.94667","3324908.59294","3325675.2185","3326441.99432","3312625.31083","3313375.22836","3314141.85299","3318025.20906","3318792.02321","3319558.7174","3320325.28112","3321091.73849","3321858.77308","3322625.6466","3323375.16034","3325684.16226","Mapping"
"Blocked","m150","cave","12","m150cave.wav","None","725.425754907","105","3317275.64893","3324141.94667","3324908.59294","3325675.2185","3326441.99432","3327209.10837","3313375.22836","3314141.85299","3318025.20906","3318792.02321","3319558.7174","3320325.28112","3321091.73849","3321858.77308","3322625.6466","3323375.16034","3326451.05371","Mapping"
"Blocked","m150","cave","12","m150jolt.wav","space","518.948143115","105","3317275.64893","3324141.94667","3324908.59294","3325675.2185","3326441.99432","3327209.10837","3327975.59758","3314141.85299","3318025.20906","3318792.02321","3319558.7174","3320325.28112","3321091.73849","3321858.77308","3322625.6466","3323375.16034","3327219.19205","Mapping"
"Blocked","m150","cave","12","m150done.wav","None","719.544043764","105","3317275.64893","3324141.94667","3324908.59294","3325675.2185","3326441.99432","3327209.10837","3327975.59758","3328725.07577","3318025.20906","3318792.02321","3319558.7174","3320325.28112","3321091.73849","3321858.77308","3322625.6466","3323375.16034","3327985.00386","Mapping"
"Blocked","m150","ball","1","m150done.wav","None","735.084943706","105","3331859.06742","3324141.94667","3324908.59294","3325675.2185","3326441.99432","3327209.10837","3327975.59758","3328725.07577","3318025.20906","3318792.02321","3319558.7174","3320325.28112","3321091.73849","3321858.77308","3322625.6466","3323375.16034","3328734.15495","Mapping"
"Blocked","m150","ball","1","m150cad.wav","None","719.434287166","105","3331859.06742","3324141.94667","3324908.59294","3325675.2185","3326441.99432","3327209.10837","3327975.59758","3328725.07577","3332608.43523","3318792.02321","3319558.7174","3320325.28112","3321091.73849","3321858.77308","3322625.6466","3323375.16034","3331868.54574","Mapping"
"Blocked","m150","ball","1","m150ball.wav","None","734.839769313","105","3331859.06742","3324141.94667","3324908.59294","3325675.2185","3326441.99432","3327209.10837","3327975.59758","3328725.07577","3332608.43523","3333375.21012","3319558.7174","3320325.28112","3321091.73849","3321858.77308","3322625.6466","3323375.16034","3332617.83719","Mapping"
"Blocked","m150","ball","1","m150done.wav","space","505.904125981","105","3331859.06742","3324141.94667","3324908.59294","3325675.2185","3326441.99432","3327209.10837","3327975.59758","3328725.07577","3332608.43523","3333375.21012","3334141.8567","3320325.28112","3321091.73849","3321858.77308","3322625.6466","3323375.16034","3333384.11802","Mapping"
"Blocked","m150","ball","1","m150greet.wav","None","729.477778543","105","3331859.06742","3324141.94667","3324908.59294","3325675.2185","3326441.99432","3327209.10837","3327975.59758","3328725.07577","3332608.43523","3333375.21012","3334141.8567","3334908.41084","3321091.73849","3321858.77308","3322625.6466","3323375.16034","3334151.04255","Mapping"
"Blocked","m150","ball","1","m150ball.wav","None","727.790002013","105","3331859.06742","3324141.94667","3324908.59294","3325675.2185","3326441.99432","3327209.10837","3327975.59758","3328725.07577","3332608.43523","3333375.21012","3334141.8567","3334908.41084","3335675.04969","3321858.77308","3322625.6466","3323375.16034","3334917.47704","Mapping"
"Blocked","m150","ball","1","m150jolt.wav","space","461.949899793","105","3331859.06742","3324141.94667","3324908.59294","3325675.2185","3326441.99432","3327209.10837","3327975.59758","3328725.07577","3332608.43523","3333375.21012","3334141.8567","3334908.41084","3335675.04969","3336441.52777","3322625.6466","3323375.16034","3335684.0253","Mapping"
"Blocked","m150","ball","1","m150dime.wav","None","722.868583165","105","3331859.06742","3324141.94667","3324908.59294","3325675.2185","3326441.99432","3327209.10837","3327975.59758","3328725.07577","3332608.43523","3333375.21012","3334141.8567","3334908.41084","3335675.04969","3336441.52777","3337208.18517","3323375.16034","3336450.53337","Mapping"
"Blocked","m150","ball","1","m150gnash.wav","None","721.333847381","105","3331859.06742","3324141.94667","3324908.59294","3325675.2185","3326441.99432","3327209.10837","3327975.59758","3328725.07577","3332608.43523","3333375.21012","3334141.8567","3334908.41084","3335675.04969","3336441.52777","3337208.18517","3337958.39085","3337217.28754","Mapping"
"Blocked","m150","ball","1","m150romp.wav","None","736.102123512","105","3331859.06742","3338724.87852","3324908.59294","3325675.2185","3326441.99432","3327209.10837","3327975.59758","3328725.07577","3332608.43523","3333375.21012","3334141.8567","3334908.41084","3335675.04969","3336441.52777","3337208.18517","3337958.39085","3337967.39058","Mapping"
"Blocked","m150","ball","1","m150bluff.wav","None","734.436916886","105","3331859.06742","3338724.87852","3339491.64599","3325675.2185","3326441.99432","3327209.10837","3327975.59758","3328725.07577","3332608.43523","3333375.21012","3334141.8567","3334908.41084","3335675.04969","3336441.52777","3337208.18517","3337958.39085","3338733.94626","Mapping"
"Blocked","m150","ball","1","m150ball.wav","None","732.089055469","105","3331859.06742","3338724.87852","3339491.64599","3340258.31328","3326441.99432","3327209.10837","3327975.59758","3328725.07577","3332608.43523","3333375.21012","3334141.8567","3334908.41084","3335675.04969","3336441.52777","3337208.18517","3337958.39085","3339501.02135","Mapping"
"Blocked","m150","ball","1","m150priest.wav","space","390.488534002","105","3331859.06742","3338724.87852","3339491.64599","3340258.31328","3341024.92307","3327209.10837","3327975.59758","3328725.07577","3332608.43523","3333375.21012","3334141.8567","3334908.41084","3335675.04969","3336441.52777","3337208.18517","3337958.39085","3340267.4039","Mapping"
