"Condition","Talker","Target","Trial","current_stimulus","response_response","response_time_response","subject_nr","time_Audio1","time_Audio10","time_Audio11","time_Audio12","time_Audio13","time_Audio14","time_Audio15","time_Audio16","time_Audio2","time_Audio3","time_Audio4","time_Audio5","time_Audio6","time_Audio7","time_Audio8","time_Audio9","time_response","title"
"Blocked","m150","cave","11","m150gnash.wav","NA","NA","117","798034.604627","NA","NA","NA","NA","NA","NA","NA","NA","NA","NA","NA","NA","NA","NA","NA","NA","Mapping"
"Blocked","m150","cave","11","m150dime.wav","None","716.791217448","117","798034.604627","NA","NA","NA","NA","NA","NA","NA","798801.425169","NA","NA","NA","NA","NA","NA","NA","798049.05419","Mapping"
"Blocked","m150","cave","11","m150bluff.wav","None","720.285194635","117","798034.604627","NA","NA","NA","NA","NA","NA","NA","798801.425169","799550.56095","NA","NA","NA","NA","NA","NA","798811.082224","Mapping"
"Blocked","m150","cave","11","m150cave.wav","None","737.273077772","117","798034.604627","NA","NA","NA","NA","NA","NA","NA","798801.425169","799550.56095","800317.055314","NA","NA","NA","NA","NA","799559.524218","Mapping"
"Blocked","m150","cave","11","m150priest.wav","space","339.936984121","117","798034.604627","NA","NA","NA","NA","NA","NA","NA","798801.425169","799550.56095","800317.055314","801084.112993","NA","NA","NA","NA","800326.097421","Mapping"
"Blocked","m150","cave","11","m150cave.wav","None","734.480616753","117","798034.604627","NA","NA","NA","NA","NA","NA","NA","798801.425169","799550.56095","800317.055314","801084.112993","801850.671047","NA","NA","NA","801093.814878","Mapping"
"Blocked","m150","cave","11","m150park.wav","space","566.118593619","117","798034.604627","NA","NA","NA","NA","NA","NA","NA","798801.425169","799550.56095","800317.055314","801084.112993","801850.671047","802617.511686","NA","NA","801859.937615","Mapping"
"Blocked","m150","cave","11","m150cave.wav","None","732.789434202","117","798034.604627","NA","NA","NA","NA","NA","NA","NA","798801.425169","799550.56095","800317.055314","801084.112993","801850.671047","802617.511686","803384.134048","NA","802626.862658","Mapping"
"Blocked","m150","cave","11","m150ball.wav","space","367.2772547","117","798034.604627","NA","NA","NA","NA","NA","NA","NA","798801.425169","799550.56095","800317.055314","801084.112993","801850.671047","802617.511686","803384.134048","804150.577398","803394.775513","Mapping"
"Blocked","m150","cave","11","m150greet.wav","None","730.498762801","117","798034.604627","804917.38341","NA","NA","NA","NA","NA","NA","798801.425169","799550.56095","800317.055314","801084.112993","801850.671047","802617.511686","803384.134048","804150.577398","804159.90982","Mapping"
"Blocked","m150","cave","11","m150lash.wav","None","728.49531431","117","798034.604627","804917.38341","805684.29454","NA","NA","NA","NA","NA","798801.425169","799550.56095","800317.055314","801084.112993","801850.671047","802617.511686","803384.134048","804150.577398","804927.125178","Mapping"
"Blocked","m150","cave","11","m150jaw.wav","None","727.509667107","117","798034.604627","804917.38341","805684.29454","806450.846101","NA","NA","NA","NA","798801.425169","799550.56095","800317.055314","801084.112993","801850.671047","802617.511686","803384.134048","804150.577398","805693.719714","Mapping"
"Blocked","m150","cave","11","m150jaw.wav","None","726.96521139","117","798034.604627","804917.38341","805684.29454","806450.846101","807217.203192","NA","NA","NA","798801.425169","799550.56095","800317.055314","801084.112993","801850.671047","802617.511686","803384.134048","804150.577398","806459.978797","Mapping"
"Blocked","m150","cave","11","m150cad.wav","None","726.35892086","117","798034.604627","804917.38341","805684.29454","806450.846101","807217.203192","807984.187597","NA","NA","798801.425169","799550.56095","800317.055314","801084.112993","801850.671047","802617.511686","803384.134048","804150.577398","807225.97539","Mapping"
"Blocked","m150","cave","11","m150cave.wav","None","723.665704834","117","798034.604627","804917.38341","805684.29454","806450.846101","807217.203192","807984.187597","808751.165818","NA","798801.425169","799550.56095","800317.055314","801084.112993","801850.671047","802617.511686","803384.134048","804150.577398","807993.878043","Mapping"
"Blocked","m150","cave","11","m150priest.wav","space","553.084120445","117","798034.604627","804917.38341","805684.29454","806450.846101","807217.203192","807984.187597","808751.165818","809518.09921","798801.425169","799550.56095","800317.055314","801084.112993","801850.671047","802617.511686","803384.134048","804150.577398","808760.866776","Mapping"
"Blocked","m150","cave","10","m150gnash.wav","None","720.106491935","117","812684.525184","804917.38341","805684.29454","806450.846101","807217.203192","807984.187597","808751.165818","809518.09921","798801.425169","799550.56095","800317.055314","801084.112993","801850.671047","802617.511686","803384.134048","804150.577398","809527.949807","Mapping"
"Blocked","m150","cave","10","m150dime.wav","None","722.008531331","117","812684.525184","804917.38341","805684.29454","806450.846101","807217.203192","807984.187597","808751.165818","809518.09921","813451.169498","799550.56095","800317.055314","801084.112993","801850.671047","802617.511686","803384.134048","804150.577398","812694.407936","Mapping"
"Blocked","m150","cave","10","m150cling.wav","None","720.545519202","117","812684.525184","804917.38341","805684.29454","806450.846101","807217.203192","807984.187597","808751.165818","809518.09921","813451.169498","814217.804227","800317.055314","801084.112993","801850.671047","802617.511686","803384.134048","804150.577398","813461.309482","Mapping"
"Blocked","m150","cave","10","m150cave.wav","None","719.565437175","117","812684.525184","804917.38341","805684.29454","806450.846101","807217.203192","807984.187597","808751.165818","809518.09921","813451.169498","814217.804227","814967.363576","801084.112993","801850.671047","802617.511686","803384.134048","804150.577398","814227.526517","Mapping"
"Blocked","m150","cave","10","m150greet.wav","space","457.410796254","117","812684.525184","804917.38341","805684.29454","806450.846101","807217.203192","807984.187597","808751.165818","809518.09921","813451.169498","814217.804227","814967.363576","815734.050556","801850.671047","802617.511686","803384.134048","804150.577398","814976.452369","Mapping"
"Blocked","m150","cave","10","m150cling.wav","None","734.294803115","117","812684.525184","804917.38341","805684.29454","806450.846101","807217.203192","807984.187597","808751.165818","809518.09921","813451.169498","814217.804227","814967.363576","815734.050556","816500.711873","802617.511686","803384.134048","804150.577398","815743.361335","Mapping"
"Blocked","m150","cave","10","m150cave.wav","None","732.79499932","117","812684.525184","804917.38341","805684.29454","806450.846101","807217.203192","807984.187597","808751.165818","809518.09921","813451.169498","814217.804227","814967.363576","815734.050556","816500.711873","817267.139765","803384.134048","804150.577398","816510.108604","Mapping"
"Blocked","m150","cave","10","m150done.wav","space","469.644508499","117","812684.525184","804917.38341","805684.29454","806450.846101","807217.203192","807984.187597","808751.165818","809518.09921","813451.169498","814217.804227","814967.363576","815734.050556","816500.711873","817267.139765","818034.291433","804150.577398","817276.185892","Mapping"
"Blocked","m150","cave","10","m150cave.wav","None","729.465193639","117","812684.525184","804917.38341","805684.29454","806450.846101","807217.203192","807984.187597","808751.165818","809518.09921","813451.169498","814217.804227","814967.363576","815734.050556","816500.711873","817267.139765","818034.291433","818800.757353","818043.847697","Mapping"
"Blocked","m150","cave","10","m150cling.wav","space","464.108126878","117","812684.525184","819567.122482","805684.29454","806450.846101","807217.203192","807984.187597","808751.165818","809518.09921","813451.169498","814217.804227","814967.363576","815734.050556","816500.711873","817267.139765","818034.291433","818800.757353","818809.678882","Mapping"
"Blocked","m150","cave","10","m150cave.wav","None","727.759789035","117","812684.525184","819567.122482","820333.665386","806450.846101","807217.203192","807984.187597","808751.165818","809518.09921","813451.169498","814217.804227","814967.363576","815734.050556","816500.711873","817267.139765","818034.291433","818800.757353","819576.139237","Mapping"
"Blocked","m150","cave","10","m150reek.wav","space","451.51855523","117","812684.525184","819567.122482","820333.665386","821100.628458","807217.203192","807984.187597","808751.165818","809518.09921","813451.169498","814217.804227","814967.363576","815734.050556","816500.711873","817267.139765","818034.291433","818800.757353","820342.26321","Mapping"
"Blocked","m150","cave","10","m150lash.wav","None","725.18653248","117","812684.525184","819567.122482","820333.665386","821100.628458","821867.860512","807984.187597","808751.165818","809518.09921","813451.169498","814217.804227","814967.363576","815734.050556","816500.711873","817267.139765","818034.291433","818800.757353","821109.705502","Mapping"
"Blocked","m150","cave","10","m150tile.wav","None","722.786104365","117","812684.525184","819567.122482","820333.665386","821100.628458","821867.860512","822634.601906","808751.165818","809518.09921","813451.169498","814217.804227","814967.363576","815734.050556","816500.711873","817267.139765","818034.291433","818800.757353","821877.488195","Mapping"
"Blocked","m150","cave","10","m150cad.wav","None","721.269605099","117","812684.525184","819567.122482","820333.665386","821100.628458","821867.860512","822634.601906","823400.791733","809518.09921","813451.169498","814217.804227","814967.363576","815734.050556","816500.711873","817267.139765","818034.291433","818800.757353","822644.507537","Mapping"
"Blocked","m150","cave","10","m150jaw.wav","None","720.377019315","117","812684.525184","819567.122482","820333.665386","821100.628458","821867.860512","822634.601906","823400.791733","824167.614749","813451.169498","814217.804227","814967.363576","815734.050556","816500.711873","817267.139765","818034.291433","818800.757353","823410.9311","Mapping"
"Blocked","m150","ball","2","m150greet.wav","None","719.781859079","117","827284.309752","819567.122482","820333.665386","821100.628458","821867.860512","822634.601906","823400.791733","824167.614749","813451.169498","814217.804227","814967.363576","815734.050556","816500.711873","817267.139765","818034.291433","818800.757353","824177.099285","Mapping"
"Blocked","m150","ball","2","m150ball.wav","None","721.621754463","117","827284.309752","819567.122482","820333.665386","821100.628458","821867.860512","822634.601906","823400.791733","824167.614749","828050.750628","814217.804227","814967.363576","815734.050556","816500.711873","817267.139765","818034.291433","818800.757353","827294.017202","Mapping"
"Blocked","m150","ball","2","m150cave.wav","space","445.233353821","117","827284.309752","819567.122482","820333.665386","821100.628458","821867.860512","822634.601906","823400.791733","824167.614749","828050.750628","828800.679132","814967.363576","815734.050556","816500.711873","817267.139765","818034.291433","818800.757353","828060.439528","Mapping"
"Blocked","m150","ball","2","m150park.wav","None","735.90529128","117","827284.309752","819567.122482","820333.665386","821100.628458","821867.860512","822634.601906","823400.791733","824167.614749","828050.750628","828800.679132","829566.859684","815734.050556","816500.711873","817267.139765","818034.291433","818800.757353","828810.070915","Mapping"
"Blocked","m150","ball","2","m150ball.wav","None","735.937136225","117","827284.309752","819567.122482","820333.665386","821100.628458","821867.860512","822634.601906","823400.791733","824167.614749","828050.750628","828800.679132","829566.859684","830333.512036","816500.711873","817267.139765","818034.291433","818800.757353","829575.596946","Mapping"
"Blocked","m150","ball","2","m150done.wav","space","435.46592386","117","827284.309752","819567.122482","820333.665386","821100.628458","821867.860512","822634.601906","823400.791733","824167.614749","828050.750628","828800.679132","829566.859684","830333.512036","831100.520866","817267.139765","818034.291433","818800.757353","830342.179733","Mapping"
"Blocked","m150","ball","2","m150ball.wav","None","733.012348705","117","827284.309752","819567.122482","820333.665386","821100.628458","821867.860512","822634.601906","823400.791733","824167.614749","828050.750628","828800.679132","829566.859684","830333.512036","831100.520866","831867.141991","818034.291433","818800.757353","831109.671493","Mapping"
"Blocked","m150","ball","2","m150priest.wav","space","476.834971807","117","827284.309752","819567.122482","820333.665386","821100.628458","821867.860512","822634.601906","823400.791733","824167.614749","828050.750628","828800.679132","829566.859684","830333.512036","831100.520866","831867.141991","832633.617186","818800.757353","831876.795645","Mapping"
"Blocked","m150","ball","2","m150jolt.wav","None","730.991586461","117","827284.309752","819567.122482","820333.665386","821100.628458","821867.860512","822634.601906","823400.791733","824167.614749","828050.750628","828800.679132","829566.859684","830333.512036","831100.520866","831867.141991","832633.617186","833400.156071","832642.294159","Mapping"
"Blocked","m150","ball","2","m150romp.wav","None","729.601848638","117","827284.309752","834167.037212","820333.665386","821100.628458","821867.860512","822634.601906","823400.791733","824167.614749","828050.750628","828800.679132","829566.859684","830333.512036","831100.520866","831867.141991","832633.617186","833400.156071","833409.153348","Mapping"
"Blocked","m150","ball","2","m150park.wav","None","727.803691698","117","827284.309752","834167.037212","834933.880324","821100.628458","821867.860512","822634.601906","823400.791733","824167.614749","828050.750628","828800.679132","829566.859684","830333.512036","831100.520866","831867.141991","832633.617186","833400.156071","834176.422503","Mapping"
"Blocked","m150","ball","2","m150greet.wav","None","726.307907142","117","827284.309752","834167.037212","834933.880324","835700.427557","821867.860512","822634.601906","823400.791733","824167.614749","828050.750628","828800.679132","829566.859684","830333.512036","831100.520866","831867.141991","832633.617186","833400.156071","834943.449264","Mapping"
"Blocked","m150","ball","2","m150depth.wav","None","725.235072838","117","827284.309752","834167.037212","834933.880324","835700.427557","836467.581698","822634.601906","823400.791733","824167.614749","828050.750628","828800.679132","829566.859684","830333.512036","831100.520866","831867.141991","832633.617186","833400.156071","835709.909001","Mapping"
"Blocked","m150","ball","2","m150priest.wav","None","723.566459958","117","827284.309752","834167.037212","834933.880324","835700.427557","836467.581698","837234.165414","823400.791733","824167.614749","828050.750628","828800.679132","829566.859684","830333.512036","831100.520866","831867.141991","832633.617186","833400.156071","836477.335834","Mapping"
"Blocked","m150","ball","2","m150ball.wav","None","722.877001564","117","827284.309752","834167.037212","834933.880324","835700.427557","836467.581698","837234.165414","838000.776336","824167.614749","828050.750628","828800.679132","829566.859684","830333.512036","831100.520866","831867.141991","832633.617186","833400.156071","837244.142155","Mapping"
"Blocked","m150","ball","2","m150dime.wav","space","390.976690454","117","827284.309752","834167.037212","834933.880324","835700.427557","836467.581698","837234.165414","838000.776336","838768.209353","828050.750628","828800.679132","829566.859684","830333.512036","831100.520866","831867.141991","832633.617186","833400.156071","838010.532018","Mapping"
"Blocked","m150","tile","17","m150gnash.wav","None","719.576258271","117","841883.978379","834167.037212","834933.880324","835700.427557","836467.581698","837234.165414","838000.776336","838768.209353","828050.750628","828800.679132","829566.859684","830333.512036","831100.520866","831867.141991","832633.617186","833400.156071","838778.301416","Mapping"
"Blocked","m150","tile","17","m150reek.wav","None","721.416462795","117","841883.978379","834167.037212","834933.880324","835700.427557","836467.581698","837234.165414","838000.776336","838768.209353","842650.158931","828800.679132","829566.859684","830333.512036","831100.520866","831867.141991","832633.617186","833400.156071","841894.019428","Mapping"
"Blocked","m150","tile","17","m150lash.wav","None","721.893827722","117","841883.978379","834167.037212","834933.880324","835700.427557","836467.581698","837234.165414","838000.776336","838768.209353","842650.158931","843417.333478","829566.859684","830333.512036","831100.520866","831867.141991","832633.617186","833400.156071","842659.097774","Mapping"
"Blocked","m150","tile","17","m150tile.wav","None","719.563891354","117","841883.978379","834167.037212","834933.880324","835700.427557","836467.581698","837234.165414","838000.776336","838768.209353","842650.158931","843417.333478","844166.746279","830333.512036","831100.520866","831867.141991","832633.617186","833400.156071","843426.873665","Mapping"
"Blocked","m150","tile","17","m150dime.wav","space","440.903678944","117","841883.978379","834167.037212","834933.880324","835700.427557","836467.581698","837234.165414","838000.776336","838768.209353","842650.158931","843417.333478","844166.746279","844933.544252","831100.520866","831867.141991","832633.617186","833400.156071","844176.53968","Mapping"
"Blocked","m150","tile","17","m150tile.wav","None","734.192157339","117","841883.978379","834167.037212","834933.880324","835700.427557","836467.581698","837234.165414","838000.776336","838768.209353","842650.158931","843417.333478","844166.746279","844933.544252","845700.271733","831867.141991","832633.617186","833400.156071","844942.898625","Mapping"
"Blocked","m150","tile","17","m150bluff.wav","space","587.93454041","117","841883.978379","834167.037212","834933.880324","835700.427557","836467.581698","837234.165414","838000.776336","838768.209353","842650.158931","843417.333478","844166.746279","844933.544252","845700.271733","846466.452285","832633.617186","833400.156071","845709.471519","Mapping"
"Blocked","m150","tile","17","m150ball.wav","None","734.216582088","117","841883.978379","834167.037212","834933.880324","835700.427557","836467.581698","837234.165414","838000.776336","838768.209353","842650.158931","843417.333478","844166.746279","844933.544252","845700.271733","846466.452285","847233.701034","833400.156071","846475.307651","Mapping"
"Blocked","m150","tile","17","m150tile.wav","None","731.843979622","117","841883.978379","834167.037212","834933.880324","835700.427557","836467.581698","837234.165414","838000.776336","838768.209353","842650.158931","843417.333478","844166.746279","844933.544252","845700.271733","846466.452285","847233.701034","847999.952387","847243.276158","Mapping"
"Blocked","m150","tile","17","m150gnash.wav","space","312.273626565","117","841883.978379","848766.942976","834933.880324","835700.427557","836467.581698","837234.165414","838000.776336","838768.209353","842650.158931","843417.333478","844166.746279","844933.544252","845700.271733","846466.452285","847233.701034","847999.952387","848009.123111","Mapping"
"Blocked","m150","tile","17","m150lash.wav","None","729.750252212","117","841883.978379","848766.942976","849533.693027","835700.427557","836467.581698","837234.165414","838000.776336","838768.209353","842650.158931","843417.333478","844166.746279","844933.544252","845700.271733","846466.452285","847233.701034","847999.952387","848776.456883","Mapping"
"Blocked","m150","tile","17","m150tile.wav","None","728.672471072","117","841883.978379","848766.942976","849533.693027","850300.209651","836467.581698","837234.165414","838000.776336","838768.209353","842650.158931","843417.333478","844166.746279","844933.544252","845700.271733","846466.452285","847233.701034","847999.952387","849543.066878","Mapping"
"Blocked","m150","tile","17","m150depth.wav","space","364.113166404","117","841883.978379","848766.942976","849533.693027","850300.209651","851066.955992","837234.165414","838000.776336","838768.209353","842650.158931","843417.333478","844166.746279","844933.544252","845700.271733","846466.452285","847233.701034","847999.952387","850309.222078","Mapping"
"Blocked","m150","tile","17","m150romp.wav","None","725.908144959","117","841883.978379","848766.942976","849533.693027","850300.209651","851066.955992","851833.600924","838000.776336","838768.209353","842650.158931","843417.333478","844166.746279","844933.544252","845700.271733","846466.452285","847233.701034","847999.952387","851076.656331","Mapping"
"Blocked","m150","tile","17","m150reek.wav","None","725.155615073","117","841883.978379","848766.942976","849533.693027","850300.209651","851066.955992","851833.600924","852600.630777","838768.209353","842650.158931","843417.333478","844166.746279","844933.544252","845700.271733","846466.452285","847233.701034","847999.952387","851843.167081","Mapping"
"Blocked","m150","tile","17","m150romp.wav","None","723.792157019","117","841883.978379","848766.942976","849533.693027","850300.209651","851066.955992","851833.600924","852600.630777","853367.013838","842650.158931","843417.333478","844166.746279","844933.544252","845700.271733","846466.452285","847233.701034","847999.952387","852610.278247","Mapping"
"Blocked","m150","tile","13","m150cave.wav","None","723.558421421","117","856500.476901","848766.942976","849533.693027","850300.209651","851066.955992","851833.600924","852600.630777","853367.013838","842650.158931","843417.333478","844166.746279","844933.544252","845700.271733","846466.452285","847233.701034","847999.952387","853376.160446","Mapping"
"Blocked","m150","tile","13","m150tile.wav","None","722.087061615","117","856500.476901","848766.942976","849533.693027","850300.209651","851066.955992","851833.600924","852600.630777","853367.013838","857267.241174","843417.333478","844166.746279","844933.544252","845700.271733","846466.452285","847233.701034","847999.952387","856510.174148","Mapping"
"Blocked","m150","tile","13","m150lash.wav","space","452.073522843","117","856500.476901","848766.942976","849533.693027","850300.209651","851066.955992","851833.600924","852600.630777","853367.013838","857267.241174","858034.077175","844166.746279","844933.544252","845700.271733","846466.452285","847233.701034","847999.952387","857277.202456","Mapping"
"Blocked","m150","tile","13","m150greet.wav","None","719.080961309","117","856500.476901","848766.942976","849533.693027","850300.209651","851066.955992","851833.600924","852600.630777","853367.013838","857267.241174","858034.077175","858783.730205","844933.544252","845700.271733","846466.452285","847233.701034","847999.952387","858044.029801","Mapping"
"Blocked","m150","tile","13","m150park.wav","None","735.893233505","117","856500.476901","848766.942976","849533.693027","850300.209651","851066.955992","851833.600924","852600.630777","853367.013838","857267.241174","858034.077175","858783.730205","859549.813367","845700.271733","846466.452285","847233.701034","847999.952387","858793.129099","Mapping"
"Blocked","m150","tile","13","m150tile.wav","None","735.448641062","117","856500.476901","848766.942976","849533.693027","850300.209651","851066.955992","851833.600924","852600.630777","853367.013838","857267.241174","858034.077175","858783.730205","859549.813367","860316.36431","846466.452285","847233.701034","847999.952387","859559.216281","Mapping"
"Blocked","m150","tile","13","m150lash.wav","space","379.538792535","117","856500.476901","848766.942976","849533.693027","850300.209651","851066.955992","851833.600924","852600.630777","853367.013838","857267.241174","858034.077175","858783.730205","859549.813367","860316.36431","861083.516596","847233.701034","847999.952387","860325.60769","Mapping"
"Blocked","m150","tile","13","m150depth.wav","None","732.732546108","117","856500.476901","848766.942976","849533.693027","850300.209651","851066.955992","851833.600924","852600.630777","853367.013838","857267.241174","858034.077175","858783.730205","859549.813367","860316.36431","861083.516596","861849.994574","847999.952387","861092.891993","Mapping"
"Blocked","m150","tile","13","m150ball.wav","None","732.062565687","117","856500.476901","848766.942976","849533.693027","850300.209651","851066.955992","851833.600924","852600.630777","853367.013838","857267.241174","858034.077175","858783.730205","859549.813367","860316.36431","861083.516596","861849.994574","862616.745862","861859.308445","Mapping"
"Blocked","m150","tile","13","m150dime.wav","None","730.964997492","117","856500.476901","863383.728721","849533.693027","850300.209651","851066.955992","851833.600924","852600.630777","853367.013838","857267.241174","858034.077175","858783.730205","859549.813367","860316.36431","861083.516596","861849.994574","862616.745862","862626.235653","Mapping"
"Blocked","m150","tile","13","m150dime.wav","space","471.089897619","117","856500.476901","863383.728721","864150.002953","850300.209651","851066.955992","851833.600924","852600.630777","853367.013838","857267.241174","858034.077175","858783.730205","859549.813367","860316.36431","861083.516596","861849.994574","862616.745862","863394.081108","Mapping"
"Blocked","m150","tile","13","m150tile.wav","None","729.139014904","117","856500.476901","863383.728721","864150.002953","864916.747438","851066.955992","851833.600924","852600.630777","853367.013838","857267.241174","858034.077175","858783.730205","859549.813367","860316.36431","861083.516596","861849.994574","862616.745862","864159.017234","Mapping"
"Blocked","m150","tile","13","m150cad.wav","space","586.806054751","117","856500.476901","863383.728721","864150.002953","864916.747438","865683.435036","851833.600924","852600.630777","853367.013838","857267.241174","858034.077175","858783.730205","859549.813367","860316.36431","861083.516596","861849.994574","862616.745862","864926.2935","Mapping"
"Blocked","m150","tile","13","m150tile.wav","None","726.228758576","117","856500.476901","863383.728721","864150.002953","864916.747438","865683.435036","866449.608477","852600.630777","853367.013838","857267.241174","858034.077175","858783.730205","859549.813367","860316.36431","861083.516596","861849.994574","862616.745862","865692.826819","Mapping"
"Blocked","m150","tile","13","m150bluff.wav","space","654.513339803","117","856500.476901","863383.728721","864150.002953","864916.747438","865683.435036","866449.608477","867216.680688","853367.013838","857267.241174","858034.077175","858783.730205","859549.813367","860316.36431","861083.516596","861849.994574","862616.745862","866458.552576","Mapping"
"Blocked","m150","tile","13","m150park.wav","None","724.166876113","117","856500.476901","863383.728721","864150.002953","864916.747438","865683.435036","866449.608477","867216.680688","867983.154955","857267.241174","858034.077175","858783.730205","859549.813367","860316.36431","861083.516596","861849.994574","862616.745862","867226.029496","Mapping"
"Blocked","m150","done","20","m150jaw.wav","None","723.489166412","117","871116.975114","863383.728721","864150.002953","864916.747438","865683.435036","866449.608477","867216.680688","867983.154955","857267.241174","858034.077175","858783.730205","859549.813367","860316.36431","861083.516596","861849.994574","862616.745862","867992.653404","Mapping"
"Blocked","m150","done","20","m150lash.wav","None","721.741095709","117","871116.975114","863383.728721","864150.002953","864916.747438","865683.435036","866449.608477","867216.680688","867983.154955","871883.126604","858034.077175","858783.730205","859549.813367","860316.36431","861083.516596","861849.994574","862616.745862","871126.769751","Mapping"
"Blocked","m150","done","20","m150dime.wav","None","721.777887433","117","871116.975114","863383.728721","864150.002953","864916.747438","865683.435036","866449.608477","867216.680688","867983.154955","871883.126604","872650.416473","858783.730205","859549.813367","860316.36431","861083.516596","861849.994574","862616.745862","871892.417906","Mapping"
"Blocked","m150","done","20","m150dime.wav","space","388.290585368","117","871116.975114","863383.728721","864150.002953","864916.747438","865683.435036","866449.608477","867216.680688","867983.154955","871883.126604","872650.416473","873399.839168","859549.813367","860316.36431","861083.516596","861849.994574","862616.745862","872660.695895","Mapping"
"Blocked","m150","done","20","m150done.wav","None","735.932498646","117","871116.975114","863383.728721","864150.002953","864916.747438","865683.435036","866449.608477","867216.680688","867983.154955","871883.126604","872650.416473","873399.839168","874166.505123","860316.36431","861083.516596","861849.994574","862616.745862","873408.982993","Mapping"
"Blocked","m150","done","20","m150depth.wav","space","505.056079593","117","871116.975114","863383.728721","864150.002953","864916.747438","865683.435036","866449.608477","867216.680688","867983.154955","871883.126604","872650.416473","873399.839168","874166.505123","874933.336796","861083.516596","861849.994574","862616.745862","874175.913911","Mapping"
"Blocked","m150","done","20","m150reek.wav","None","732.9746295","117","871116.975114","863383.728721","864150.002953","864916.747438","865683.435036","866449.608477","867216.680688","867983.154955","871883.126604","872650.416473","873399.839168","874166.505123","874933.336796","875699.854039","861849.994574","862616.745862","874942.8742","Mapping"
"Blocked","m150","done","20","m150done.wav","None","732.248070242","117","871116.975114","863383.728721","864150.002953","864916.747438","865683.435036","866449.608477","867216.680688","867983.154955","871883.126604","872650.416473","873399.839168","874166.505123","874933.336796","875699.854039","876466.58152","862616.745862","875709.32528","Mapping"
"Blocked","m150","done","20","m150greet.wav","space","501.109162287","117","871116.975114","863383.728721","864150.002953","864916.747438","865683.435036","866449.608477","867216.680688","867983.154955","871883.126604","872650.416473","873399.839168","874166.505123","874933.336796","875699.854039","876466.58152","877232.919751","876475.853653","Mapping"
"Blocked","m150","done","20","m150lash.wav","None","731.145246013","117","871116.975114","877999.611986","864150.002953","864916.747438","865683.435036","866449.608477","867216.680688","867983.154955","871883.126604","872650.416473","873399.839168","874166.505123","874933.336796","875699.854039","876466.58152","877232.919751","877241.767388","Mapping"
"Blocked","m150","done","20","m150priest.wav","None","729.795082472","117","871116.975114","877999.611986","878766.27856","864916.747438","865683.435036","866449.608477","867216.680688","867983.154955","871883.126604","872650.416473","873399.839168","874166.505123","874933.336796","875699.854039","876466.58152","877232.919751","878008.761377","Mapping"
"Blocked","m150","done","20","m150done.wav","None","728.803251754","117","871116.975114","877999.611986","878766.27856","879533.252144","865683.435036","866449.608477","867216.680688","867983.154955","871883.126604","872650.416473","873399.839168","874166.505123","874933.336796","875699.854039","876466.58152","877232.919751","878775.326542","Mapping"
"Blocked","m150","done","20","m150depth.wav","space","401.700705173","117","871116.975114","877999.611986","878766.27856","879533.252144","880299.761658","866449.608477","867216.680688","867983.154955","871883.126604","872650.416473","873399.839168","874166.505123","874933.336796","875699.854039","876466.58152","877232.919751","879543.214045","Mapping"
"Blocked","m150","done","20","m150depth.wav","None","726.093031175","117","871116.975114","877999.611986","878766.27856","879533.252144","880299.761658","881066.506143","867216.680688","867983.154955","871883.126604","872650.416473","873399.839168","874166.505123","874933.336796","875699.854039","876466.58152","877232.919751","880308.832827","Mapping"
"Blocked","m150","done","20","m150done.wav","None","724.943521607","117","871116.975114","877999.611986","878766.27856","879533.252144","880299.761658","881066.506143","881833.584537","867983.154955","871883.126604","872650.416473","873399.839168","874166.505123","874933.336796","875699.854039","876466.58152","877232.919751","881075.887724","Mapping"
"Blocked","m150","done","20","m150tile.wav","space","661.418126198","117","871116.975114","877999.611986","878766.27856","879533.252144","880299.761658","881066.506143","881833.584537","882600.120949","871883.126604","872650.416473","873399.839168","874166.505123","874933.336796","875699.854039","876466.58152","877232.919751","881843.412875","Mapping"
"Blocked","m150","done","22","m150reek.wav","None","721.688845253","117","885716.937766","877999.611986","878766.27856","879533.252144","880299.761658","881066.506143","881833.584537","882600.120949","871883.126604","872650.416473","873399.839168","874166.505123","874933.336796","875699.854039","876466.58152","877232.919751","882610.292469","Mapping"
"Blocked","m150","done","22","m150tile.wav","None","722.083969857","117","885716.937766","877999.611986","878766.27856","879533.252144","880299.761658","881066.506143","881833.584537","882600.120949","886483.559819","872650.416473","873399.839168","874166.505123","874933.336796","875699.854039","876466.58152","877232.919751","885726.586164","Mapping"
"Blocked","m150","done","22","m150dime.wav","None","720.990420843","117","885716.937766","877999.611986","878766.27856","879533.252144","880299.761658","881066.506143","881833.584537","882600.120949","886483.559819","887250.070569","873399.839168","874166.505123","874933.336796","875699.854039","876466.58152","877232.919751","886493.316737","Mapping"
"Blocked","m150","done","22","m150done.wav","space","421.123025648","117","885716.937766","877999.611986","878766.27856","879533.252144","880299.761658","881066.506143","881833.584537","882600.120949","886483.559819","887250.070569","888016.848136","874166.505123","874933.336796","875699.854039","876466.58152","877232.919751","887259.655277","Mapping"
"Blocked","m150","done","22","m150priest.wav","space","493.880052178","117","885716.937766","877999.611986","878766.27856","879533.252144","880299.761658","881066.506143","881833.584537","882600.120949","886483.559819","887250.070569","888016.848136","888766.04297","874933.336796","875699.854039","876466.58152","877232.919751","888026.878364","Mapping"
"Blocked","m150","done","22","m150done.wav","None","735.090926581","117","885716.937766","877999.611986","878766.27856","879533.252144","880299.761658","881066.506143","881833.584537","882600.120949","886483.559819","887250.070569","888016.848136","888766.04297","889532.704288","875699.854039","876466.58152","877232.919751","888775.248939","Mapping"
"Blocked","m150","done","22","m150cad.wav","space","523.209858453","117","885716.937766","877999.611986","878766.27856","879533.252144","880299.761658","881066.506143","881833.584537","882600.120949","886483.559819","887250.070569","888016.848136","888766.04297","889532.704288","890299.596249","876466.58152","877232.919751","889541.542649","Mapping"
"Blocked","m150","done","22","m150tile.wav","None","732.867036888","117","885716.937766","877999.611986","878766.27856","879533.252144","880299.761658","881066.506143","881833.584537","882600.120949","886483.559819","887250.070569","888016.848136","888766.04297","889532.704288","890299.596249","891066.30147","877232.919751","890308.65196","Mapping"
"Blocked","m150","done","22","m150cling.wav","None","731.733604451","117","885716.937766","877999.611986","878766.27856","879533.252144","880299.761658","881066.506143","881833.584537","882600.120949","886483.559819","887250.070569","888016.848136","888766.04297","889532.704288","890299.596249","891066.30147","891832.99958","891075.789407","Mapping"
"Blocked","m150","done","22","m150depth.wav","None","730.582858261","117","885716.937766","892599.56289","878766.27856","879533.252144","880299.761658","881066.506143","881833.584537","882600.120949","886483.559819","887250.070569","888016.848136","888766.04297","889532.704288","890299.596249","891066.30147","891832.99958","891842.583979","Mapping"
"Blocked","m150","done","22","m150done.wav","None","730.303983146","117","885716.937766","892599.56289","893366.284496","879533.252144","880299.761658","881066.506143","881833.584537","882600.120949","886483.559819","887250.070569","888016.848136","888766.04297","889532.704288","890299.596249","891066.30147","891832.99958","892608.741652","Mapping"
"Blocked","m150","done","22","m150depth.wav","space","408.993195975","117","885716.937766","892599.56289","893366.284496","894133.070102","880299.761658","881066.506143","881833.584537","882600.120949","886483.559819","887250.070569","888016.848136","888766.04297","889532.704288","890299.596249","891066.30147","891832.99958","893375.688956","Mapping"
"Blocked","m150","done","22","m150cad.wav","None","727.407330472","117","885716.937766","892599.56289","893366.284496","894133.070102","894899.521182","881066.506143","881833.584537","882600.120949","886483.559819","887250.070569","888016.848136","888766.04297","889532.704288","890299.596249","891066.30147","891832.99958","894142.59885","Mapping"
"Blocked","m150","done","22","m150done.wav","None","727.735982568","117","885716.937766","892599.56289","893366.284496","894133.070102","894899.521182","895666.051101","881833.584537","882600.120949","886483.559819","887250.070569","888016.848136","888766.04297","889532.704288","890299.596249","891066.30147","891832.99958","894908.835363","Mapping"
"Blocked","m150","done","22","m150cave.wav","space","533.743731095","117","885716.937766","892599.56289","893366.284496","894133.070102","894899.521182","895666.051101","896432.952338","882600.120949","886483.559819","887250.070569","888016.848136","888766.04297","889532.704288","890299.596249","891066.30147","891832.99958","895674.928109","Mapping"
"Blocked","m150","done","22","m150park.wav","None","726.086847659","117","885716.937766","892599.56289","893366.284496","894133.070102","894899.521182","895666.051101","896432.952338","897199.419495","886483.559819","887250.070569","888016.848136","888766.04297","889532.704288","890299.596249","891066.30147","891832.99958","896442.095236","Mapping"
"Blocked","m150","tile","16","m150park.wav","None","725.828687195","117","900333.456385","892599.56289","893366.284496","894133.070102","894899.521182","895666.051101","896432.952338","897199.419495","886483.559819","887250.070569","888016.848136","888766.04297","889532.704288","890299.596249","891066.30147","891832.99958","897208.199113","Mapping"
"Blocked","m150","tile","16","m150tile.wav","None","721.193548292","117","900333.456385","892599.56289","893366.284496","894133.070102","894899.521182","895666.051101","896432.952338","897199.419495","901099.784104","887250.070569","888016.848136","888766.04297","889532.704288","890299.596249","891066.30147","891832.99958","900343.354286","Mapping"
"Blocked","m150","tile","16","m150cave.wav","space","683.241802326","117","900333.456385","892599.56289","893366.284496","894133.070102","894899.521182","895666.051101","896432.952338","897199.419495","901099.784104","901866.551778","888016.848136","888766.04297","889532.704288","890299.596249","891066.30147","891832.99958","901109.336967","Mapping"
"Blocked","m150","tile","16","m150romp.wav","None","719.230292365","117","900333.456385","892599.56289","893366.284496","894133.070102","894899.521182","895666.051101","896432.952338","897199.419495","901099.784104","901866.551778","902616.514908","888766.04297","889532.704288","890299.596249","891066.30147","891832.99958","901876.427109","Mapping"
"Blocked","m150","tile","16","m150romp.wav","None","735.823050956","117","900333.456385","892599.56289","893366.284496","894133.070102","894899.521182","895666.051101","896432.952338","897199.419495","901099.784104","901866.551778","902616.514908","903382.827787","889532.704288","890299.596249","891066.30147","891832.99958","902625.878557","Mapping"
"Blocked","m150","tile","16","m150cad.wav","None","735.572929087","117","900333.456385","892599.56289","893366.284496","894133.070102","894899.521182","895666.051101","896432.952338","897199.419495","901099.784104","901866.551778","902616.514908","903382.827787","904149.11655","890299.596249","891066.30147","891832.99958","903392.106413","Mapping"
"Blocked","m150","tile","16","m150knife.wav","None","735.40690256","117","900333.456385","892599.56289","893366.284496","894133.070102","894899.521182","895666.051101","896432.952338","897199.419495","901099.784104","901866.551778","902616.514908","903382.827787","904149.11655","904916.036338","891066.30147","891832.99958","904158.380954","Mapping"
"Blocked","m150","tile","16","m150jaw.wav","None","734.159693995","117","900333.456385","892599.56289","893366.284496","894133.070102","894899.521182","895666.051101","896432.952338","897199.419495","901099.784104","901866.551778","902616.514908","903382.827787","904149.11655","904916.036338","905682.764128","891832.99958","904925.438942","Mapping"
"Blocked","m150","tile","16","m150tile.wav","None","733.607508999","117","900333.456385","892599.56289","893366.284496","894133.070102","894899.521182","895666.051101","896432.952338","897199.419495","901099.784104","901866.551778","902616.514908","903382.827787","904149.11655","904916.036338","905682.764128","906449.36423","905692.232587","Mapping"
"Blocked","m150","tile","16","m150depth.wav","space","454.075116315","117","900333.456385","907216.083982","893366.284496","894133.070102","894899.521182","895666.051101","896432.952338","897199.419495","901099.784104","901866.551778","902616.514908","903382.827787","904149.11655","904916.036338","905682.764128","906449.36423","906458.407574","Mapping"
"Blocked","m150","tile","16","m150jolt.wav","None","731.324257795","117","900333.456385","907216.083982","907982.754884","894133.070102","894899.521182","895666.051101","896432.952338","897199.419495","901099.784104","901866.551778","902616.514908","903382.827787","904149.11655","904916.036338","905682.764128","906449.36423","907225.673018","Mapping"
"Blocked","m150","tile","16","m150tile.wav","None","731.152666151","117","900333.456385","907216.083982","907982.754884","908749.441554","894899.521182","895666.051101","896432.952338","897199.419495","901099.784104","901866.551778","902616.514908","903382.827787","904149.11655","904916.036338","905682.764128","906449.36423","907991.888198","Mapping"
"Blocked","m150","tile","16","m150bluff.wav","space","585.633357172","117","900333.456385","907216.083982","907982.754884","908749.441554","909516.016922","895666.051101","896432.952338","897199.419495","901099.784104","901866.551778","902616.514908","903382.827787","904149.11655","904916.036338","905682.764128","906449.36423","908758.863637","Mapping"
"Blocked","m150","tile","16","m150tile.wav","None","728.735233424","117","900333.456385","907216.083982","907982.754884","908749.441554","909516.016922","910282.737601","896432.952338","897199.419495","901099.784104","901866.551778","902616.514908","903382.827787","904149.11655","904916.036338","905682.764128","906449.36423","909525.371604","Mapping"
"Blocked","m150","tile","16","m150reek.wav","space","516.116785002","117","900333.456385","907216.083982","907982.754884","908749.441554","909516.016922","910282.737601","911049.329046","897199.419495","901099.784104","901866.551778","902616.514908","903382.827787","904149.11655","904916.036338","905682.764128","906449.36423","910292.319526","Mapping"
"Blocked","m150","tile","16","m150done.wav","None","726.983761881","117","900333.456385","907216.083982","907982.754884","908749.441554","909516.016922","910282.737601","911049.329046","911816.021281","901099.784104","901866.551778","902616.514908","903382.827787","904149.11655","904916.036338","905682.764128","906449.36423","911058.474417","Mapping"
"Blocked","m150","cave","12","m150lash.wav","None","726.416118094","117","914949.698602","907216.083982","907982.754884","908749.441554","909516.016922","910282.737601","911049.329046","911816.021281","901099.784104","901866.551778","902616.514908","903382.827787","904149.11655","904916.036338","905682.764128","906449.36423","911825.332061","Mapping"
"Blocked","m150","cave","12","m150ball.wav","None","722.139002813","117","914949.698602","907216.083982","907982.754884","908749.441554","909516.016922","910282.737601","911049.329046","911816.021281","915716.615607","901866.551778","902616.514908","903382.827787","904149.11655","904916.036338","905682.764128","906449.36423","914959.35442","Mapping"
"Blocked","m150","cave","12","m150depth.wav","None","720.715255884","117","914949.698602","907216.083982","907982.754884","908749.441554","909516.016922","910282.737601","911049.329046","911816.021281","915716.615607","916482.913336","902616.514908","903382.827787","904149.11655","904916.036338","905682.764128","906449.36423","915726.694993","Mapping"
"Blocked","m150","cave","12","m150knife.wav","None","720.111747854","117","914949.698602","907216.083982","907982.754884","908749.441554","909516.016922","910282.737601","911049.329046","911816.021281","915716.615607","916482.913336","917249.558886","903382.827787","904149.11655","904916.036338","905682.764128","906449.36423","916493.25583","Mapping"
"Blocked","m150","cave","12","m150cad.wav","None","720.214702887","117","914949.698602","907216.083982","907982.754884","908749.441554","909516.016922","910282.737601","911049.329046","911816.021281","915716.615607","916482.913336","917249.558886","918016.365206","904149.11655","904916.036338","905682.764128","906449.36423","917259.053933","Mapping"
"Blocked","m150","cave","12","m150cave.wav","None","719.005213585","117","914949.698602","907216.083982","907982.754884","908749.441554","909516.016922","910282.737601","911049.329046","911816.021281","915716.615607","916482.913336","917249.558886","918016.365206","918765.767495","904916.036338","905682.764128","906449.36423","918026.268673","Mapping"
"Blocked","m150","cave","12","m150priest.wav","space","464.983708109","117","914949.698602","907216.083982","907982.754884","908749.441554","909516.016922","910282.737601","911049.329046","911816.021281","915716.615607","916482.913336","917249.558886","918016.365206","918765.767495","919532.13417","905682.764128","906449.36423","918775.315721","Mapping"
"Blocked","m150","cave","12","m150park.wav","None","735.435964947","117","914949.698602","907216.083982","907982.754884","908749.441554","909516.016922","910282.737601","911049.329046","911816.021281","915716.615607","916482.913336","917249.558886","918016.365206","918765.767495","919532.13417","920299.151966","906449.36423","919541.072086","Mapping"
"Blocked","m150","cave","12","m150cave.wav","None","734.184427944","117","914949.698602","907216.083982","907982.754884","908749.441554","909516.016922","910282.737601","911049.329046","911816.021281","915716.615607","916482.913336","917249.558886","918016.365206","918765.767495","919532.13417","920299.151966","921066.084121","920308.210151","Mapping"
"Blocked","m150","cave","12","m150romp.wav","space","541.077032918","117","914949.698602","921832.533964","907982.754884","908749.441554","909516.016922","910282.737601","911049.329046","911816.021281","915716.615607","916482.913336","917249.558886","918016.365206","918765.767495","919532.13417","920299.151966","921066.084121","921075.238767","Mapping"
"Blocked","m150","cave","12","m150cave.wav","None","731.092686416","117","914949.698602","921832.533964","922599.090471","908749.441554","909516.016922","910282.737601","911049.329046","911816.021281","915716.615607","916482.913336","917249.558886","918016.365206","918765.767495","919532.13417","920299.151966","921066.084121","921842.200293","Mapping"
"Blocked","m150","cave","12","m150dime.wav","space","520.027528866","117","914949.698602","921832.533964","922599.090471","923366.016752","909516.016922","910282.737601","911049.329046","911816.021281","915716.615607","916482.913336","917249.558886","918016.365206","918765.767495","919532.13417","920299.151966","921066.084121","922608.258413","Mapping"
"Blocked","m150","cave","12","m150cad.wav","None","729.53012021","117","914949.698602","921832.533964","922599.090471","923366.016752","924132.155565","910282.737601","911049.329046","911816.021281","915716.615607","916482.913336","917249.558886","918016.365206","918765.767495","919532.13417","920299.151966","921066.084121","923374.848621","Mapping"
"Blocked","m150","cave","12","m150cave.wav","None","729.520844994","117","914949.698602","921832.533964","922599.090471","923366.016752","924132.155565","924899.092048","911049.329046","911816.021281","915716.615607","916482.913336","917249.558886","918016.365206","918765.767495","919532.13417","920299.151966","921066.084121","924140.814297","Mapping"
"Blocked","m150","cave","12","m150reek.wav","space","484.165800211","117","914949.698602","921832.533964","922599.090471","923366.016752","924132.155565","924899.092048","925665.839626","911816.021281","915716.615607","916482.913336","917249.558886","918016.365206","918765.767495","919532.13417","920299.151966","921066.084121","924908.10633","Mapping"
"Blocked","m150","cave","12","m150jolt.wav","None","727.038176497","117","914949.698602","921832.533964","922599.090471","923366.016752","924132.155565","924899.092048","925665.839626","926432.517021","915716.615607","916482.913336","917249.558886","918016.365206","918765.767495","919532.13417","920299.151966","921066.084121","925674.929964","Mapping"
"Blocked","m150","tile","14","m150cad.wav","None","726.108799048","117","929566.002344","921832.533964","922599.090471","923366.016752","924132.155565","924899.092048","925665.839626","926432.517021","915716.615607","916482.913336","917249.558886","918016.365206","918765.767495","919532.13417","920299.151966","921066.084121","926441.893964","Mapping"
"Blocked","m150","tile","14","m150cling.wav","None","722.249687184","117","929566.002344","921832.533964","922599.090471","923366.016752","924132.155565","924899.092048","925665.839626","926432.517021","930332.397154","916482.913336","917249.558886","918016.365206","918765.767495","919532.13417","920299.151966","921066.084121","929576.02577","Mapping"
"Blocked","m150","tile","14","m150tile.wav","None","722.769408952","117","929566.002344","921832.533964","922599.090471","923366.016752","924132.155565","924899.092048","925665.839626","926432.517021","930332.397154","931099.379086","917249.558886","918016.365206","918765.767495","919532.13417","920299.151966","921066.084121","930341.575916","Mapping"
"Blocked","m150","tile","14","m150jaw.wav","space","507.237921585","117","929566.002344","921832.533964","922599.090471","923366.016752","924132.155565","924899.092048","925665.839626","926432.517021","930332.397154","931099.379086","931865.826764","918016.365206","918765.767495","919532.13417","920299.151966","921066.084121","931108.90536","Mapping"
"Blocked","m150","tile","14","m150priest.wav","None","719.885741593","117","929566.002344","921832.533964","922599.090471","923366.016752","924132.155565","924899.092048","925665.839626","926432.517021","930332.397154","931099.379086","931865.826764","932632.918452","918765.767495","919532.13417","920299.151966","921066.084121","931876.042187","Mapping"
"Blocked","m150","tile","14","m150jaw.wav","None","719.23802176","117","929566.002344","921832.533964","922599.090471","923366.016752","924132.155565","924899.092048","925665.839626","926432.517021","930332.397154","931099.379086","931865.826764","932632.918452","933399.367986","919532.13417","920299.151966","921066.084121","932642.825629","Mapping"
"Blocked","m150","tile","14","m150tile.wav","None","719.48752529","117","929566.002344","921832.533964","922599.090471","923366.016752","924132.155565","924899.092048","925665.839626","926432.517021","930332.397154","931099.379086","931865.826764","932632.918452","933399.367986","934165.891722","920299.151966","921066.084121","933408.767499","Mapping"
"Blocked","m150","tile","14","m150cling.wav","space","448.471025564","117","929566.002344","921832.533964","922599.090471","923366.016752","924132.155565","924899.092048","925665.839626","926432.517021","930332.397154","931099.379086","931865.826764","932632.918452","933399.367986","934165.891722","934915.546297","921066.084121","934175.656678","Mapping"
"Blocked","m150","tile","14","m150gnash.wav","None","734.832456976","117","929566.002344","921832.533964","922599.090471","923366.016752","924132.155565","924899.092048","925665.839626","926432.517021","930332.397154","931099.379086","931865.826764","932632.918452","933399.367986","934165.891722","934915.546297","935682.171751","934925.015374","Mapping"
"Blocked","m150","tile","14","m150bluff.wav","None","734.209471033","117","929566.002344","936448.483702","922599.090471","923366.016752","924132.155565","924899.092048","925665.839626","926432.517021","930332.397154","931099.379086","931865.826764","932632.918452","933399.367986","934165.891722","934915.546297","935682.171751","935691.900225","Mapping"
"Blocked","m150","tile","14","m150tile.wav","None","735.597663035","117","929566.002344","936448.483702","937215.554985","923366.016752","924132.155565","924899.092048","925665.839626","926432.517021","930332.397154","931099.379086","931865.826764","932632.918452","933399.367986","934165.891722","934915.546297","935682.171751","936457.238277","Mapping"
"Blocked","m150","tile","14","m150cling.wav","space","479.134609166","117","929566.002344","936448.483702","937215.554985","937982.630596","924132.155565","924899.092048","925665.839626","926432.517021","930332.397154","931099.379086","931865.826764","932632.918452","933399.367986","934165.891722","934915.546297","935682.171751","937224.948932","Mapping"
"Blocked","m150","tile","14","m150bluff.wav","None","731.951263035","117","929566.002344","936448.483702","937215.554985","937982.630596","938748.595963","924899.092048","925665.839626","926432.517021","930332.397154","931099.379086","931865.826764","932632.918452","933399.367986","934165.891722","934915.546297","935682.171751","937992.060408","Mapping"
"Blocked","m150","tile","14","m150tile.wav","None","732.38874448","117","929566.002344","936448.483702","937215.554985","937982.630596","938748.595963","939515.342613","925665.839626","926432.517021","930332.397154","931099.379086","931865.826764","932632.918452","933399.367986","934165.891722","934915.546297","935682.171751","938757.917873","Mapping"
"Blocked","m150","tile","14","m150depth.wav","space","467.82501851","117","929566.002344","936448.483702","937215.554985","937982.630596","938748.595963","939515.342613","940282.295173","926432.517021","930332.397154","931099.379086","931865.826764","932632.918452","933399.367986","934165.891722","934915.546297","935682.171751","939524.186849","Mapping"
"Blocked","m150","tile","14","m150jaw.wav","None","729.875776917","117","929566.002344","936448.483702","937215.554985","937982.630596","938748.595963","939515.342613","940282.295173","941048.845497","930332.397154","931099.379086","931865.826764","932632.918452","933399.367986","934165.891722","934915.546297","935682.171751","940291.857002","Mapping"
"Blocked","m150","cave","9","m150ball.wav","None","730.025417171","117","944182.713887","936448.483702","937215.554985","937982.630596","938748.595963","939515.342613","940282.295173","941048.845497","930332.397154","931099.379086","931865.826764","932632.918452","933399.367986","934165.891722","934915.546297","935682.171751","941057.972628","Mapping"
"Blocked","m150","cave","9","m150cave.wav","None","721.137896937","117","944182.713887","936448.483702","937215.554985","937982.630596","938748.595963","939515.342613","940282.295173","941048.845497","944949.192793","931099.379086","931865.826764","932632.918452","933399.367986","934165.891722","934915.546297","935682.171751","944192.677643","Mapping"
"Blocked","m150","cave","9","m150cad.wav","space","481.291098928","117","944182.713887","936448.483702","937215.554985","937982.630596","938748.595963","939515.342613","940282.295173","941048.845497","944949.192793","945715.365615","931865.826764","932632.918452","933399.367986","934165.891722","934915.546297","935682.171751","944958.645792","Mapping"
"Blocked","m150","cave","9","m150cave.wav","None","720.263552445","117","944182.713887","936448.483702","937215.554985","937982.630596","938748.595963","939515.342613","940282.295173","941048.845497","944949.192793","945715.365615","946465.742421","932632.918452","933399.367986","934165.891722","934915.546297","935682.171751","945724.513769","Mapping"
"Blocked","m150","cave","9","m150lash.wav","space","524.677817302","117","944182.713887","936448.483702","937215.554985","937982.630596","938748.595963","939515.342613","940282.295173","941048.845497","944949.192793","945715.365615","946465.742421","947231.814453","933399.367986","934165.891722","934915.546297","935682.171751","946475.182436","Mapping"
"Blocked","m150","cave","9","m150jolt.wav","None","735.260044807","117","944182.713887","936448.483702","937215.554985","937982.630596","938748.595963","939515.342613","940282.295173","941048.845497","944949.192793","945715.365615","946465.742421","947231.814453","947998.896557","934165.891722","934915.546297","935682.171751","947240.701974","Mapping"
"Blocked","m150","cave","9","m150ball.wav","None","733.56236954","117","944182.713887","936448.483702","937215.554985","937982.630596","938748.595963","939515.342613","940282.295173","941048.845497","944949.192793","945715.365615","946465.742421","947231.814453","947998.896557","948765.200161","934915.546297","935682.171751","948008.532279","Mapping"
"Blocked","m150","cave","9","m150bluff.wav","None","733.893185912","117","944182.713887","936448.483702","937215.554985","937982.630596","938748.595963","939515.342613","940282.295173","941048.845497","944949.192793","945715.365615","946465.742421","947231.814453","947998.896557","948765.200161","949532.131697","935682.171751","948774.331001","Mapping"
"Blocked","m150","cave","9","m150cave.wav","None","732.702247042","117","944182.713887","936448.483702","937215.554985","937982.630596","938748.595963","939515.342613","940282.295173","941048.845497","944949.192793","945715.365615","946465.742421","947231.814453","947998.896557","948765.200161","949532.131697","950298.408712","949541.742376","Mapping"
"Blocked","m150","cave","9","m150gnash.wav","space","460.264782945","117","944182.713887","951065.251824","937215.554985","937982.630596","938748.595963","939515.342613","940282.295173","941048.845497","944949.192793","945715.365615","946465.742421","947231.814453","947998.896557","948765.200161","949532.131697","950298.408712","950307.558102","Mapping"
"Blocked","m150","cave","9","m150lash.wav","None","731.368160574","117","944182.713887","951065.251824","951832.108849","937982.630596","938748.595963","939515.342613","940282.295173","941048.845497","944949.192793","945715.365615","946465.742421","947231.814453","947998.896557","948765.200161","949532.131697","950298.408712","951074.813653","Mapping"
"Blocked","m150","cave","9","m150cave.wav","None","730.221742822","117","944182.713887","951065.251824","951832.108849","952598.407506","938748.595963","939515.342613","940282.295173","941048.845497","944949.192793","945715.365615","946465.742421","947231.814453","947998.896557","948765.200161","949532.131697","950298.408712","951841.982326","Mapping"
"Blocked","m150","cave","9","m150park.wav","None","730.755686585","117","944182.713887","951065.251824","951832.108849","952598.407506","953365.428393","939515.342613","940282.295173","941048.845497","944949.192793","945715.365615","946465.742421","947231.814453","947998.896557","948765.200161","949532.131697","950298.408712","952607.691696","Mapping"
"Blocked","m150","cave","9","m150priest.wav","space","0.041120161768","117","944182.713887","951065.251824","951832.108849","952598.407506","953365.428393","954132.07889","940282.295173","941048.845497","944949.192793","945715.365615","946465.742421","947231.814453","947998.896557","948765.200161","949532.131697","950298.408712","953375.099052","Mapping"
"Blocked","m150","cave","9","m150cling.wav","None","728.395141894","117","944182.713887","951065.251824","951832.108849","952598.407506","953365.428393","954132.07889","954898.395788","941048.845497","944949.192793","945715.365615","946465.742421","947231.814453","947998.896557","948765.200161","949532.131697","950298.408712","954141.649994","Mapping"
"Blocked","m150","cave","9","m150ball.wav","None","729.376460658","117","944182.713887","951065.251824","951832.108849","952598.407506","953365.428393","954132.07889","954898.395788","955665.374319","944949.192793","945715.365615","946465.742421","947231.814453","947998.896557","948765.200161","949532.131697","950298.408712","954907.500967","Mapping"
"Blocked","m150","tile","15","m150depth.wav","None","728.537980351","117","958798.952394","951065.251824","951832.108849","952598.407506","953365.428393","954132.07889","954898.395788","955665.374319","944949.192793","945715.365615","946465.742421","947231.814453","947998.896557","948765.200161","949532.131697","950298.408712","955674.646761","Mapping"
"Blocked","m150","tile","15","m150priest.wav","None","722.184760612","117","958798.952394","951065.251824","951832.108849","952598.407506","953365.428393","954132.07889","954898.395788","955665.374319","959565.788396","945715.365615","946465.742421","947231.814453","947998.896557","948765.200161","949532.131697","950298.408712","958808.443422","Mapping"
"Blocked","m150","tile","15","m150tile.wav","None","721.637213195","117","958798.952394","951065.251824","951832.108849","952598.407506","953365.428393","954132.07889","954898.395788","955665.374319","959565.788396","960332.356961","946465.742421","947231.814453","947998.896557","948765.200161","949532.131697","950298.408712","959575.276023","Mapping"
"Blocked","m150","tile","15","m150cad.wav","space","393.521193764","117","958798.952394","951065.251824","951832.108849","952598.407506","953365.428393","954132.07889","954898.395788","955665.374319","959565.788396","960332.356961","961099.062182","947231.814453","947998.896557","948765.200161","949532.131697","950298.408712","960342.196429","Mapping"
"Blocked","m150","tile","15","m150bluff.wav","None","720.545828401","117","958798.952394","951065.251824","951832.108849","952598.407506","953365.428393","954132.07889","954898.395788","955665.374319","959565.788396","960332.356961","961099.062182","961865.725664","947998.896557","948765.200161","949532.131697","950298.408712","961108.391203","Mapping"
"Blocked","m150","tile","15","m150depth.wav","None","719.854824187","117","958798.952394","951065.251824","951832.108849","952598.407506","953365.428393","954132.07889","954898.395788","955665.374319","959565.788396","960332.356961","961099.062182","961865.725664","962632.318964","948765.200161","949532.131697","950298.408712","961875.445481","Mapping"
"Blocked","m150","tile","15","m150cling.wav","None","719.462173001","117","958798.952394","951065.251824","951832.108849","952598.407506","953365.428393","954132.07889","954898.395788","955665.374319","959565.788396","960332.356961","961099.062182","961865.725664","962632.318964","963398.923703","949532.131697","950298.408712","962642.159977","Mapping"
"Blocked","m150","tile","15","m150done.wav","None","719.391062914","117","958798.952394","951065.251824","951832.108849","952598.407506","953365.428393","954132.07889","954898.395788","955665.374319","959565.788396","960332.356961","961099.062182","961865.725664","962632.318964","963398.923703","964165.407864","950298.408712","963408.54613","Mapping"
"Blocked","m150","tile","15","m150dime.wav","None","718.939977873","117","958798.952394","951065.251824","951832.108849","952598.407506","953365.428393","954132.07889","954898.395788","955665.374319","959565.788396","960332.356961","961099.062182","961865.725664","962632.318964","963398.923703","964165.407864","964915.041415","964175.317205","Mapping"
"Blocked","m150","tile","15","m150tile.wav","None","736.485920381","117","958798.952394","965681.362333","951832.108849","952598.407506","953365.428393","954132.07889","954898.395788","955665.374319","959565.788396","960332.356961","961099.062182","961865.725664","962632.318964","963398.923703","964165.407864","964915.041415","964924.154633","Mapping"
"Blocked","m150","tile","15","m150priest.wav","space","397.222935921","117","958798.952394","965681.362333","966448.100326","952598.407506","953365.428393","954132.07889","954898.395788","955665.374319","959565.788396","960332.356961","961099.062182","961865.725664","962632.318964","963398.923703","964165.407864","964915.041415","965690.414952","Mapping"
"Blocked","m150","tile","15","m150dime.wav","None","734.864920261","117","958798.952394","965681.362333","966448.100326","967215.042065","953365.428393","954132.07889","954898.395788","955665.374319","959565.788396","960332.356961","961099.062182","961865.725664","962632.318964","963398.923703","964165.407864","964915.041415","966457.313406","Mapping"
"Blocked","m150","tile","15","m150tile.wav","None","733.466834761","117","958798.952394","965681.362333","966448.100326","967215.042065","967981.501801","954132.07889","954898.395788","955665.374319","959565.788396","960332.356961","961099.062182","961865.725664","962632.318964","963398.923703","964165.407864","964915.041415","967225.08466","Mapping"
"Blocked","m150","tile","15","m150dime.wav","space","393.139981956","117","958798.952394","965681.362333","966448.100326","967215.042065","967981.501801","968748.488989","954898.395788","955665.374319","959565.788396","960332.356961","961099.062182","961865.725664","962632.318964","963398.923703","964165.407864","964915.041415","967990.452393","Mapping"
"Blocked","m150","tile","15","m150tile.wav","None","732.116671163","117","958798.952394","965681.362333","966448.100326","967215.042065","967981.501801","968748.488989","969515.108568","955665.374319","959565.788396","960332.356961","961099.062182","961865.725664","962632.318964","963398.923703","964165.407864","964915.041415","968757.923129","Mapping"
"Blocked","m150","tile","15","m150jaw.wav","space","354.986036138","117","958798.952394","965681.362333","966448.100326","967215.042065","967981.501801","968748.488989","969515.108568","970281.818735","959565.788396","960332.356961","961099.062182","961865.725664","962632.318964","963398.923703","964165.407864","964915.041415","969524.559713","Mapping"
"Blocked","m150","tile","18","m150lash.wav","None","730.382822512","117","973415.196775","965681.362333","966448.100326","967215.042065","967981.501801","968748.488989","969515.108568","970281.818735","959565.788396","960332.356961","961099.062182","961865.725664","962632.318964","963398.923703","964165.407864","964915.041415","970291.349956","Mapping"
"Blocked","m150","tile","18","m150tile.wav","None","723.217711493","117","973415.196775","965681.362333","966448.100326","967215.042065","967981.501801","968748.488989","969515.108568","970281.818735","974182.266512","960332.356961","961099.062182","961865.725664","962632.318964","963398.923703","964165.407864","964915.041415","973424.221878","Mapping"
"Blocked","m150","tile","18","m150cad.wav","space","583.362163801","117","973415.196775","965681.362333","966448.100326","967215.042065","967981.501801","968748.488989","969515.108568","970281.818735","974182.266512","974948.7482","961099.062182","961865.725664","962632.318964","963398.923703","964165.407864","964915.041415","974192.141844","Mapping"
"Blocked","m150","tile","18","m150cling.wav","None","720.74802831","117","973415.196775","965681.362333","966448.100326","967215.042065","967981.501801","968748.488989","969515.108568","970281.818735","974182.266512","974948.7482","975715.60368","961865.725664","962632.318964","963398.923703","964165.407864","964915.041415","974958.277875","Mapping"
"Blocked","m150","tile","18","m150done.wav","None","719.575330731","117","973415.196775","965681.362333","966448.100326","967215.042065","967981.501801","968748.488989","969515.108568","970281.818735","974182.266512","974948.7482","975715.60368","976481.558225","962632.318964","963398.923703","964165.407864","964915.041415","975725.915874","Mapping"
"Blocked","m150","tile","18","m150tile.wav","None","721.134805179","117","973415.196775","965681.362333","966448.100326","967215.042065","967981.501801","968748.488989","969515.108568","970281.818735","974182.266512","974948.7482","975715.60368","976481.558225","977248.664445","963398.923703","964165.407864","964915.041415","976490.743171","Mapping"
"Blocked","m150","tile","18","m150priest.wav","space","453.087304952","117","973415.196775","965681.362333","966448.100326","967215.042065","967981.501801","968748.488989","969515.108568","970281.818735","974182.266512","974948.7482","975715.60368","976481.558225","977248.664445","977997.760961","964165.407864","964915.041415","977258.348398","Mapping"
"Blocked","m150","tile","18","m150tile.wav","None","736.987710057","117","973415.196775","965681.362333","966448.100326","967215.042065","967981.501801","968748.488989","969515.108568","970281.818735","974182.266512","974948.7482","975715.60368","976481.558225","977248.664445","977997.760961","978764.612421","964915.041415","978006.483073","Mapping"
"Blocked","m150","tile","18","m150jolt.wav","space","481.667673041","117","973415.196775","965681.362333","966448.100326","967215.042065","967981.501801","968748.488989","969515.108568","970281.818735","974182.266512","974948.7482","975715.60368","976481.558225","977248.664445","977997.760961","978764.612421","979531.343921","978773.758102","Mapping"
"Blocked","m150","tile","18","m150lash.wav","None","734.920262417","117","973415.196775","980298.268656","966448.100326","967215.042065","967981.501801","968748.488989","969515.108568","970281.818735","974182.266512","974948.7482","975715.60368","976481.558225","977248.664445","977997.760961","978764.612421","979531.343921","979540.574625","Mapping"
"Blocked","m150","tile","18","m150jaw.wav","None","734.288001317","117","973415.196775","980298.268656","981064.920389","967215.042065","967981.501801","968748.488989","969515.108568","970281.818735","974182.266512","974948.7482","975715.60368","976481.558225","977248.664445","977997.760961","978764.612421","979531.343921","980307.611899","Mapping"
"Blocked","m150","tile","18","m150priest.wav","None","733.826095122","117","973415.196775","980298.268656","981064.920389","981831.199568","967981.501801","968748.488989","969515.108568","970281.818735","974182.266512","974948.7482","975715.60368","976481.558225","977248.664445","977997.760961","978764.612421","979531.343921","981074.442026","Mapping"
"Blocked","m150","tile","18","m150knife.wav","None","734.445061767","117","973415.196775","980298.268656","981064.920389","981831.199568","982598.601976","968748.488989","969515.108568","970281.818735","974182.266512","974948.7482","975715.60368","976481.558225","977248.664445","977997.760961","978764.612421","979531.343921","981840.260844","Mapping"
"Blocked","m150","tile","18","m150done.wav","None","732.63979383","117","973415.196775","980298.268656","981064.920389","981831.199568","982598.601976","983364.835397","969515.108568","970281.818735","974182.266512","974948.7482","975715.60368","976481.558225","977248.664445","977997.760961","978764.612421","979531.343921","982608.381155","Mapping"
"Blocked","m150","tile","18","m150tile.wav","None","733.302354056","117","973415.196775","980298.268656","981064.920389","981831.199568","982598.601976","983364.835397","984131.61853","970281.818735","974182.266512","974948.7482","975715.60368","976481.558225","977248.664445","977997.760961","978764.612421","979531.343921","983374.297672","Mapping"
"Blocked","m150","tile","18","m150cling.wav","space","458.467862743","117","973415.196775","980298.268656","981064.920389","981831.199568","982598.601976","983364.835397","984131.61853","984898.191424","974182.266512","974948.7482","975715.60368","976481.558225","977248.664445","977997.760961","978764.612421","979531.343921","984140.880151","Mapping"
"Blocked","m150","done","21","m150park.wav","None","733.020387241","117","988032.032298","980298.268656","981064.920389","981831.199568","982598.601976","983364.835397","984131.61853","984898.191424","974182.266512","974948.7482","975715.60368","976481.558225","977248.664445","977997.760961","978764.612421","979531.343921","984907.243425","Mapping"
"Blocked","m150","done","21","m150cad.wav","None","722.420969687","117","988032.032298","980298.268656","981064.920389","981831.199568","982598.601976","983364.835397","984131.61853","984898.191424","988798.092272","974948.7482","975715.60368","976481.558225","977248.664445","977997.760961","978764.612421","979531.343921","988041.911649","Mapping"
"Blocked","m150","done","21","m150cling.wav","None","723.711153434","117","988032.032298","980298.268656","981064.920389","981831.199568","982598.601976","983364.835397","984131.61853","984898.191424","988798.092272","989565.2291","975715.60368","976481.558225","977248.664445","977997.760961","978764.612421","979531.343921","988807.043791","Mapping"
"Blocked","m150","done","21","m150done.wav","None","722.137456993","117","988032.032298","980298.268656","981064.920389","981831.199568","982598.601976","983364.835397","984131.61853","984898.191424","988798.092272","989565.2291","990331.881451","976481.558225","977248.664445","977997.760961","978764.612421","979531.343921","989575.244487","Mapping"
"Blocked","m150","done","21","m150jaw.wav","space","433.519054204","117","988032.032298","980298.268656","981064.920389","981831.199568","982598.601976","983364.835397","984131.61853","984898.191424","988798.092272","989565.2291","990331.881451","991098.521746","977248.664445","977997.760961","978764.612421","979531.343921","990341.736687","Mapping"
"Blocked","m150","done","21","m150done.wav","None","720.363415719","117","988032.032298","980298.268656","981064.920389","981831.199568","982598.601976","983364.835397","984131.61853","984898.191424","988798.092272","989565.2291","990331.881451","991098.521746","991865.227894","977997.760961","978764.612421","979531.343921","991108.66575","Mapping"
"Blocked","m150","done","21","m150jolt.wav","space","363.92116925","117","988032.032298","980298.268656","981064.920389","981831.199568","982598.601976","983364.835397","984131.61853","984898.191424","988798.092272","989565.2291","990331.881451","991098.521746","991865.227894","992631.755958","978764.612421","979531.343921","991875.317483","Mapping"
"Blocked","m150","done","21","m150jolt.wav","None","718.985117273","117","988032.032298","980298.268656","981064.920389","981831.199568","982598.601976","983364.835397","984131.61853","984898.191424","988798.092272","989565.2291","990331.881451","991098.521746","991865.227894","992631.755958","993381.384253","979531.343921","992641.542556","Mapping"
"Blocked","m150","done","21","m150done.wav","None","735.996497679","117","988032.032298","980298.268656","981064.920389","981831.199568","982598.601976","983364.835397","984131.61853","984898.191424","988798.092272","989565.2291","990331.881451","991098.521746","991865.227894","992631.755958","993381.384253","994148.17697","993390.810355","Mapping"
"Blocked","m150","done","21","m150lash.wav","space","553.703705431","117","988032.032298","994914.679063","981064.920389","981831.199568","982598.601976","983364.835397","984131.61853","984898.191424","988798.092272","989565.2291","990331.881451","991098.521746","991865.227894","992631.755958","993381.384253","994148.17697","994157.507846","Mapping"
"Blocked","m150","done","21","m150bluff.wav","None","734.332831576","117","988032.032298","994914.679063","995681.240827","981831.199568","982598.601976","983364.835397","984131.61853","984898.191424","988798.092272","989565.2291","990331.881451","991098.521746","991865.227894","992631.755958","993381.384253","994148.17697","994924.299635","Mapping"
"Blocked","m150","done","21","m150dime.wav","None","734.817307442","117","988032.032298","994914.679063","995681.240827","996448.002936","982598.601976","983364.835397","984131.61853","984898.191424","988798.092272","989565.2291","990331.881451","991098.521746","991865.227894","992631.755958","993381.384253","994148.17697","995690.724435","Mapping"
"Blocked","m150","done","21","m150knife.wav","space","389.854079054","117","988032.032298","994914.679063","995681.240827","996448.002936","997214.899845","983364.835397","984131.61853","984898.191424","988798.092272","989565.2291","990331.881451","991098.521746","991865.227894","992631.755958","993381.384253","994148.17697","996457.323609","Mapping"
"Blocked","m150","done","21","m150done.wav","None","733.185486286","117","988032.032298","994914.679063","995681.240827","996448.002936","997214.899845","997981.454807","984131.61853","984898.191424","988798.092272","989565.2291","990331.881451","991098.521746","991865.227894","992631.755958","993381.384253","994148.17697","997224.024501","Mapping"
"Blocked","m150","done","21","m150knife.wav","space","472.310517216","117","988032.032298","994914.679063","995681.240827","996448.002936","997214.899845","997981.454807","998747.951953","984898.191424","988798.092272","989565.2291","990331.881451","991098.521746","991865.227894","992631.755958","993381.384253","994148.17697","997990.815672","Mapping"
"Blocked","m150","done","21","m150cad.wav","None","725.159943511","117","988032.032298","994914.679063","995681.240827","996448.002936","997214.899845","997981.454807","998747.951953","999514.41911","988798.092272","989565.2291","990331.881451","991098.521746","991865.227894","992631.755958","993381.384253","994148.17697","998763.733129","Mapping"
"Blocked","m150","ball","1","m150priest.wav","None","732.261983037","117","1002648.37407","994914.679063","995681.240827","996448.002936","997214.899845","997981.454807","998747.951953","999514.41911","988798.092272","989565.2291","990331.881451","991098.521746","991865.227894","992631.755958","993381.384253","994148.17697","999523.204602","Mapping"
"Blocked","m150","ball","1","m150ball.wav","None","721.581252641","117","1002648.37407","994914.679063","995681.240827","996448.002936","997214.899845","997981.454807","998747.951953","999514.41911","1003414.47702","989565.2291","990331.881451","991098.521746","991865.227894","992631.755958","993381.384253","994148.17697","1002658.34463","Mapping"
"Blocked","m150","ball","1","m150jaw.wav","space","559.323254914","117","1002648.37407","994914.679063","995681.240827","996448.002936","997214.899845","997981.454807","998747.951953","999514.41911","1003414.47702","1004181.62034","990331.881451","991098.521746","991865.227894","992631.755958","993381.384253","994148.17697","1003423.73122","Mapping"
"Blocked","m150","ball","1","m150ball.wav","None","719.803810469","117","1002648.37407","994914.679063","995681.240827","996448.002936","997214.899845","997981.454807","998747.951953","999514.41911","1003414.47702","1004181.62034","1004947.86582","991098.521746","991865.227894","992631.755958","993381.384253","994148.17697","1004191.69416","Mapping"
"Blocked","m150","ball","1","m150cling.wav","space","418.306449079","117","1002648.37407","994914.679063","995681.240827","996448.002936","997214.899845","997981.454807","998747.951953","999514.41911","1003414.47702","1004181.62034","1004947.86582","1005714.88547","991865.227894","992631.755958","993381.384253","994148.17697","1004956.71531","Mapping"
"Blocked","m150","ball","1","m150cling.wav","None","719.910475542","117","1002648.37407","994914.679063","995681.240827","996448.002936","997214.899845","997981.454807","998747.951953","999514.41911","1003414.47702","1004181.62034","1004947.86582","1005714.88547","1006481.109","992631.755958","993381.384253","994148.17697","1005725.55321","Mapping"
"Blocked","m150","ball","1","m150knife.wav","None","722.122616658","117","1002648.37407","994914.679063","995681.240827","996448.002936","997214.899845","997981.454807","998747.951953","999514.41911","1003414.47702","1004181.62034","1004947.86582","1005714.88547","1006481.109","1007248.25603","993381.384253","994148.17697","1006489.82832","Mapping"
"Blocked","m150","ball","1","m150jolt.wav","None","720.332189056","117","1002648.37407","994914.679063","995681.240827","996448.002936","997214.899845","997981.454807","998747.951953","999514.41911","1003414.47702","1004181.62034","1004947.86582","1005714.88547","1006481.109","1007248.25603","1008015.22745","994148.17697","1007258.07911","Mapping"
"Blocked","m150","ball","1","m150done.wav","None","720.188423118","117","1002648.37407","994914.679063","995681.240827","996448.002936","997214.899845","997981.454807","998747.951953","999514.41911","1003414.47702","1004181.62034","1004947.86582","1005714.88547","1006481.109","1007248.25603","1008015.22745","1008781.24723","1008024.94757","Mapping"
"Blocked","m150","ball","1","m150ball.wav","None","721.261875762","117","1002648.37407","1009548.24987","995681.240827","996448.002936","997214.899845","997981.454807","998747.951953","999514.41911","1003414.47702","1004181.62034","1004947.86582","1005714.88547","1006481.109","1007248.25603","1008015.22745","1008781.24723","1008790.29799","Mapping"
"Blocked","m150","ball","1","m150done.wav","space","488.752707955","117","1002648.37407","1009548.24987","1010297.89084","996448.002936","997214.899845","997981.454807","998747.951953","999514.41911","1003414.47702","1004181.62034","1004947.86582","1005714.88547","1006481.109","1007248.25603","1008015.22745","1008781.24723","1009558.23063","Mapping"
"Blocked","m150","ball","1","m150gnash.wav","None","736.885991762","117","1002648.37407","1009548.24987","1010297.89084","1011064.25412","997214.899845","997981.454807","998747.951953","999514.41911","1003414.47702","1004181.62034","1004947.86582","1005714.88547","1006481.109","1007248.25603","1008015.22745","1008781.24723","1010306.57431","Mapping"
"Blocked","m150","ball","1","m150ball.wav","None","737.036250357","117","1002648.37407","1009548.24987","1010297.89084","1011064.25412","1011831.04653","997981.454807","998747.951953","999514.41911","1003414.47702","1004181.62034","1004947.86582","1005714.88547","1006481.109","1007248.25603","1008015.22745","1008781.24723","1011073.02199","Mapping"
"Blocked","m150","ball","1","m150romp.wav","space","479.116367933","117","1002648.37407","1009548.24987","1010297.89084","1011064.25412","1011831.04653","1012597.67569","998747.951953","999514.41911","1003414.47702","1004181.62034","1004947.86582","1005714.88547","1006481.109","1007248.25603","1008015.22745","1008781.24723","1011839.82738","Mapping"
"Blocked","m150","ball","1","m150romp.wav","None","735.217687965","117","1002648.37407","1009548.24987","1010297.89084","1011064.25412","1011831.04653","1012597.67569","1013364.29187","999514.41911","1003414.47702","1004181.62034","1004947.86582","1005714.88547","1006481.109","1007248.25603","1008015.22745","1008781.24723","1012606.81395","Mapping"
"Blocked","m150","ball","1","m150gnash.wav","None","734.821635881","117","1002648.37407","1009548.24987","1010297.89084","1011064.25412","1011831.04653","1012597.67569","1013364.29187","1014130.99678","1003414.47702","1004181.62034","1004947.86582","1005714.88547","1006481.109","1007248.25603","1008015.22745","1008781.24723","1013373.7427","Mapping"
"Blocked","m150","ball","5","m150knife.wav","None","735.009304597","117","1017264.82127","1009548.24987","1010297.89084","1011064.25412","1011831.04653","1012597.67569","1013364.29187","1014130.99678","1003414.47702","1004181.62034","1004947.86582","1005714.88547","1006481.109","1007248.25603","1008015.22745","1008781.24723","1014140.35796","Mapping"
"Blocked","m150","ball","5","m150priest.wav","None","722.232991771","117","1017264.82127","1009548.24987","1010297.89084","1011064.25412","1011831.04653","1012597.67569","1013364.29187","1014130.99678","1018031.58616","1004181.62034","1004947.86582","1005714.88547","1006481.109","1007248.25603","1008015.22745","1008781.24723","1017274.74885","Mapping"
"Blocked","m150","ball","5","m150ball.wav","None","721.494065539","117","1017264.82127","1009548.24987","1010297.89084","1011064.25412","1011831.04653","1012597.67569","1013364.29187","1014130.99678","1018031.58616","1018797.85359","1004947.86582","1005714.88547","1006481.109","1007248.25603","1008015.22745","1008781.24723","1018042.00193","Mapping"
"Blocked","m150","ball","5","m150done.wav","space","383.179627417","117","1017264.82127","1009548.24987","1010297.89084","1011064.25412","1011831.04653","1012597.67569","1013364.29187","1014130.99678","1018031.58616","1018797.85359","1019564.55912","1005714.88547","1006481.109","1007248.25603","1008015.22745","1008781.24723","1018807.63802","Mapping"
"Blocked","m150","ball","5","m150dime.wav","None","721.477060986","117","1017264.82127","1009548.24987","1010297.89084","1011064.25412","1011831.04653","1012597.67569","1013364.29187","1014130.99678","1018031.58616","1018797.85359","1019564.55912","1020331.51694","1006481.109","1007248.25603","1008015.22745","1008781.24723","1019573.6946","Mapping"
"Blocked","m150","ball","5","m150ball.wav","None","720.619411906","117","1017264.82127","1009548.24987","1010297.89084","1011064.25412","1011831.04653","1012597.67569","1013364.29187","1014130.99678","1018031.58616","1018797.85359","1019564.55912","1020331.51694","1021098.02398","1007248.25603","1008015.22745","1008781.24723","1020341.208","Mapping"
"Blocked","m150","ball","5","m150cad.wav","space","498.952672526","117","1017264.82127","1009548.24987","1010297.89084","1011064.25412","1011831.04653","1012597.67569","1013364.29187","1014130.99678","1018031.58616","1018797.85359","1019564.55912","1020331.51694","1021098.02398","1021864.6046","1008015.22745","1008781.24723","1021107.84798","Mapping"
"Blocked","m150","ball","5","m150ball.wav","None","719.385806995","117","1017264.82127","1009548.24987","1010297.89084","1011064.25412","1011831.04653","1012597.67569","1013364.29187","1014130.99678","1018031.58616","1018797.85359","1019564.55912","1020331.51694","1021098.02398","1021864.6046","1022631.42267","1008781.24723","1021874.40233","Mapping"
"Blocked","m150","ball","5","m150cling.wav","space","469.592876383","117","1017264.82127","1009548.24987","1010297.89084","1011064.25412","1011831.04653","1012597.67569","1013364.29187","1014130.99678","1018031.58616","1018797.85359","1019564.55912","1020331.51694","1021098.02398","1021864.6046","1022631.42267","1023380.95481","1022641.22442","Mapping"
"Blocked","m150","ball","5","m150depth.wav","None","740.962762153","117","1017264.82127","1024147.1536","1010297.89084","1011064.25412","1011831.04653","1012597.67569","1013364.29187","1014130.99678","1018031.58616","1018797.85359","1019564.55912","1020331.51694","1021098.02398","1021864.6046","1022631.42267","1023380.95481","1023384.76662","Mapping"
"Blocked","m150","ball","5","m150priest.wav","None","736.323294754","117","1017264.82127","1024147.1536","1024914.04247","1011064.25412","1011831.04653","1012597.67569","1013364.29187","1014130.99678","1018031.58616","1018797.85359","1019564.55912","1020331.51694","1021098.02398","1021864.6046","1022631.42267","1023380.95481","1024156.36916","Mapping"
"Blocked","m150","ball","5","m150reek.wav","None","735.619923566","117","1017264.82127","1024147.1536","1024914.04247","1025681.10695","1011831.04653","1012597.67569","1013364.29187","1014130.99678","1018031.58616","1018797.85359","1019564.55912","1020331.51694","1021098.02398","1021864.6046","1022631.42267","1023380.95481","1024923.64202","Mapping"
"Blocked","m150","ball","5","m150ball.wav","None","735.485123645","117","1017264.82127","1024147.1536","1024914.04247","1025681.10695","1026447.631","1012597.67569","1013364.29187","1014130.99678","1018031.58616","1018797.85359","1019564.55912","1020331.51694","1021098.02398","1021864.6046","1022631.42267","1023380.95481","1025690.68022","Mapping"
"Blocked","m150","ball","5","m150cling.wav","None","736.205499386","117","1017264.82127","1024147.1536","1024914.04247","1025681.10695","1026447.631","1027214.79442","1013364.29187","1014130.99678","1018031.58616","1018797.85359","1019564.55912","1020331.51694","1021098.02398","1021864.6046","1022631.42267","1023380.95481","1026456.75937","Mapping"
"Blocked","m150","ball","5","m150cling.wav","None","735.638783197","117","1017264.82127","1024147.1536","1024914.04247","1025681.10695","1026447.631","1027214.79442","1027981.19417","1014130.99678","1018031.58616","1018797.85359","1019564.55912","1020331.51694","1021098.02398","1021864.6046","1022631.42267","1023380.95481","1027224.09963","Mapping"
"Blocked","m150","ball","5","m150depth.wav","None","735.447713523","117","1017264.82127","1024147.1536","1024914.04247","1025681.10695","1026447.631","1027214.79442","1027981.19417","1028764.12454","1018031.58616","1018797.85359","1019564.55912","1020331.51694","1021098.02398","1021864.6046","1022631.42267","1023380.95481","1027990.98634","Mapping"
"Blocked","m150","done","24","m150jaw.wav","None","720.431743131","117","1031881.2796","1024147.1536","1024914.04247","1025681.10695","1026447.631","1027214.79442","1027981.19417","1028764.12454","1018031.58616","1018797.85359","1019564.55912","1020331.51694","1021098.02398","1021864.6046","1022631.42267","1023380.95481","1028773.26002","Mapping"
"Blocked","m150","done","24","m150jolt.wav","None","721.473041689","117","1031881.2796","1024147.1536","1024914.04247","1025681.10695","1026447.631","1027214.79442","1027981.19417","1028764.12454","1032647.27248","1018797.85359","1019564.55912","1020331.51694","1021098.02398","1021864.6046","1022631.42267","1023380.95481","1031891.13731","Mapping"
"Blocked","m150","done","24","m150priest.wav","None","722.908846452","117","1031881.2796","1024147.1536","1024914.04247","1025681.10695","1026447.631","1027214.79442","1027981.19417","1028764.12454","1032647.27248","1033414.48104","1019564.55912","1020331.51694","1021098.02398","1021864.6046","1022631.42267","1023380.95481","1032656.43393","Mapping"
"Blocked","m150","done","24","m150knife.wav","None","721.404714219","117","1031881.2796","1024147.1536","1024914.04247","1025681.10695","1026447.631","1027214.79442","1027981.19417","1028764.12454","1032647.27248","1033414.48104","1034181.24995","1020331.51694","1021098.02398","1021864.6046","1022631.42267","1023380.95481","1033424.68193","Mapping"
"Blocked","m150","done","24","m150done.wav","None","721.732748032","117","1031881.2796","1024147.1536","1024914.04247","1025681.10695","1026447.631","1027214.79442","1027981.19417","1028764.12454","1032647.27248","1033414.48104","1034181.24995","1034947.73596","1021098.02398","1021864.6046","1022631.42267","1023380.95481","1034191.09313","Mapping"
"Blocked","m150","done","24","m150cave.wav","space","384.649750486","117","1031881.2796","1024147.1536","1024914.04247","1025681.10695","1026447.631","1027214.79442","1027981.19417","1028764.12454","1032647.27248","1033414.48104","1034181.24995","1034947.73596","1035714.59639","1021864.6046","1022631.42267","1023380.95481","1034957.93222","Mapping"
"Blocked","m150","done","24","m150done.wav","None","720.307455165","117","1031881.2796","1024147.1536","1024914.04247","1025681.10695","1026447.631","1027214.79442","1027981.19417","1028764.12454","1032647.27248","1033414.48104","1034181.24995","1034947.73596","1035714.59639","1036480.2801","1022631.42267","1023380.95481","1035724.31002","Mapping"
"Blocked","m150","done","24","m150park.wav","space","445.584575646","117","1031881.2796","1024147.1536","1024914.04247","1025681.10695","1026447.631","1027214.79442","1027981.19417","1028764.12454","1032647.27248","1033414.48104","1034181.24995","1034947.73596","1035714.59639","1036480.2801","1037247.4092","1023380.95481","1036489.00468","Mapping"
"Blocked","m150","done","24","m150dime.wav","None","725.431089231","117","1031881.2796","1024147.1536","1024914.04247","1025681.10695","1026447.631","1027214.79442","1027981.19417","1028764.12454","1032647.27248","1033414.48104","1034181.24995","1034947.73596","1035714.59639","1036480.2801","1037247.4092","1038014.19697","1037256.64145","Mapping"
"Blocked","m150","done","24","m150park.wav","space","335.162098461","117","1031881.2796","1038781.33782","1024914.04247","1025681.10695","1026447.631","1027214.79442","1027981.19417","1028764.12454","1032647.27248","1033414.48104","1034181.24995","1034947.73596","1035714.59639","1036480.2801","1037247.4092","1038014.19697","1038023.39614","Mapping"
"Blocked","m150","done","24","m150done.wav","None","723.142891307","117","1031881.2796","1038781.33782","1039547.63369","1025681.10695","1026447.631","1027214.79442","1027981.19417","1028764.12454","1032647.27248","1033414.48104","1034181.24995","1034947.73596","1035714.59639","1036480.2801","1037247.4092","1038014.19697","1038791.04928","Mapping"
"Blocked","m150","done","24","m150greet.wav","space","416.720694862","117","1031881.2796","1038781.33782","1039547.63369","1040313.9611","1026447.631","1027214.79442","1027981.19417","1028764.12454","1032647.27248","1033414.48104","1034181.24995","1034947.73596","1035714.59639","1036480.2801","1037247.4092","1038014.19697","1039557.8049","Mapping"
"Blocked","m150","done","24","m150jolt.wav","None","723.362095829","117","1031881.2796","1038781.33782","1039547.63369","1040313.9611","1041080.47649","1027214.79442","1027981.19417","1028764.12454","1032647.27248","1033414.48104","1034181.24995","1034947.73596","1035714.59639","1036480.2801","1037247.4092","1038014.19697","1040323.0941","Mapping"
"Blocked","m150","done","24","m150done.wav","None","723.788137781","117","1031881.2796","1038781.33782","1039547.63369","1040313.9611","1041080.47649","1041847.34557","1027981.19417","1028764.12454","1032647.27248","1033414.48104","1034181.24995","1034947.73596","1035714.59639","1036480.2801","1037247.4092","1038014.19697","1041089.36246","Mapping"
"Blocked","m150","done","24","m150depth.wav","space","539.243011794","117","1031881.2796","1038781.33782","1039547.63369","1040313.9611","1041080.47649","1041847.34557","1042614.37017","1028764.12454","1032647.27248","1033414.48104","1034181.24995","1034947.73596","1035714.59639","1036480.2801","1037247.4092","1038014.19697","1041851.24302","Mapping"
"Blocked","m150","done","24","m150ball.wav","None","723.394868255","117","1031881.2796","1038781.33782","1039547.63369","1040313.9611","1041080.47649","1041847.34557","1042614.37017","1043381.08466","1032647.27248","1033414.48104","1034181.24995","1034947.73596","1035714.59639","1036480.2801","1037247.4092","1038014.19697","1042624.25014","Mapping"
"Blocked","m150","ball","6","m150priest.wav","None","723.974260618","117","1046514.43457","1038781.33782","1039547.63369","1040313.9611","1041080.47649","1041847.34557","1042614.37017","1043381.08466","1032647.27248","1033414.48104","1034181.24995","1034947.73596","1035714.59639","1036480.2801","1037247.4092","1038014.19697","1043390.3806","Mapping"
"Blocked","m150","ball","6","m150reek.wav","None","721.916397451","117","1046514.43457","1038781.33782","1039547.63369","1040313.9611","1041080.47649","1041847.34557","1042614.37017","1043381.08466","1047281.0288","1033414.48104","1034181.24995","1034947.73596","1035714.59639","1036480.2801","1037247.4092","1038014.19697","1046524.64319","Mapping"
"Blocked","m150","ball","6","m150ball.wav","None","722.902353853","117","1046514.43457","1038781.33782","1039547.63369","1040313.9611","1041080.47649","1041847.34557","1042614.37017","1043381.08466","1047281.0288","1048047.65827","1034181.24995","1034947.73596","1035714.59639","1036480.2801","1037247.4092","1038014.19697","1047290.40017","Mapping"
"Blocked","m150","ball","6","m150jolt.wav","space","437.214303762","117","1046514.43457","1038781.33782","1039547.63369","1040313.9611","1041080.47649","1041847.34557","1042614.37017","1043381.08466","1047281.0288","1048047.65827","1048814.52271","1034947.73596","1035714.59639","1036480.2801","1037247.4092","1038014.19697","1048057.18331","Mapping"
"Blocked","m150","ball","6","m150park.wav","None","721.140679496","117","1046514.43457","1038781.33782","1039547.63369","1040313.9611","1041080.47649","1041847.34557","1042614.37017","1043381.08466","1047281.0288","1048047.65827","1048814.52271","1049581.04707","1035714.59639","1036480.2801","1037247.4092","1038014.19697","1048824.13865","Mapping"
"Blocked","m150","ball","6","m150tile.wav","None","721.073588706","117","1046514.43457","1038781.33782","1039547.63369","1040313.9611","1041080.47649","1041847.34557","1042614.37017","1043381.08466","1047281.0288","1048047.65827","1048814.52271","1049581.04707","1050347.611","1036480.2801","1037247.4092","1038014.19697","1049590.93569","Mapping"
"Blocked","m150","ball","6","m150bluff.wav","None","721.60351323","117","1046514.43457","1038781.33782","1039547.63369","1040313.9611","1041080.47649","1041847.34557","1042614.37017","1043381.08466","1047281.0288","1048047.65827","1048814.52271","1049581.04707","1050347.611","1051113.90934","1037247.4092","1038014.19697","1050357.1889","Mapping"
"Blocked","m150","ball","6","m150ball.wav","None","722.283387149","117","1046514.43457","1038781.33782","1039547.63369","1040313.9611","1041080.47649","1041847.34557","1042614.37017","1043381.08466","1047281.0288","1048047.65827","1048814.52271","1049581.04707","1050347.611","1051113.90934","1051880.47018","1038014.19697","1051123.44397","Mapping"
"Blocked","m150","ball","6","m150priest.wav","space","412.731111574","117","1046514.43457","1038781.33782","1039547.63369","1040313.9611","1041080.47649","1041847.34557","1042614.37017","1043381.08466","1047281.0288","1048047.65827","1048814.52271","1049581.04707","1050347.611","1051113.90934","1051880.47018","1052647.09656","1051889.60195","Mapping"
"Blocked","m150","ball","6","m150depth.wav","None","720.976198849","117","1046514.43457","1053414.21329","1039547.63369","1040313.9611","1041080.47649","1041847.34557","1042614.37017","1043381.08466","1047281.0288","1048047.65827","1048814.52271","1049581.04707","1050347.611","1051113.90934","1051880.47018","1052647.09656","1052656.416","Mapping"
"Blocked","m150","ball","6","m150romp.wav","None","719.824834261","117","1046514.43457","1053414.21329","1054181.1337","1040313.9611","1041080.47649","1041847.34557","1042614.37017","1043381.08466","1047281.0288","1048047.65827","1048814.52271","1049581.04707","1050347.611","1051113.90934","1051880.47018","1052647.09656","1053424.26856","Mapping"
"Blocked","m150","ball","6","m150jolt.wav","None","725.607627654","117","1046514.43457","1053414.21329","1054181.1337","1054947.49481","1041080.47649","1041847.34557","1042614.37017","1043381.08466","1047281.0288","1048047.65827","1048814.52271","1049581.04707","1050347.611","1051113.90934","1051880.47018","1052647.09656","1054185.28096","Mapping"
"Blocked","m150","ball","6","m150ball.wav","None","720.881282352","117","1046514.43457","1053414.21329","1054181.1337","1054947.49481","1055713.72266","1041847.34557","1042614.37017","1043381.08466","1047281.0288","1048047.65827","1048814.52271","1049581.04707","1050347.611","1051113.90934","1051880.47018","1052647.09656","1054957.15712","Mapping"
