"Condition","Talker","Target","Trial","current_stimulus","response_response","response_time_response","subject_nr","time_Audio1","time_Audio10","time_Audio11","time_Audio12","time_Audio13","time_Audio14","time_Audio15","time_Audio16","time_Audio2","time_Audio3","time_Audio4","time_Audio5","time_Audio6","time_Audio7","time_Audio8","time_Audio9","time_response","title"
"Blocked","m160","tile","16","m160reek.wav","NA","NA","178","194618.391229","NA","NA","NA","NA","NA","NA","NA","NA","NA","NA","NA","NA","NA","NA","NA","NA","Mapping"
"Blocked","m160","tile","16","m160tile.wav","None","722.573631909","178","194618.391229","NA","NA","NA","NA","NA","NA","NA","195384.900228","NA","NA","NA","NA","NA","NA","NA","194630.264717","Mapping"
"Blocked","m160","tile","16","m160priest.wav","space","533.679627813","178","194618.391229","NA","NA","NA","NA","NA","NA","NA","195384.900228","196151.403043","NA","NA","NA","NA","NA","NA","195394.881267","Mapping"
"Blocked","m160","tile","16","m160done.wav","None","725.023520645","178","194618.391229","NA","NA","NA","NA","NA","NA","NA","195384.900228","196151.403043","196918.445366","NA","NA","NA","NA","NA","196160.901771","Mapping"
"Blocked","m160","tile","16","m160lash.wav","None","725.127711892","178","194618.391229","NA","NA","NA","NA","NA","NA","NA","195384.900228","196151.403043","196918.445366","197685.04959","NA","NA","NA","NA","196927.493319","Mapping"
"Blocked","m160","tile","16","m160tile.wav","None","724.689304363","178","194618.391229","NA","NA","NA","NA","NA","NA","NA","195384.900228","196151.403043","196918.445366","197685.04959","198451.81582","NA","NA","NA","197694.606442","Mapping"
"Blocked","m160","tile","16","m160jaw.wav","space","394.513968844","178","194618.391229","NA","NA","NA","NA","NA","NA","NA","195384.900228","196151.403043","196918.445366","197685.04959","198451.81582","199217.988748","NA","NA","198461.947735","Mapping"
"Blocked","m160","tile","16","m160cling.wav","None","721.803172026","178","194618.391229","NA","NA","NA","NA","NA","NA","NA","195384.900228","196151.403043","196918.445366","197685.04959","198451.81582","199217.988748","199985.176072","NA","199227.122033","Mapping"
"Blocked","m160","tile","16","m160tile.wav","None","720.453322399","178","194618.391229","NA","NA","NA","NA","NA","NA","NA","195384.900228","196151.403043","196918.445366","197685.04959","198451.81582","199217.988748","199985.176072","200734.553475","199995.253882","Mapping"
"Blocked","m160","tile","16","m160ball.wav","space","456.769702956","178","194618.391229","201501.027846","NA","NA","NA","NA","NA","NA","195384.900228","196151.403043","196918.445366","197685.04959","198451.81582","199217.988748","199985.176072","200734.553475","200743.648114","Mapping"
"Blocked","m160","tile","16","m160tile.wav","None","735.522423871","178","194618.391229","201501.027846","202267.750793","NA","NA","NA","NA","NA","195384.900228","196151.403043","196918.445366","197685.04959","198451.81582","199217.988748","199985.176072","200734.553475","201509.960787","Mapping"
"Blocked","m160","tile","16","m160priest.wav","space","523.869562428","178","194618.391229","201501.027846","202267.750793","203034.64162","NA","NA","NA","NA","195384.900228","196151.403043","196918.445366","197685.04959","198451.81582","199217.988748","199985.176072","200734.553475","202276.574596","Mapping"
"Blocked","m160","tile","16","m160bluff.wav","None","728.052181192","178","194618.391229","201501.027846","202267.750793","203034.64162","203801.094968","NA","NA","NA","195384.900228","196151.403043","196918.445366","197685.04959","198451.81582","199217.988748","199985.176072","200734.553475","203043.802113","Mapping"
"Blocked","m160","tile","16","m160depth.wav","None","728.323016781","178","194618.391229","201501.027846","202267.750793","203034.64162","203801.094968","204567.990742","NA","NA","195384.900228","196151.403043","196918.445366","197685.04959","198451.81582","199217.988748","199985.176072","200734.553475","203810.14323","Mapping"
"Blocked","m160","tile","16","m160done.wav","None","727.952008601","178","194618.391229","201501.027846","202267.750793","203034.64162","203801.094968","204567.990742","205335.168482","NA","195384.900228","196151.403043","196918.445366","197685.04959","198451.81582","199217.988748","199985.176072","200734.553475","204577.37013","Mapping"
"Blocked","m160","tile","16","m160park.wav","None","723.797648679","178","194618.391229","201501.027846","202267.750793","203034.64162","203801.094968","204567.990742","205335.168482","206101.418394","195384.900228","196151.403043","196918.445366","197685.04959","198451.81582","199217.988748","199985.176072","200734.553475","205344.726572","Mapping"
"Blocked","m160","cave","10","m160cad.wav","None","724.413212389","178","209618.098752","201501.027846","202267.750793","203034.64162","203801.094968","204567.990742","205335.168482","206101.418394","195384.900228","196151.403043","196918.445366","197685.04959","198451.81582","199217.988748","199985.176072","200734.553475","206110.970609","Mapping"
"Blocked","m160","cave","10","m160cave.wav","None","723.387993872","178","209618.098752","201501.027846","202267.750793","203034.64162","203801.094968","204567.990742","205335.168482","206101.418394","210384.2151","196151.403043","196918.445366","197685.04959","198451.81582","199217.988748","199985.176072","200734.553475","209627.996313","Mapping"
"Blocked","m160","cave","10","m160tile.wav","space","455.284434836","178","209618.098752","201501.027846","202267.750793","203034.64162","203801.094968","204567.990742","205335.168482","206101.418394","210384.2151","211151.174564","196918.445366","197685.04959","198451.81582","199217.988748","199985.176072","200734.553475","210392.993146","Mapping"
"Blocked","m160","cave","10","m160cave.wav","None","725.424518343","178","209618.098752","201501.027846","202267.750793","203034.64162","203801.094968","204567.990742","205335.168482","206101.418394","210384.2151","211151.174564","211918.811427","197685.04959","198451.81582","199217.988748","199985.176072","200734.553475","211160.496136","Mapping"
"Blocked","m160","cave","10","m160priest.wav","space","448.100177106","178","209618.098752","201501.027846","202267.750793","203034.64162","203801.094968","204567.990742","205335.168482","206101.418394","210384.2151","211151.174564","211918.811427","212667.592743","198451.81582","199217.988748","199985.176072","200734.553475","211928.168245","Mapping"
"Blocked","m160","cave","10","m160romp.wav","None","735.582403373","178","209618.098752","201501.027846","202267.750793","203034.64162","203801.094968","204567.990742","205335.168482","206101.418394","210384.2151","211151.174564","211918.811427","212667.592743","213434.315071","199217.988748","199985.176072","200734.553475","212676.739633","Mapping"
"Blocked","m160","cave","10","m160lash.wav","None","735.416686628","178","209618.098752","201501.027846","202267.750793","203034.64162","203801.094968","204567.990742","205335.168482","206101.418394","210384.2151","211151.174564","211918.811427","212667.592743","213434.315071","214200.870755","199985.176072","200734.553475","213443.341074","Mapping"
"Blocked","m160","cave","10","m160cave.wav","None","732.054427732","178","209618.098752","201501.027846","202267.750793","203034.64162","203801.094968","204567.990742","205335.168482","206101.418394","210384.2151","211151.174564","211918.811427","212667.592743","213434.315071","214200.870755","214967.787554","200734.553475","214210.076078","Mapping"
"Blocked","m160","cave","10","m160romp.wav","space","415.233829059","178","209618.098752","201501.027846","202267.750793","203034.64162","203801.094968","204567.990742","205335.168482","206101.418394","210384.2151","211151.174564","211918.811427","212667.592743","213434.315071","214200.870755","214967.787554","215734.875324","214976.971234","Mapping"
"Blocked","m160","cave","10","m160tile.wav","None","723.926882725","178","209618.098752","216501.312595","202267.750793","203034.64162","203801.094968","204567.990742","205335.168482","206101.418394","210384.2151","211151.174564","211918.811427","212667.592743","213434.315071","214200.870755","214967.787554","215734.875324","215744.329222","Mapping"
"Blocked","m160","cave","10","m160reek.wav","None","720.868851058","178","209618.098752","216501.312595","217251.009373","203034.64162","203801.094968","204567.990742","205335.168482","206101.418394","210384.2151","211151.174564","211918.811427","212667.592743","213434.315071","214200.870755","214967.787554","215734.875324","216511.016923","Mapping"
"Blocked","m160","cave","10","m160cling.wav","None","734.849045053","178","209618.098752","216501.312595","217251.009373","218017.7249","203801.094968","204567.990742","205335.168482","206101.418394","210384.2151","211151.174564","211918.811427","212667.592743","213434.315071","214200.870755","214967.787554","215734.875324","217260.298791","Mapping"
"Blocked","m160","cave","10","m160bluff.wav","None","731.517084874","178","209618.098752","216501.312595","217251.009373","218017.7249","218784.495458","204567.990742","205335.168482","206101.418394","210384.2151","211151.174564","211918.811427","212667.592743","213434.315071","214200.870755","214967.787554","215734.875324","218026.87148","Mapping"
"Blocked","m160","cave","10","m160lash.wav","None","727.961284108","178","209618.098752","216501.312595","217251.009373","218017.7249","218784.495458","219550.821118","205335.168482","206101.418394","210384.2151","211151.174564","211918.811427","212667.592743","213434.315071","214200.870755","214967.787554","215734.875324","218793.656879","Mapping"
"Blocked","m160","cave","10","m160cave.wav","None","725.228501949","178","209618.098752","216501.312595","217251.009373","218017.7249","218784.495458","219550.821118","220318.241559","206101.418394","210384.2151","211151.174564","211918.811427","212667.592743","213434.315071","214200.870755","214967.787554","215734.875324","219559.595762","Mapping"
"Blocked","m160","cave","10","m160reek.wav","space","512.10273942","178","209618.098752","216501.312595","217251.009373","218017.7249","218784.495458","219550.821118","220318.241559","221067.520335","210384.2151","211151.174564","211918.811427","212667.592743","213434.315071","214200.870755","214967.787554","215734.875324","220328.020707","Mapping"
"Blocked","m160","tile","15","m160jolt.wav","None","734.392704908","178","224201.366669","216501.312595","217251.009373","218017.7249","218784.495458","219550.821118","220318.241559","221067.520335","210384.2151","211151.174564","211918.811427","212667.592743","213434.315071","214200.870755","214967.787554","215734.875324","221077.108414","Mapping"
"Blocked","m160","tile","15","m160lash.wav","None","721.476066858","178","224201.366669","216501.312595","217251.009373","218017.7249","218784.495458","219550.821118","220318.241559","221067.520335","224967.8599","211151.174564","211918.811427","212667.592743","213434.315071","214200.870755","214967.787554","215734.875324","224212.956336","Mapping"
"Blocked","m160","tile","15","m160tile.wav","None","718.511095736","178","224201.366669","216501.312595","217251.009373","218017.7249","218784.495458","219550.821118","220318.241559","221067.520335","224967.8599","225717.594397","211918.811427","212667.592743","213434.315071","214200.870755","214967.787554","215734.875324","224979.418031","Mapping"
"Blocked","m160","tile","15","m160cling.wav","space","433.504419401","178","224201.366669","216501.312595","217251.009373","218017.7249","218784.495458","219550.821118","220318.241559","221067.520335","224967.8599","225717.594397","226484.210989","212667.592743","213434.315071","214200.870755","214967.787554","215734.875324","225726.493639","Mapping"
"Blocked","m160","tile","15","m160tile.wav","None","731.069402304","178","224201.366669","216501.312595","217251.009373","218017.7249","218784.495458","219550.821118","220318.241559","221067.520335","224967.8599","225717.594397","226484.210989","227250.865298","213434.315071","214200.870755","214967.787554","215734.875324","226493.327269","Mapping"
"Blocked","m160","tile","15","m160depth.wav","space","506.465584505","178","224201.366669","216501.312595","217251.009373","218017.7249","218784.495458","219550.821118","220318.241559","221067.520335","224967.8599","225717.594397","226484.210989","227250.865298","228017.923698","214200.870755","214967.787554","215734.875324","227261.523426","Mapping"
"Blocked","m160","tile","15","m160tile.wav","None","722.827772144","178","224201.366669","216501.312595","217251.009373","218017.7249","218784.495458","219550.821118","220318.241559","221067.520335","224967.8599","225717.594397","226484.210989","227250.865298","228017.923698","228784.565332","214967.787554","215734.875324","228028.022222","Mapping"
"Blocked","m160","tile","15","m160done.wav","space","350.052389782","178","224201.366669","216501.312595","217251.009373","218017.7249","218784.495458","219550.821118","220318.241559","221067.520335","224967.8599","225717.594397","226484.210989","227250.865298","228017.923698","228784.565332","229533.621503","215734.875324","228793.91813","Mapping"
"Blocked","m160","tile","15","m160priest.wav","None","735.346504021","178","224201.366669","216501.312595","217251.009373","218017.7249","218784.495458","219550.821118","220318.241559","221067.520335","224967.8599","225717.594397","226484.210989","227250.865298","228017.923698","228784.565332","229533.621503","230300.847165","229542.349154","Mapping"
"Blocked","m160","tile","15","m160cave.wav","None","731.388468761","178","224201.366669","231067.505495","217251.009373","218017.7249","218784.495458","219550.821118","220318.241559","221067.520335","224967.8599","225717.594397","226484.210989","227250.865298","228017.923698","228784.565332","229533.621503","230300.847165","230309.90223","Mapping"
"Blocked","m160","tile","15","m160greet.wav","None","722.026704811","178","224201.366669","231067.505495","231834.132288","218017.7249","218784.495458","219550.821118","220318.241559","221067.520335","224967.8599","225717.594397","226484.210989","227250.865298","228017.923698","228784.565332","229533.621503","230300.847165","231082.743405","Mapping"
"Blocked","m160","tile","15","m160cad.wav","None","728.388870601","178","224201.366669","231067.505495","231834.132288","232600.792164","218784.495458","219550.821118","220318.241559","221067.520335","224967.8599","225717.594397","226484.210989","227250.865298","228017.923698","228784.565332","229533.621503","230300.847165","231843.243313","Mapping"
"Blocked","m160","tile","15","m160tile.wav","None","725.103596225","178","224201.366669","231067.505495","231834.132288","232600.792164","233367.873751","219550.821118","220318.241559","221067.520335","224967.8599","225717.594397","226484.210989","227250.865298","228017.923698","228784.565332","229533.621503","230300.847165","232610.036751","Mapping"
"Blocked","m160","tile","15","m160ball.wav","space","382.478474639","178","224201.366669","231067.505495","231834.132288","232600.792164","233367.873751","234117.063794","220318.241559","221067.520335","224967.8599","225717.594397","226484.210989","227250.865298","228017.923698","228784.565332","229533.621503","230300.847165","233377.399068","Mapping"
"Blocked","m160","tile","15","m160ball.wav","None","736.048018094","178","224201.366669","231067.505495","231834.132288","232600.792164","233367.873751","234117.063794","234883.779012","221067.520335","224967.8599","225717.594397","226484.210989","227250.865298","228017.923698","228784.565332","229533.621503","230300.847165","234125.866883","Mapping"
"Blocked","m160","tile","15","m160reek.wav","None","732.86909936","178","224201.366669","231067.505495","231834.132288","232600.792164","233367.873751","234117.063794","234883.779012","235650.766919","224967.8599","225717.594397","226484.210989","227250.865298","228017.923698","228784.565332","229533.621503","230300.847165","234892.501406","Mapping"
"Blocked","m160","done","19","m160romp.wav","None","729.43109367","178","238784.623147","231067.505495","231834.132288","232600.792164","233367.873751","234117.063794","234883.779012","235650.766919","224967.8599","225717.594397","226484.210989","227250.865298","228017.923698","228784.565332","229533.621503","230300.847165","235659.835279","Mapping"
"Blocked","m160","done","19","m160gnash.wav","None","719.70450459","178","238784.623147","231067.505495","231834.132288","232600.792164","233367.873751","234117.063794","234883.779012","235650.766919","239551.08948","225717.594397","226484.210989","227250.865298","228017.923698","228784.565332","229533.621503","230300.847165","238794.118166","Mapping"
"Blocked","m160","done","19","m160depth.wav","None","719.376781024","178","238784.623147","231067.505495","231834.132288","232600.792164","233367.873751","234117.063794","234883.779012","235650.766919","239551.08948","240300.417724","226484.210989","227250.865298","228017.923698","228784.565332","229533.621503","230300.847165","239561.076083","Mapping"
"Blocked","m160","done","19","m160cling.wav","None","734.664159361","178","238784.623147","231067.505495","231834.132288","232600.792164","233367.873751","234117.063794","234883.779012","235650.766919","239551.08948","240300.417724","241067.262175","227250.865298","228017.923698","228784.565332","229533.621503","230300.847165","240309.269352","Mapping"
"Blocked","m160","done","19","m160done.wav","None","731.031992473","178","238784.623147","231067.505495","231834.132288","232600.792164","233367.873751","234117.063794","234883.779012","235650.766919","239551.08948","240300.417724","241067.262175","241833.939673","228017.923698","228784.565332","229533.621503","230300.847165","241076.303945","Mapping"
"Blocked","m160","done","19","m160jaw.wav","space","388.678633608","178","238784.623147","231067.505495","231834.132288","232600.792164","233367.873751","234117.063794","234883.779012","235650.766919","239551.08948","240300.417724","241067.262175","241833.939673","242600.379726","228784.565332","229533.621503","230300.847165","241843.015762","Mapping"
"Blocked","m160","done","19","m160done.wav","None","726.624728646","178","238784.623147","231067.505495","231834.132288","232600.792164","233367.873751","234117.063794","234883.779012","235650.766919","239551.08948","240300.417724","241067.262175","241833.939673","242600.379726","243367.456985","229533.621503","230300.847165","242609.295354","Mapping"
"Blocked","m160","done","19","m160bluff.wav","space","455.093674827","178","238784.623147","231067.505495","231834.132288","232600.792164","233367.873751","234117.063794","234883.779012","235650.766919","239551.08948","240300.417724","241067.262175","241833.939673","242600.379726","243367.456985","244117.736555","230300.847165","243376.581923","Mapping"
"Blocked","m160","done","19","m160done.wav","None","735.784602817","178","238784.623147","231067.505495","231834.132288","232600.792164","233367.873751","234117.063794","234883.779012","235650.766919","239551.08948","240300.417724","241067.262175","241833.939673","242600.379726","243367.456985","244117.736555","244883.791687","244126.784818","Mapping"
"Blocked","m160","done","19","m160park.wav","space","386.828232091","178","238784.623147","245650.566266","231834.132288","232600.792164","233367.873751","234117.063794","234883.779012","235650.766919","239551.08948","240300.417724","241067.262175","241833.939673","242600.379726","243367.456985","244117.736555","244883.791687","244892.846443","Mapping"
"Blocked","m160","done","19","m160done.wav","None","729.707803577","178","238784.623147","245650.566266","246417.232943","232600.792164","233367.873751","234117.063794","234883.779012","235650.766919","239551.08948","240300.417724","241067.262175","241833.939673","242600.379726","243367.456985","244117.736555","244883.791687","245659.553313","Mapping"
"Blocked","m160","done","19","m160cad.wav","space","381.004645955","178","238784.623147","245650.566266","246417.232943","247184.190243","233367.873751","234117.063794","234883.779012","235650.766919","239551.08948","240300.417724","241067.262175","241833.939673","242600.379726","243367.456985","244117.736555","244883.791687","246426.620987","Mapping"
"Blocked","m160","done","19","m160park.wav","None","722.018975299","178","238784.623147","245650.566266","246417.232943","247184.190243","247934.143326","234117.063794","234883.779012","235650.766919","239551.08948","240300.417724","241067.262175","241833.939673","242600.379726","243367.456985","244117.736555","244883.791687","247193.709685","Mapping"
"Blocked","m160","done","19","m160greet.wav","None","735.571582336","178","238784.623147","245650.566266","246417.232943","247184.190243","247934.143326","248700.528655","234883.779012","235650.766919","239551.08948","240300.417724","241067.262175","241833.939673","242600.379726","243367.456985","244117.736555","244883.791687","247943.686575","Mapping"
"Blocked","m160","done","19","m160depth.wav","None","733.216609806","178","238784.623147","245650.566266","246417.232943","247184.190243","247934.143326","248700.528655","249467.026215","235650.766919","239551.08948","240300.417724","241067.262175","241833.939673","242600.379726","243367.456985","244117.736555","244883.791687","248709.493132","Mapping"
"Blocked","m160","done","19","m160cave.wav","None","730.300179683","178","238784.623147","245650.566266","246417.232943","247184.190243","247934.143326","248700.528655","249467.026215","250233.755345","239551.08948","240300.417724","241067.262175","241833.939673","242600.379726","243367.456985","244117.736555","244883.791687","249475.811371","Mapping"
"Blocked","m160","done","24","m160jaw.wav","None","726.810850669","178","253350.75514","245650.566266","246417.232943","247184.190243","247934.143326","248700.528655","249467.026215","250233.755345","239551.08948","240300.417724","241067.262175","241833.939673","242600.379726","243367.456985","244117.736555","244883.791687","250242.730024","Mapping"
"Blocked","m160","done","24","m160cave.wav","None","719.992344733","178","253350.75514","245650.566266","246417.232943","247184.190243","247934.143326","248700.528655","249467.026215","250233.755345","254100.386992","240300.417724","241067.262175","241833.939673","242600.379726","243367.456985","244117.736555","244883.791687","253360.566752","Mapping"
"Blocked","m160","done","24","m160done.wav","None","734.583774116","178","253350.75514","245650.566266","246417.232943","247184.190243","247934.143326","248700.528655","249467.026215","250233.755345","254100.386992","254867.059852","241067.262175","241833.939673","242600.379726","243367.456985","244117.736555","244883.791687","254109.397226","Mapping"
"Blocked","m160","done","24","m160cave.wav","space","355.365221389","178","253350.75514","245650.566266","246417.232943","247184.190243","247934.143326","248700.528655","249467.026215","250233.755345","254100.386992","254867.059852","255633.384275","241833.939673","242600.379726","243367.456985","244117.736555","244883.791687","254876.139651","Mapping"
"Blocked","m160","done","24","m160done.wav","None","728.275403846","178","253350.75514","245650.566266","246417.232943","247184.190243","247934.143326","248700.528655","249467.026215","250233.755345","254100.386992","254867.059852","255633.384275","256400.877681","242600.379726","243367.456985","244117.736555","244883.791687","255642.285371","Mapping"
"Blocked","m160","done","24","m160cling.wav","space","445.158394054","178","253350.75514","245650.566266","246417.232943","247184.190243","247934.143326","248700.528655","249467.026215","250233.755345","254100.386992","254867.059852","255633.384275","256400.877681","257167.273213","243367.456985","244117.736555","244883.791687","256410.311792","Mapping"
"Blocked","m160","done","24","m160romp.wav","None","720.62676819","178","253350.75514","245650.566266","246417.232943","247184.190243","247934.143326","248700.528655","249467.026215","250233.755345","254100.386992","254867.059852","255633.384275","256400.877681","257167.273213","257916.858998","244117.736555","244883.791687","257176.476371","Mapping"
"Blocked","m160","done","24","m160priest.wav","None","734.721046872","178","253350.75514","245650.566266","246417.232943","247184.190243","247934.143326","248700.528655","249467.026215","250233.755345","254100.386992","254867.059852","255633.384275","256400.877681","257167.273213","257916.858998","258683.605133","244883.791687","257926.012071","Mapping"
"Blocked","m160","done","24","m160done.wav","None","730.935530271","178","253350.75514","245650.566266","246417.232943","247184.190243","247934.143326","248700.528655","249467.026215","250233.755345","254100.386992","254867.059852","255633.384275","256400.877681","257167.273213","257916.858998","258683.605133","259450.206265","258693.313171","Mapping"
"Blocked","m160","done","24","m160romp.wav","space","404.088753741","178","253350.75514","260216.913753","246417.232943","247184.190243","247934.143326","248700.528655","249467.026215","250233.755345","254100.386992","254867.059852","255633.384275","256400.877681","257167.273213","257916.858998","258683.605133","259450.206265","259459.288846","Mapping"
"Blocked","m160","done","24","m160done.wav","None","724.493906833","178","253350.75514","260216.913753","260984.083455","247184.190243","247934.143326","248700.528655","249467.026215","250233.755345","254100.386992","254867.059852","255633.384275","256400.877681","257167.273213","257916.858998","258683.605133","259450.206265","260226.375689","Mapping"
"Blocked","m160","done","24","m160jolt.wav","space","437.771937344","178","253350.75514","260216.913753","260984.083455","261733.384182","247934.143326","248700.528655","249467.026215","250233.755345","254100.386992","254867.059852","255633.384275","256400.877681","257167.273213","257916.858998","258683.605133","259450.206265","260993.591458","Mapping"
"Blocked","m160","done","24","m160lash.wav","None","734.924483113","178","253350.75514","260216.913753","260984.083455","261733.384182","262500.258932","248700.528655","249467.026215","250233.755345","254100.386992","254867.059852","255633.384275","256400.877681","257167.273213","257916.858998","258683.605133","259450.206265","261742.485622","Mapping"
"Blocked","m160","done","24","m160jaw.wav","None","722.97370201","178","253350.75514","260216.913753","260984.083455","261733.384182","262500.258932","263266.913243","249467.026215","250233.755345","254100.386992","254867.059852","255633.384275","256400.877681","257167.273213","257916.858998","258683.605133","259450.206265","262517.953842","Mapping"
"Blocked","m160","done","24","m160greet.wav","None","727.737443056","178","253350.75514","260216.913753","260984.083455","261733.384182","262500.258932","263266.913243","264033.518085","250233.755345","254100.386992","254867.059852","255633.384275","256400.877681","257167.273213","257916.858998","258683.605133","259450.206265","263276.811113","Mapping"
"Blocked","m160","done","24","m160cling.wav","None","724.849146325","178","253350.75514","260216.913753","260984.083455","261733.384182","262500.258932","263266.913243","264033.518085","264800.54062","254100.386992","254867.059852","255633.384275","256400.877681","257167.273213","257916.858998","258683.605133","259450.206265","264043.33959","Mapping"
"Blocked","m160","tile","17","m160lash.wav","None","721.283142921","178","267917.015749","260216.913753","260984.083455","261733.384182","262500.258932","263266.913243","264033.518085","264800.54062","254100.386992","254867.059852","255633.384275","256400.877681","257167.273213","257916.858998","258683.605133","259450.206265","264810.411284","Mapping"
"Blocked","m160","tile","17","m160tile.wav","None","718.971764203","178","267917.015749","260216.913753","260984.083455","261733.384182","262500.258932","263266.913243","264033.518085","264800.54062","268666.776835","254867.059852","255633.384275","256400.877681","257167.273213","257916.858998","258683.605133","259450.206265","267927.143335","Mapping"
"Blocked","m160","tile","17","m160bluff.wav","space","410.866448656","178","267917.015749","260216.913753","260984.083455","261733.384182","262500.258932","263266.913243","264033.518085","264800.54062","268666.776835","269433.490506","255633.384275","256400.877681","257167.273213","257916.858998","258683.605133","259450.206265","268676.366151","Mapping"
"Blocked","m160","tile","17","m160gnash.wav","None","729.149745777","178","267917.015749","260216.913753","260984.083455","261733.384182","262500.258932","263266.913243","264033.518085","264800.54062","268666.776835","269433.490506","270200.116373","256400.877681","257167.273213","257916.858998","258683.605133","259450.206265","269443.662923","Mapping"
"Blocked","m160","tile","17","m160greet.wav","None","726.659046952","178","267917.015749","260216.913753","260984.083455","261733.384182","262500.258932","263266.913243","264033.518085","264800.54062","268666.776835","269433.490506","270200.116373","270967.193014","257167.273213","257916.858998","258683.605133","259450.206265","270209.849454","Mapping"
"Blocked","m160","tile","17","m160greet.wav","None","723.286585417","178","267917.015749","260216.913753","260984.083455","261733.384182","262500.258932","263266.913243","264033.518085","264800.54062","268666.776835","269433.490506","270200.116373","270967.193014","271733.577415","257916.858998","258683.605133","259450.206265","270976.925786","Mapping"
"Blocked","m160","tile","17","m160reek.wav","None","719.745624345","178","267917.015749","260216.913753","260984.083455","261733.384182","262500.258932","263266.913243","264033.518085","264800.54062","268666.776835","269433.490506","270200.116373","270967.193014","271733.577415","272483.242658","258683.605133","259450.206265","271744.191331","Mapping"
"Blocked","m160","tile","17","m160tile.wav","None","735.011360608","178","267917.015749","260216.913753","260984.083455","261733.384182","262500.258932","263266.913243","264033.518085","264800.54062","268666.776835","269433.490506","270200.116373","270967.193014","271733.577415","272483.242658","273250.078453","259450.206265","272492.566394","Mapping"
"Blocked","m160","tile","17","m160priest.wav","space","419.972526841","178","267917.015749","260216.913753","260984.083455","261733.384182","262500.258932","263266.913243","264033.518085","264800.54062","268666.776835","269433.490506","270200.116373","270967.193014","271733.577415","272483.242658","273250.078453","274016.949802","273259.201226","Mapping"
"Blocked","m160","tile","17","m160tile.wav","None","733.355119359","178","267917.015749","274783.390164","260984.083455","261733.384182","262500.258932","263266.913243","264033.518085","264800.54062","268666.776835","269433.490506","270200.116373","270967.193014","271733.577415","272483.242658","273250.078453","274016.949802","274026.059282","Mapping"
"Blocked","m160","tile","17","m160cling.wav","space","573.017898016","178","267917.015749","274783.390164","275550.046329","261733.384182","262500.258932","263266.913243","264033.518085","264800.54062","268666.776835","269433.490506","270200.116373","270967.193014","271733.577415","272483.242658","273250.078453","274016.949802","274794.089722","Mapping"
"Blocked","m160","tile","17","m160tile.wav","None","726.670176722","178","267917.015749","274783.390164","275550.046329","276316.901912","262500.258932","263266.913243","264033.518085","264800.54062","268666.776835","269433.490506","270200.116373","270967.193014","271733.577415","272483.242658","273250.078453","274016.949802","275559.462199","Mapping"
"Blocked","m160","tile","17","m160done.wav","space","480.312623549","178","267917.015749","274783.390164","275550.046329","276316.901912","277083.648046","263266.913243","264033.518085","264800.54062","268666.776835","269433.490506","270200.116373","270967.193014","271733.577415","272483.242658","273250.078453","274016.949802","276326.798236","Mapping"
"Blocked","m160","tile","17","m160jaw.wav","None","719.538169447","178","267917.015749","274783.390164","275550.046329","276316.901912","277083.648046","277833.251145","264033.518085","264800.54062","268666.776835","269433.490506","270200.116373","270967.193014","271733.577415","272483.242658","273250.078453","274016.949802","277093.600331","Mapping"
"Blocked","m160","tile","17","m160bluff.wav","None","734.224515036","178","267917.015749","274783.390164","275550.046329","276316.901912","277083.648046","277833.251145","278599.968835","264800.54062","268666.776835","269433.490506","270200.116373","270967.193014","271733.577415","272483.242658","273250.078453","274016.949802","277842.690202","Mapping"
"Blocked","m160","tile","17","m160cad.wav","None","730.565450154","178","267917.015749","274783.390164","275550.046329","276316.901912","277083.648046","277833.251145","278599.968835","279366.626546","268666.776835","269433.490506","270200.116373","270967.193014","271733.577415","272483.242658","273250.078453","274016.949802","278610.05963","Mapping"
"Blocked","m160","ball","4","m160reek.wav","None","728.212951217","178","282500.023033","274783.390164","275550.046329","276316.901912","277083.648046","277833.251145","278599.968835","279366.626546","268666.776835","269433.490506","270200.116373","270967.193014","271733.577415","272483.242658","273250.078453","274016.949802","279376.183708","Mapping"
"Blocked","m160","ball","4","m160tile.wav","None","718.503985088","178","282500.023033","274783.390164","275550.046329","276316.901912","277083.648046","277833.251145","278599.968835","279366.626546","283249.889239","269433.490506","270200.116373","270967.193014","271733.577415","272483.242658","273250.078453","274016.949802","282510.491638","Mapping"
"Blocked","m160","ball","4","m160ball.wav","None","733.511870261","178","282500.023033","274783.390164","275550.046329","276316.901912","277083.648046","277833.251145","278599.968835","279366.626546","283249.889239","284016.548804","270200.116373","270967.193014","271733.577415","272483.242658","273250.078453","274016.949802","283259.151449","Mapping"
"Blocked","m160","ball","4","m160tile.wav","space","388.997391332","178","282500.023033","274783.390164","275550.046329","276316.901912","277083.648046","277833.251145","278599.968835","279366.626546","283249.889239","284016.548804","284783.236196","270967.193014","271733.577415","272483.242658","273250.078453","274016.949802","284025.940559","Mapping"
"Blocked","m160","ball","4","m160cling.wav","None","726.808686741","178","282500.023033","274783.390164","275550.046329","276316.901912","277083.648046","277833.251145","278599.968835","279366.626546","283249.889239","284016.548804","284783.236196","285550.392294","271733.577415","272483.242658","273250.078453","274016.949802","284792.578483","Mapping"
"Blocked","m160","ball","4","m160cave.wav","None","722.662364598","178","282500.023033","274783.390164","275550.046329","276316.901912","277083.648046","277833.251145","278599.968835","279366.626546","283249.889239","284016.548804","284783.236196","285550.392294","286316.892636","272483.242658","273250.078453","274016.949802","285560.493292","Mapping"
"Blocked","m160","ball","4","m160priest.wav","None","720.191761386","178","282500.023033","274783.390164","275550.046329","276316.901912","277083.648046","277833.251145","278599.968835","279366.626546","283249.889239","284016.548804","284783.236196","285550.392294","286316.892636","287066.097829","273250.078453","274016.949802","286326.670239","Mapping"
"Blocked","m160","ball","4","m160dime.wav","None","735.375875607","178","282500.023033","274783.390164","275550.046329","276316.901912","277083.648046","277833.251145","278599.968835","279366.626546","283249.889239","284016.548804","284783.236196","285550.392294","286316.892636","287066.097829","287849.760684","274016.949802","287075.480308","Mapping"
"Blocked","m160","ball","4","m160jolt.wav","None","720.962221269","178","282500.023033","274783.390164","275550.046329","276316.901912","277083.648046","277833.251145","278599.968835","279366.626546","283249.889239","284016.548804","284783.236196","285550.392294","286316.892636","287066.097829","287849.760684","288599.61947","287859.234988","Mapping"
"Blocked","m160","ball","4","m160ball.wav","None","735.175840557","178","282500.023033","289366.444443","275550.046329","276316.901912","277083.648046","277833.251145","278599.968835","279366.626546","283249.889239","284016.548804","284783.236196","285550.392294","286316.892636","287066.097829","287849.760684","288599.61947","288608.936713","Mapping"
"Blocked","m160","ball","4","m160park.wav","space","454.372064676","178","282500.023033","289366.444443","290133.067527","276316.901912","277083.648046","277833.251145","278599.968835","279366.626546","283249.889239","284016.548804","284783.236196","285550.392294","286316.892636","287066.097829","287849.760684","288599.61947","289376.498137","Mapping"
"Blocked","m160","ball","4","m160ball.wav","None","728.45812561","178","282500.023033","289366.444443","290133.067527","290899.896829","277083.648046","277833.251145","278599.968835","279366.626546","283249.889239","284016.548804","284783.236196","285550.392294","286316.892636","287066.097829","287849.760684","288599.61947","290142.417233","Mapping"
"Blocked","m160","ball","4","m160priest.wav","space","721.413614228","178","282500.023033","289366.444443","290133.067527","290899.896829","291666.556395","277833.251145","278599.968835","279366.626546","283249.889239","284016.548804","284783.236196","285550.392294","286316.892636","287066.097829","287849.760684","288599.61947","290909.439769","Mapping"
"Blocked","m160","ball","4","m160depth.wav","None","721.754013561","178","282500.023033","289366.444443","290133.067527","290899.896829","291666.556395","292416.13476","278599.968835","279366.626546","283249.889239","284016.548804","284783.236196","285550.392294","286316.892636","287066.097829","287849.760684","288599.61947","291675.859107","Mapping"
"Blocked","m160","ball","4","m160ball.wav","None","735.916310456","178","282500.023033","289366.444443","290133.067527","290899.896829","291666.556395","292416.13476","293183.04352","279366.626546","283249.889239","284016.548804","284783.236196","285550.392294","286316.892636","287066.097829","287849.760684","288599.61947","292425.49436","Mapping"
"Blocked","m160","ball","4","m160cave.wav","space","422.229181975","178","282500.023033","289366.444443","290133.067527","290899.896829","291666.556395","292416.13476","293183.04352","293949.702776","283249.889239","284016.548804","284783.236196","285550.392294","286316.892636","287066.097829","287849.760684","288599.61947","293192.551214","Mapping"
"Blocked","m160","done","21","m160tile.wav","None","728.556751739","178","297083.108847","289366.444443","290133.067527","290899.896829","291666.556395","292416.13476","293183.04352","293949.702776","283249.889239","284016.548804","284783.236196","285550.392294","286316.892636","287066.097829","287849.760684","288599.61947","293959.390718","Mapping"
"Blocked","m160","done","21","m160done.wav","None","724.53409899","178","297083.108847","289366.444443","290133.067527","290899.896829","291666.556395","292416.13476","293183.04352","293949.702776","297832.81552","284016.548804","284783.236196","285550.392294","286316.892636","287066.097829","287849.760684","288599.61947","297088.128275","Mapping"
"Blocked","m160","done","21","m160cling.wav","space","356.558630243","178","297083.108847","289366.444443","290133.067527","290899.896829","291666.556395","292416.13476","293183.04352","293949.702776","297832.81552","298599.727989","284783.236196","285550.392294","286316.892636","287066.097829","287849.760684","288599.61947","297842.17512","Mapping"
"Blocked","m160","done","21","m160priest.wav","None","730.667477008","178","297083.108847","289366.444443","290133.067527","290899.896829","291666.556395","292416.13476","293183.04352","293949.702776","297832.81552","298599.727989","299366.170825","285550.392294","286316.892636","287066.097829","287849.760684","288599.61947","298608.94166","Mapping"
"Blocked","m160","done","21","m160tile.wav","None","727.551011369","178","297083.108847","289366.444443","290133.067527","290899.896829","291666.556395","292416.13476","293183.04352","293949.702776","297832.81552","298599.727989","299366.170825","300132.895627","286316.892636","287066.097829","287849.760684","288599.61947","299375.763232","Mapping"
"Blocked","m160","done","21","m160done.wav","None","724.351377692","178","297083.108847","289366.444443","290133.067527","290899.896829","291666.556395","292416.13476","293183.04352","293949.702776","297832.81552","298599.727989","299366.170825","300132.895627","300900.01617","287066.097829","287849.760684","288599.61947","300142.718677","Mapping"
"Blocked","m160","done","21","m160romp.wav","space","448.942673858","178","297083.108847","289366.444443","290133.067527","290899.896829","291666.556395","292416.13476","293183.04352","293949.702776","297832.81552","298599.727989","299366.170825","300132.895627","300900.01617","301649.288144","287849.760684","288599.61947","300909.735957","Mapping"
"Blocked","m160","done","21","m160done.wav","None","734.961274546","178","297083.108847","289366.444443","290133.067527","290899.896829","291666.556395","292416.13476","293183.04352","293949.702776","297832.81552","298599.727989","299366.170825","300132.895627","300900.01617","301649.288144","302416.236478","288599.61947","301658.951662","Mapping"
"Blocked","m160","done","21","m160jaw.wav","None","731.686821207","178","297083.108847","289366.444443","290133.067527","290899.896829","291666.556395","292416.13476","293183.04352","293949.702776","297832.81552","298599.727989","299366.170825","300132.895627","300900.01617","301649.288144","302416.236478","303182.822152","302425.929057","Mapping"
"Blocked","m160","done","21","m160gnash.wav","space","62.0550806634","178","297083.108847","303949.520982","290133.067527","290899.896829","291666.556395","292416.13476","293183.04352","293949.702776","297832.81552","298599.727989","299366.170825","300132.895627","300900.01617","301649.288144","302416.236478","303182.822152","303192.615212","Mapping"
"Blocked","m160","done","21","m160dime.wav","None","724.778964184","178","297083.108847","303949.520982","304716.401916","290899.896829","291666.556395","292416.13476","293183.04352","293949.702776","297832.81552","298599.727989","299366.170825","300132.895627","300900.01617","301649.288144","302416.236478","303182.822152","303959.556744","Mapping"
"Blocked","m160","done","21","m160tile.wav","space","431.814169511","178","297083.108847","303949.520982","304716.401916","305466.313261","291666.556395","292416.13476","293183.04352","293949.702776","297832.81552","298599.727989","299366.170825","300132.895627","300900.01617","301649.288144","302416.236478","303182.822152","304726.780242","Mapping"
"Blocked","m160","done","21","m160bluff.wav","None","735.989584588","178","297083.108847","303949.520982","304716.401916","305466.313261","306232.524526","292416.13476","293183.04352","293949.702776","297832.81552","298599.727989","299366.170825","300132.895627","300900.01617","301649.288144","302416.236478","303182.822152","305475.607935","Mapping"
"Blocked","m160","done","21","m160done.wav","None","733.918124344","178","297083.108847","303949.520982","304716.401916","305466.313261","306232.524526","306999.788216","293183.04352","293949.702776","297832.81552","298599.727989","299366.170825","300132.895627","300900.01617","301649.288144","302416.236478","303182.822152","306241.569697","Mapping"
"Blocked","m160","done","21","m160dime.wav","space","468.938141596","178","297083.108847","303949.520982","304716.401916","305466.313261","306232.524526","306999.788216","307766.084504","293949.702776","297832.81552","298599.727989","299366.170825","300132.895627","300900.01617","301649.288144","302416.236478","303182.822152","307009.614977","Mapping"
"Blocked","m160","done","21","m160greet.wav","None","726.264850702","178","297083.108847","303949.520982","304716.401916","305466.313261","306232.524526","306999.788216","307766.084504","308532.866811","297832.81552","298599.727989","299366.170825","300132.895627","300900.01617","301649.288144","302416.236478","303182.822152","307776.17839","Mapping"
"Blocked","m160","tile","14","m160ball.wav","None","723.724683747","178","311649.773855","303949.520982","304716.401916","305466.313261","306232.524526","306999.788216","307766.084504","308532.866811","297832.81552","298599.727989","299366.170825","300132.895627","300900.01617","301649.288144","302416.236478","303182.822152","308542.465094","Mapping"
"Blocked","m160","tile","14","m160romp.wav","None","720.620584674","178","311649.773855","303949.520982","304716.401916","305466.313261","306232.524526","306999.788216","307766.084504","308532.866811","312399.098389","298599.727989","299366.170825","300132.895627","300900.01617","301649.288144","302416.236478","303182.822152","311659.519922","Mapping"
"Blocked","m160","tile","14","m160tile.wav","None","735.605900642","178","311649.773855","303949.520982","304716.401916","305466.313261","306232.524526","306999.788216","307766.084504","308532.866811","312399.098389","313165.968193","299366.170825","300132.895627","300900.01617","301649.288144","302416.236478","303182.822152","312408.526008","Mapping"
"Blocked","m160","tile","14","m160done.wav","space","446.892237291","178","311649.773855","303949.520982","304716.401916","305466.313261","306232.524526","306999.788216","307766.084504","308532.866811","312399.098389","313165.968193","313932.635797","300132.895627","300900.01617","301649.288144","302416.236478","303182.822152","313175.56091","Mapping"
"Blocked","m160","tile","14","m160romp.wav","None","728.567263577","178","311649.773855","303949.520982","304716.401916","305466.313261","306232.524526","306999.788216","307766.084504","308532.866811","312399.098389","313165.968193","313932.635797","314699.343285","300900.01617","301649.288144","302416.236478","303182.822152","313942.349092","Mapping"
"Blocked","m160","tile","14","m160park.wav","None","726.213837508","178","311649.773855","303949.520982","304716.401916","305466.313261","306232.524526","306999.788216","307766.084504","308532.866811","312399.098389","313165.968193","313932.635797","314699.343285","315466.273068","301649.288144","302416.236478","303182.822152","314708.837376","Mapping"
"Blocked","m160","tile","14","m160tile.wav","None","723.045739345","178","311649.773855","303949.520982","304716.401916","305466.313261","306232.524526","306999.788216","307766.084504","308532.866811","312399.098389","313165.968193","313932.635797","314699.343285","315466.273068","316232.858433","302416.236478","303182.822152","315476.265856","Mapping"
"Blocked","m160","tile","14","m160reek.wav","space","707.902745344","178","311649.773855","303949.520982","304716.401916","305466.313261","306232.524526","306999.788216","307766.084504","308532.866811","312399.098389","313165.968193","313932.635797","314699.343285","315466.273068","316232.858433","316982.429996","303182.822152","316242.470318","Mapping"
"Blocked","m160","tile","14","m160cling.wav","None","734.130216762","178","311649.773855","303949.520982","304716.401916","305466.313261","306232.524526","306999.788216","307766.084504","308532.866811","312399.098389","313165.968193","313932.635797","314699.343285","315466.273068","316232.858433","316982.429996","317749.205811","316992.082693","Mapping"
"Blocked","m160","tile","14","m160gnash.wav","None","731.466380879","178","311649.773855","318515.918555","304716.401916","305466.313261","306232.524526","306999.788216","307766.084504","308532.866811","312399.098389","313165.968193","313932.635797","314699.343285","315466.273068","316232.858433","316982.429996","317749.205811","317758.725254","Mapping"
"Blocked","m160","tile","14","m160cad.wav","None","728.617968038","178","311649.773855","318515.918555","319282.505156","305466.313261","306232.524526","306999.788216","307766.084504","308532.866811","312399.098389","313165.968193","313932.635797","314699.343285","315466.273068","316232.858433","316982.429996","317749.205811","318525.557339","Mapping"
"Blocked","m160","tile","14","m160reek.wav","None","726.39532201","178","311649.773855","318515.918555","319282.505156","320049.630028","306232.524526","306999.788216","307766.084504","308532.866811","312399.098389","313165.968193","313932.635797","314699.343285","315466.273068","316232.858433","316982.429996","317749.205811","319292.333772","Mapping"
"Blocked","m160","tile","14","m160tile.wav","None","723.433751613","178","311649.773855","318515.918555","319282.505156","320049.630028","320816.195296","306999.788216","307766.084504","308532.866811","312399.098389","313165.968193","313932.635797","314699.343285","315466.273068","316232.858433","316982.429996","317749.205811","320059.314878","Mapping"
"Blocked","m160","tile","14","m160bluff.wav","space","444.336611778","178","311649.773855","318515.918555","319282.505156","320049.630028","320816.195296","321565.657412","307766.084504","308532.866811","312399.098389","313165.968193","313932.635797","314699.343285","315466.273068","316232.858433","316982.429996","317749.205811","320825.968261","Mapping"
"Blocked","m160","tile","14","m160tile.wav","None","734.652101528","178","311649.773855","318515.918555","319282.505156","320049.630028","320816.195296","321565.657412","322332.534327","308532.866811","312399.098389","313165.968193","313932.635797","314699.343285","315466.273068","316232.858433","316982.429996","317749.205811","321575.049166","Mapping"
"Blocked","m160","tile","14","m160cave.wav","space","608.374945819","178","311649.773855","318515.918555","319282.505156","320049.630028","320816.195296","321565.657412","322332.534327","323098.973143","312399.098389","313165.968193","313932.635797","314699.343285","315466.273068","316232.858433","316982.429996","317749.205811","322341.899492","Mapping"
"Blocked","m160","cave","12","m160ball.wav","None","728.939508088","178","326232.727034","318515.918555","319282.505156","320049.630028","320816.195296","321565.657412","322332.534327","323098.973143","312399.098389","313165.968193","313932.635797","314699.343285","315466.273068","316232.858433","316982.429996","317749.205811","323108.194234","Mapping"
"Blocked","m160","cave","12","m160reek.wav","None","719.739441294","178","326232.727034","318515.918555","319282.505156","320049.630028","320816.195296","321565.657412","322332.534327","323098.973143","326982.204918","313165.968193","313932.635797","314699.343285","315466.273068","316232.858433","316982.429996","317749.205811","326242.533081","Mapping"
"Blocked","m160","cave","12","m160cave.wav","None","734.139491804","178","326232.727034","318515.918555","319282.505156","320049.630028","320816.195296","321565.657412","322332.534327","323098.973143","326982.204918","327749.146141","313932.635797","314699.343285","315466.273068","316232.858433","316982.429996","317749.205811","326992.112064","Mapping"
"Blocked","m160","cave","12","m160bluff.wav","space","407.806252129","178","326232.727034","318515.918555","319282.505156","320049.630028","320816.195296","321565.657412","322332.534327","323098.973143","326982.204918","327749.146141","328515.700588","314699.343285","315466.273068","316232.858433","316982.429996","317749.205811","327758.379599","Mapping"
"Blocked","m160","cave","12","m160cave.wav","None","727.540190332","178","326232.727034","318515.918555","319282.505156","320049.630028","320816.195296","321565.657412","322332.534327","323098.973143","326982.204918","327749.146141","328515.700588","329282.355825","315466.273068","316232.858433","316982.429996","317749.205811","328525.573106","Mapping"
"Blocked","m160","cave","12","m160jaw.wav","space","410.463286564","178","326232.727034","318515.918555","319282.505156","320049.630028","320816.195296","321565.657412","322332.534327","323098.973143","326982.204918","327749.146141","328515.700588","329282.355825","330049.358883","316232.858433","316982.429996","317749.205811","329291.693165","Mapping"
"Blocked","m160","cave","12","m160cave.wav","None","721.168130636","178","326232.727034","318515.918555","319282.505156","320049.630028","320816.195296","321565.657412","322332.534327","323098.973143","326982.204918","327749.146141","328515.700588","329282.355825","330049.358883","330798.964146","316982.429996","317749.205811","330058.961493","Mapping"
"Blocked","m160","cave","12","m160cling.wav","space","397.144723684","178","326232.727034","318515.918555","319282.505156","320049.630028","320816.195296","321565.657412","322332.534327","323098.973143","326982.204918","327749.146141","328515.700588","329282.355825","330049.358883","330798.964146","331565.705952","317749.205811","330808.936218","Mapping"
"Blocked","m160","cave","12","m160ball.wav","None","731.838624924","178","326232.727034","318515.918555","319282.505156","320049.630028","320816.195296","321565.657412","322332.534327","323098.973143","326982.204918","327749.146141","328515.700588","329282.355825","330049.358883","330798.964146","331565.705952","332332.315432","331575.09647","Mapping"
"Blocked","m160","cave","12","m160romp.wav","None","729.135214817","178","326232.727034","333099.038997","319282.505156","320049.630028","320816.195296","321565.657412","322332.534327","323098.973143","326982.204918","327749.146141","328515.700588","329282.355825","330049.358883","330798.964146","331565.705952","332332.315432","332341.678433","Mapping"
"Blocked","m160","cave","12","m160lash.wav","None","725.916412659","178","326232.727034","333099.038997","333866.041127","320049.630028","320816.195296","321565.657412","322332.534327","323098.973143","326982.204918","327749.146141","328515.700588","329282.355825","330049.358883","330798.964146","331565.705952","332332.315432","333108.706533","Mapping"
"Blocked","m160","cave","12","m160tile.wav","None","722.386891022","178","326232.727034","333099.038997","333866.041127","334632.475924","320816.195296","321565.657412","322332.534327","323098.973143","326982.204918","327749.146141","328515.700588","329282.355825","330049.358883","330798.964146","331565.705952","332332.315432","333876.211379","Mapping"
"Blocked","m160","cave","12","m160cad.wav","None","720.225461759","178","326232.727034","333099.038997","333866.041127","334632.475924","335382.05769","321565.657412","322332.534327","323098.973143","326982.204918","327749.146141","328515.700588","329282.355825","330049.358883","330798.964146","331565.705952","332332.315432","334642.138514","Mapping"
"Blocked","m160","cave","12","m160cave.wav","None","734.851208515","178","326232.727034","333099.038997","333866.041127","334632.475924","335382.05769","336148.869987","322332.534327","323098.973143","326982.204918","327749.146141","328515.700588","329282.355825","330049.358883","330798.964146","331565.705952","332332.315432","335391.646078","Mapping"
"Blocked","m160","cave","12","m160greet.wav","space","623.537417501","178","326232.727034","333099.038997","333866.041127","334632.475924","335382.05769","336148.869987","336915.623542","323098.973143","326982.204918","327749.146141","328515.700588","329282.355825","330049.358883","330798.964146","331565.705952","332332.315432","336158.507225","Mapping"
"Blocked","m160","cave","12","m160romp.wav","None","728.493680246","178","326232.727034","333099.038997","333866.041127","334632.475924","335382.05769","336148.869987","336915.623542","337681.916738","326982.204918","327749.146141","328515.700588","329282.355825","330049.358883","330798.964146","331565.705952","332332.315432","336925.009422","Mapping"
"Blocked","m160","done","22","m160romp.wav","None","730.591729749","178","340815.818104","333099.038997","333866.041127","334632.475924","335382.05769","336148.869987","336915.623542","337681.916738","326982.204918","327749.146141","328515.700588","329282.355825","330049.358883","330798.964146","331565.705952","332332.315432","337691.171838","Mapping"
"Blocked","m160","done","22","m160done.wav","None","718.672793824","178","340815.818104","333099.038997","333866.041127","334632.475924","335382.05769","336148.869987","336915.623542","337681.916738","341565.16088","327749.146141","328515.700588","329282.355825","330049.358883","330798.964146","331565.705952","332332.315432","340826.282999","Mapping"
"Blocked","m160","done","22","m160priest.wav","space","399.652427528","178","340815.818104","333099.038997","333866.041127","334632.475924","335382.05769","336148.869987","336915.623542","337681.916738","341565.16088","342332.179396","328515.700588","329282.355825","330049.358883","330798.964146","331565.705952","332332.315432","341574.284581","Mapping"
"Blocked","m160","done","22","m160done.wav","None","730.730239302","178","340815.818104","333099.038997","333866.041127","334632.475924","335382.05769","336148.869987","336915.623542","337681.916738","341565.16088","342332.179396","343098.864623","329282.355825","330049.358883","330798.964146","331565.705952","332332.315432","342341.558474","Mapping"
"Blocked","m160","done","22","m160knife.wav","space","369.487635326","178","340815.818104","333099.038997","333866.041127","334632.475924","335382.05769","336148.869987","336915.623542","337681.916738","341565.16088","342332.179396","343098.864623","343865.409177","330049.358883","330798.964146","331565.705952","332332.315432","343108.389322","Mapping"
"Blocked","m160","done","22","m160done.wav","None","728.096392471","178","340815.818104","333099.038997","333866.041127","334632.475924","335382.05769","336148.869987","336915.623542","337681.916738","341565.16088","342332.179396","343098.864623","343865.409177","344632.145727","330798.964146","331565.705952","332332.315432","343875.42948","Mapping"
"Blocked","m160","done","22","m160priest.wav","space","364.300327376","178","340815.818104","333099.038997","333866.041127","334632.475924","335382.05769","336148.869987","336915.623542","337681.916738","341565.16088","342332.179396","343098.864623","343865.409177","344632.145727","345399.143837","331565.705952","332332.315432","344641.599934","Mapping"
"Blocked","m160","done","22","m160done.wav","None","721.416087821","178","340815.818104","333099.038997","333866.041127","334632.475924","335382.05769","336148.869987","336915.623542","337681.916738","341565.16088","342332.179396","343098.864623","343865.409177","344632.145727","345399.143837","346165.690246","332332.315432","345408.86146","Mapping"
"Blocked","m160","done","22","m160cling.wav","space","470.043435693","178","340815.818104","333099.038997","333866.041127","334632.475924","335382.05769","336148.869987","336915.623542","337681.916738","341565.16088","342332.179396","343098.864623","343865.409177","344632.145727","345399.143837","346165.690246","346915.3963","346175.764655","Mapping"
"Blocked","m160","done","22","m160cad.wav","None","731.965695508","178","340815.818104","347681.993722","333866.041127","334632.475924","335382.05769","336148.869987","336915.623542","337681.916738","341565.16088","342332.179396","343098.864623","343865.409177","344632.145727","345399.143837","346165.690246","346915.3963","346925.670434","Mapping"
"Blocked","m160","done","22","m160dime.wav","None","730.359540787","178","340815.818104","347681.993722","348448.687297","334632.475924","335382.05769","336148.869987","336915.623542","337681.916738","341565.16088","342332.179396","343098.864623","343865.409177","344632.145727","345399.143837","346165.690246","346915.3963","347691.340955","Mapping"
"Blocked","m160","done","22","m160tile.wav","None","727.930366993","178","340815.818104","347681.993722","348448.687297","349215.435287","335382.05769","336148.869987","336915.623542","337681.916738","341565.16088","342332.179396","343098.864623","343865.409177","344632.145727","345399.143837","346165.690246","346915.3963","348457.853664","Mapping"
"Blocked","m160","done","22","m160tile.wav","None","724.345194642","178","340815.818104","347681.993722","348448.687297","349215.435287","349982.336935","336148.869987","336915.623542","337681.916738","341565.16088","342332.179396","343098.864623","343865.409177","344632.145727","345399.143837","346165.690246","346915.3963","349225.678194","Mapping"
"Blocked","m160","done","22","m160reek.wav","None","722.941857297","178","340815.818104","347681.993722","348448.687297","349215.435287","349982.336935","350749.025563","336915.623542","337681.916738","341565.16088","342332.179396","343098.864623","343865.409177","344632.145727","345399.143837","346165.690246","346915.3963","349991.82577","Mapping"
"Blocked","m160","done","22","m160cave.wav","None","720.276474953","178","340815.818104","347681.993722","348448.687297","349215.435287","349982.336935","350749.025563","351498.225191","337681.916738","341565.16088","342332.179396","343098.864623","343865.409177","344632.145727","345399.143837","346165.690246","346915.3963","350758.755244","Mapping"
"Blocked","m160","done","22","m160greet.wav","None","735.516240355","178","340815.818104","347681.993722","348448.687297","349215.435287","349982.336935","350749.025563","351498.225191","352265.31358","341565.16088","342332.179396","343098.864623","343865.409177","344632.145727","345399.143837","346165.690246","346915.3963","351507.634259","Mapping"
"Blocked","m160","cave","11","m160knife.wav","None","732.142542489","178","355398.958334","347681.993722","348448.687297","349215.435287","349982.336935","350749.025563","351498.225191","352265.31358","341565.16088","342332.179396","343098.864623","343865.409177","344632.145727","345399.143837","346165.690246","346915.3963","352275.244842","Mapping"
"Blocked","m160","cave","11","m160park.wav","None","719.869912136","178","355398.958334","347681.993722","348448.687297","349215.435287","349982.336935","350749.025563","351498.225191","352265.31358","356148.472081","342332.179396","343098.864623","343865.409177","344632.145727","345399.143837","346165.690246","346915.3963","355408.80921","Mapping"
"Blocked","m160","cave","11","m160cave.wav","None","735.081852414","178","355398.958334","347681.993722","348448.687297","349215.435287","349982.336935","350749.025563","351498.225191","352265.31358","356148.472081","356915.517805","343098.864623","343865.409177","344632.145727","345399.143837","346165.690246","346915.3963","356157.671221","Mapping"
"Blocked","m160","cave","11","m160priest.wav","space","504.955273122","178","355398.958334","347681.993722","348448.687297","349215.435287","349982.336935","350749.025563","351498.225191","352265.31358","356148.472081","356915.517805","357681.819348","343865.409177","344632.145727","345399.143837","346165.690246","346915.3963","356924.682626","Mapping"
"Blocked","m160","cave","11","m160cave.wav","None","728.674546815","178","355398.958334","347681.993722","348448.687297","349215.435287","349982.336935","350749.025563","351498.225191","352265.31358","356148.472081","356915.517805","357681.819348","358448.234358","344632.145727","345399.143837","346165.690246","346915.3963","357691.153287","Mapping"
"Blocked","m160","cave","11","m160done.wav","space","636.188475415","178","355398.958334","347681.993722","348448.687297","349215.435287","349982.336935","350749.025563","351498.225191","352265.31358","356148.472081","356915.517805","357681.819348","358448.234358","359215.498358","345399.143837","346165.690246","346915.3963","358457.451739","Mapping"
"Blocked","m160","cave","11","m160tile.wav","None","721.564181615","178","355398.958334","347681.993722","348448.687297","349215.435287","349982.336935","350749.025563","351498.225191","352265.31358","356148.472081","356915.517805","357681.819348","358448.234358","359215.498358","359982.199662","346165.690246","346915.3963","359225.339031","Mapping"
"Blocked","m160","cave","11","m160cad.wav","None","718.485125341","178","355398.958334","347681.993722","348448.687297","349215.435287","349982.336935","350749.025563","351498.225191","352265.31358","356148.472081","356915.517805","357681.819348","358448.234358","359215.498358","359982.199662","360731.635498","346915.3963","359992.484","Mapping"
"Blocked","m160","cave","11","m160lash.wav","None","734.084150288","178","355398.958334","347681.993722","348448.687297","349215.435287","349982.336935","350749.025563","351498.225191","352265.31358","356148.472081","356915.517805","357681.819348","358448.234358","359215.498358","359982.199662","360731.635498","361498.500356","360741.089396","Mapping"
"Blocked","m160","cave","11","m160cad.wav","None","731.466380879","178","355398.958334","362265.070261","348448.687297","349215.435287","349982.336935","350749.025563","351498.225191","352265.31358","356148.472081","356915.517805","357681.819348","358448.234358","359215.498358","359982.199662","360731.635498","361498.500356","361507.942196","Mapping"
"Blocked","m160","cave","11","m160cave.wav","None","728.894060012","178","355398.958334","362265.070261","363031.662427","349215.435287","349982.336935","350749.025563","351498.225191","352265.31358","356148.472081","356915.517805","357681.819348","358448.234358","359215.498358","359982.199662","360731.635498","361498.500356","362274.771188","Mapping"
"Blocked","m160","cave","11","m160cling.wav","space","692.218079697","178","355398.958334","362265.070261","363031.662427","363798.61107","349982.336935","350749.025563","351498.225191","352265.31358","356148.472081","356915.517805","357681.819348","358448.234358","359215.498358","359982.199662","360731.635498","361498.500356","363041.35748","Mapping"
"Blocked","m160","cave","11","m160cave.wav","None","722.084829118","178","355398.958334","362265.070261","363031.662427","363798.61107","364565.48242","350749.025563","351498.225191","352265.31358","356148.472081","356915.517805","357681.819348","358448.234358","359215.498358","359982.199662","360731.635498","361498.500356","363808.640339","Mapping"
"Blocked","m160","cave","11","m160lash.wav","space","598.296517506","178","355398.958334","362265.070261","363031.662427","363798.61107","364565.48242","365315.04749","351498.225191","352265.31358","356148.472081","356915.517805","357681.819348","358448.234358","359215.498358","359982.199662","360731.635498","361498.500356","364575.218902","Mapping"
"Blocked","m160","cave","11","m160dime.wav","None","733.433340676","178","355398.958334","362265.070261","363031.662427","363798.61107","364565.48242","365315.04749","366081.478268","352265.31358","356148.472081","356915.517805","357681.819348","358448.234358","359215.498358","359982.199662","360731.635498","361498.500356","365324.489022","Mapping"
"Blocked","m160","cave","11","m160romp.wav","None","731.385068037","178","355398.958334","362265.070261","363031.662427","363798.61107","364565.48242","365315.04749","366081.478268","366848.383936","356148.472081","356915.517805","357681.819348","358448.234358","359215.498358","359982.199662","360731.635498","361498.500356","366090.651746","Mapping"
"Blocked","m160","ball","1","m160priest.wav","None","728.713193443","178","369981.938101","362265.070261","363031.662427","363798.61107","364565.48242","365315.04749","366081.478268","366848.383936","356148.472081","356915.517805","357681.819348","358448.234358","359215.498358","359982.199662","360731.635498","361498.500356","366857.649857","Mapping"
"Blocked","m160","ball","1","m160done.wav","None","719.516836572","178","369981.938101","362265.070261","363031.662427","363798.61107","364565.48242","365315.04749","366081.478268","366848.383936","370731.390015","356915.517805","357681.819348","358448.234358","359215.498358","359982.199662","360731.635498","361498.500356","369992.003853","Mapping"
"Blocked","m160","ball","1","m160ball.wav","None","734.720737673","178","369981.938101","362265.070261","363031.662427","363798.61107","364565.48242","365315.04749","366081.478268","366848.383936","370731.390015","371498.35659","357681.819348","358448.234358","359215.498358","359982.199662","360731.635498","361498.500356","370741.096507","Mapping"
"Blocked","m160","ball","1","m160lash.wav","space","417.64909029","178","369981.938101","362265.070261","363031.662427","363798.61107","364565.48242","365315.04749","366081.478268","366848.383936","370731.390015","371498.35659","372264.975345","358448.234358","359215.498358","359982.199662","360731.635498","361498.500356","371507.748035","Mapping"
"Blocked","m160","ball","1","m160dime.wav","None","727.920473088","178","369981.938101","362265.070261","363031.662427","363798.61107","364565.48242","365315.04749","366081.478268","366848.383936","370731.390015","371498.35659","372264.975345","373031.490836","359215.498358","359982.199662","360731.635498","361498.500356","372275.062121","Mapping"
"Blocked","m160","ball","1","m160priest.wav","None","726.79075459","178","369981.938101","362265.070261","363031.662427","363798.61107","364565.48242","365315.04749","366081.478268","366848.383936","370731.390015","371498.35659","372264.975345","373031.490836","373798.392794","359982.199662","360731.635498","361498.500356","373040.557031","Mapping"
"Blocked","m160","ball","1","m160cad.wav","None","723.652646411","178","369981.938101","362265.070261","363031.662427","363798.61107","364565.48242","365315.04749","366081.478268","366848.383936","370731.390015","371498.35659","372264.975345","373031.490836","373798.392794","374565.288878","360731.635498","361498.500356","373807.904507","Mapping"
"Blocked","m160","ball","1","m160ball.wav","None","720.693858806","178","369981.938101","362265.070261","363031.662427","363798.61107","364565.48242","365315.04749","366081.478268","366848.383936","370731.390015","371498.35659","372264.975345","373031.490836","373798.392794","374565.288878","375314.830451","361498.500356","374575.08874","Mapping"
"Blocked","m160","ball","1","m160romp.wav","space","488.999462686","178","369981.938101","362265.070261","363031.662427","363798.61107","364565.48242","365315.04749","366081.478268","366848.383936","370731.390015","371498.35659","372264.975345","373031.490836","373798.392794","374565.288878","375314.830451","376081.53732","375324.313102","Mapping"
"Blocked","m160","ball","1","m160lash.wav","None","731.646319386","178","369981.938101","376848.178645","363031.662427","363798.61107","364565.48242","365315.04749","366081.478268","366848.383936","370731.390015","371498.35659","372264.975345","373031.490836","373798.392794","374565.288878","375314.830451","376081.53732","376091.105922","Mapping"
"Blocked","m160","ball","1","m160ball.wav","None","729.681833182","178","369981.938101","376848.178645","377614.580052","363798.61107","364565.48242","365315.04749","366081.478268","366848.383936","370731.390015","371498.35659","372264.975345","373031.490836","373798.392794","374565.288878","375314.830451","376081.53732","376857.328317","Mapping"
"Blocked","m160","ball","1","m160jolt.wav","space","453.446400352","178","369981.938101","376848.178645","377614.580052","378381.802931","364565.48242","365315.04749","366081.478268","366848.383936","370731.390015","371498.35659","372264.975345","373031.490836","373798.392794","374565.288878","375314.830451","376081.53732","377623.796814","Mapping"
"Blocked","m160","ball","1","m160knife.wav","None","722.645051312","178","369981.938101","376848.178645","377614.580052","378381.802931","379148.476101","365315.04749","366081.478268","366848.383936","370731.390015","371498.35659","372264.975345","373031.490836","373798.392794","374565.288878","375314.830451","376081.53732","378391.664628","Mapping"
"Blocked","m160","ball","1","m160ball.wav","None","720.147240441","178","369981.938101","376848.178645","377614.580052","378381.802931","379148.476101","379898.245226","366081.478268","366848.383936","370731.390015","371498.35659","372264.975345","373031.490836","373798.392794","374565.288878","375314.830451","376081.53732","379158.685927","Mapping"
"Blocked","m160","ball","1","m160tile.wav","space","401.856213808","178","369981.938101","376848.178645","377614.580052","378381.802931","379148.476101","379898.245226","380664.812658","366848.383936","370731.390015","371498.35659","372264.975345","373031.490836","373798.392794","374565.288878","375314.830451","376081.53732","379907.380675","Mapping"
"Blocked","m160","ball","1","m160lash.wav","None","732.214889023","178","369981.938101","376848.178645","377614.580052","378381.802931","379148.476101","379898.245226","380664.812658","381431.340825","370731.390015","371498.35659","372264.975345","373031.490836","373798.392794","374565.288878","375314.830451","376081.53732","380674.324681","Mapping"
"Blocked","m160","ball","6","m160lash.wav","None","730.034599546","178","384565.191488","376848.178645","377614.580052","378381.802931","379148.476101","379898.245226","380664.812658","381431.340825","370731.390015","371498.35659","372264.975345","373031.490836","373798.392794","374565.288878","375314.830451","376081.53732","381440.810182","Mapping"
"Blocked","m160","ball","6","m160ball.wav","None","718.793680426","178","384565.191488","376848.178645","377614.580052","378381.802931","379148.476101","379898.245226","380664.812658","381431.340825","385314.584967","371498.35659","372264.975345","373031.490836","373798.392794","374565.288878","375314.830451","376081.53732","384575.217047","Mapping"
"Blocked","m160","ball","6","m160knife.wav","space","465.075331274","178","384565.191488","376848.178645","377614.580052","378381.802931","379148.476101","379898.245226","380664.812658","381431.340825","385314.584967","386081.321208","372264.975345","373031.490836","373798.392794","374565.288878","375314.830451","376081.53732","385324.11214","Mapping"
"Blocked","m160","ball","6","m160ball.wav","None","730.414882768","178","384565.191488","376848.178645","377614.580052","378381.802931","379148.476101","379898.245226","380664.812658","381431.340825","385314.584967","386081.321208","386848.04972","373031.490836","373798.392794","374565.288878","375314.830451","376081.53732","386091.059855","Mapping"
"Blocked","m160","ball","6","m160reek.wav","space","476.000275929","178","384565.191488","376848.178645","377614.580052","378381.802931","379148.476101","379898.245226","380664.812658","381431.340825","385314.584967","386081.321208","386848.04972","387614.644669","373798.392794","374565.288878","375314.830451","376081.53732","386857.152706","Mapping"
"Blocked","m160","ball","6","m160jolt.wav","None","724.339320324","178","384565.191488","376848.178645","377614.580052","378381.802931","379148.476101","379898.245226","380664.812658","381431.340825","385314.584967","386081.321208","386848.04972","387614.644669","388381.57538","374565.288878","375314.830451","376081.53732","387624.569437","Mapping"
"Blocked","m160","ball","6","m160reek.wav","None","721.653532702","178","384565.191488","376848.178645","377614.580052","378381.802931","379148.476101","379898.245226","380664.812658","381431.340825","385314.584967","386081.321208","386848.04972","387614.644669","388381.57538","389148.309765","375314.830451","376081.53732","388391.683179","Mapping"
"Blocked","m160","ball","6","m160cad.wav","None","719.679770526","178","384565.191488","376848.178645","377614.580052","378381.802931","379148.476101","379898.245226","380664.812658","381431.340825","385314.584967","386081.321208","386848.04972","387614.644669","388381.57538","389148.309765","389897.776519","376081.53732","389158.020587","Mapping"
"Blocked","m160","ball","6","m160ball.wav","None","734.250176232","178","384565.191488","376848.178645","377614.580052","378381.802931","379148.476101","379898.245226","380664.812658","381431.340825","385314.584967","386081.321208","386848.04972","387614.644669","388381.57538","389148.309765","389897.776519","390664.558518","389907.732205","Mapping"
"Blocked","m160","ball","6","m160reek.wav","space","474.886633921","178","384565.191488","391431.193659","377614.580052","378381.802931","379148.476101","379898.245226","380664.812658","381431.340825","385314.584967","386081.321208","386848.04972","387614.644669","388381.57538","389148.309765","389897.776519","390664.558518","390674.146597","Mapping"
"Blocked","m160","ball","6","m160tile.wav","None","728.997632395","178","384565.191488","391431.193659","392197.895273","378381.802931","379148.476101","379898.245226","380664.812658","381431.340825","385314.584967","386081.321208","386848.04972","387614.644669","388381.57538","389148.309765","389897.776519","390664.558518","391440.521105","Mapping"
"Blocked","m160","ball","6","m160ball.wav","None","725.882094353","178","384565.191488","391431.193659","392197.895273","392964.952126","379148.476101","379898.245226","380664.812658","381431.340825","385314.584967","386081.321208","386848.04972","387614.644669","388381.57538","389148.309765","389897.776519","390664.558518","392207.895789","Mapping"
"Blocked","m160","ball","6","m160dime.wav","space","478.005573153","178","384565.191488","391431.193659","392197.895273","392964.952126","393731.66085","379898.245226","380664.812658","381431.340825","385314.584967","386081.321208","386848.04972","387614.644669","388381.57538","389148.309765","389897.776519","390664.558518","392975.015714","Mapping"
"Blocked","m160","ball","6","m160cling.wav","None","719.274444506","178","384565.191488","391431.193659","392197.895273","392964.952126","393731.66085","394480.984148","380664.812658","381431.340825","385314.584967","386081.321208","386848.04972","387614.644669","388381.57538","389148.309765","389897.776519","390664.558518","393742.044742","Mapping"
"Blocked","m160","ball","6","m160priest.wav","None","735.323007219","178","384565.191488","391431.193659","392197.895273","392964.952126","393731.66085","394480.984148","395247.869719","381431.340825","385314.584967","386081.321208","386848.04972","387614.644669","388381.57538","389148.309765","389897.776519","390664.558518","394490.317159","Mapping"
"Blocked","m160","ball","6","m160cling.wav","None","733.121694066","178","384565.191488","391431.193659","392197.895273","392964.952126","393731.66085","394480.984148","395247.869719","396014.494967","385314.584967","386081.321208","386848.04972","387614.644669","388381.57538","389148.309765","389897.776519","390664.558518","395256.98229","Mapping"
"Blocked","m160","cave","7","m160lash.wav","None","730.367270298","178","399148.145285","391431.193659","392197.895273","392964.952126","393731.66085","394480.984148","395247.869719","396014.494967","385314.584967","386081.321208","386848.04972","387614.644669","388381.57538","389148.309765","389897.776519","390664.558518","396024.059549","Mapping"
"Blocked","m160","cave","7","m160bluff.wav","None","719.27011665","178","399148.145285","391431.193659","392197.895273","392964.952126","393731.66085","394480.984148","395247.869719","396014.494967","399897.574938","386081.321208","386848.04972","387614.644669","388381.57538","389148.309765","389897.776519","390664.558518","399158.727356","Mapping"
"Blocked","m160","cave","7","m160cave.wav","None","735.037949402","178","399148.145285","391431.193659","392197.895273","392964.952126","393731.66085","394480.984148","395247.869719","396014.494967","399897.574938","400664.495446","386848.04972","387614.644669","388381.57538","389148.309765","389897.776519","390664.558518","399907.363362","Mapping"
"Blocked","m160","cave","7","m160gnash.wav","space","506.977575365","178","399148.145285","391431.193659","392197.895273","392964.952126","393731.66085","394480.984148","395247.869719","396014.494967","399897.574938","400664.495446","401430.709185","387614.644669","388381.57538","389148.309765","389897.776519","390664.558518","400673.871124","Mapping"
"Blocked","m160","cave","7","m160done.wav","None","732.490362599","178","399148.145285","391431.193659","392197.895273","392964.952126","393731.66085","394480.984148","395247.869719","396014.494967","399897.574938","400664.495446","401430.709185","402197.806539","388381.57538","389148.309765","389897.776519","390664.558518","401439.718182","Mapping"
"Blocked","m160","cave","7","m160depth.wav","None","729.591245297","178","399148.145285","391431.193659","392197.895273","392964.952126","393731.66085","394480.984148","395247.869719","396014.494967","399897.574938","400664.495446","401430.709185","402197.806539","402964.394687","389148.309765","389897.776519","390664.558518","402206.921584","Mapping"
"Blocked","m160","cave","7","m160cave.wav","None","727.092198096","178","399148.145285","391431.193659","392197.895273","392964.952126","393731.66085","394480.984148","395247.869719","396014.494967","399897.574938","400664.495446","401430.709185","402197.806539","402964.394687","403730.9918","389897.776519","390664.558518","402974.058204","Mapping"
"Blocked","m160","cave","7","m160greet.wav","space","552.511367481","178","399148.145285","391431.193659","392197.895273","392964.952126","393731.66085","394480.984148","395247.869719","396014.494967","399897.574938","400664.495446","401430.709185","402197.806539","402964.394687","403730.9918","404498.669164","390664.558518","403740.301623","Mapping"
"Blocked","m160","cave","7","m160romp.wav","None","719.892172609","178","399148.145285","391431.193659","392197.895273","392964.952126","393731.66085","394480.984148","395247.869719","396014.494967","399897.574938","400664.495446","401430.709185","402197.806539","402964.394687","403730.9918","404498.669164","405247.922897","404508.745737","Mapping"
"Blocked","m160","cave","7","m160dime.wav","None","735.817065928","178","399148.145285","406014.271744","392197.895273","392964.952126","393731.66085","394480.984148","395247.869719","396014.494967","399897.574938","400664.495446","401430.709185","402197.806539","402964.394687","403730.9918","404498.669164","405247.922897","405257.251271","Mapping"
"Blocked","m160","cave","7","m160cave.wav","None","733.521454968","178","399148.145285","406014.271744","406780.724473","392964.952126","393731.66085","394480.984148","395247.869719","396014.494967","399897.574938","400664.495446","401430.709185","402197.806539","402964.394687","403730.9918","404498.669164","405247.922897","406023.868789","Mapping"
"Blocked","m160","cave","7","m160romp.wav","space","534.812747501","178","399148.145285","406014.271744","406780.724473","407547.719801","393731.66085","394480.984148","395247.869719","396014.494967","399897.574938","400664.495446","401430.709185","402197.806539","402964.394687","403730.9918","404498.669164","405247.922897","406789.940617","Mapping"
"Blocked","m160","cave","7","m160cling.wav","None","727.341701277","178","399148.145285","406014.271744","406780.724473","407547.719801","408314.28847","394480.984148","395247.869719","396014.494967","399897.574938","400664.495446","401430.709185","402197.806539","402964.394687","403730.9918","404498.669164","405247.922897","407557.491529","Mapping"
"Blocked","m160","cave","7","m160dime.wav","None","725.78161303","178","399148.145285","406014.271744","406780.724473","407547.719801","408314.28847","409081.037387","395247.869719","396014.494967","399897.574938","400664.495446","401430.709185","402197.806539","402964.394687","403730.9918","404498.669164","405247.922897","408323.500286","Mapping"
"Blocked","m160","cave","7","m160cave.wav","None","723.008638714","178","399148.145285","406014.271744","406780.724473","407547.719801","408314.28847","409081.037387","409847.983557","396014.494967","399897.574938","400664.495446","401430.709185","402197.806539","402964.394687","403730.9918","404498.669164","405247.922897","409090.709871","Mapping"
"Blocked","m160","cave","7","m160cad.wav","space","471.599813551","178","399148.145285","406014.271744","406780.724473","407547.719801","408314.28847","409081.037387","409847.983557","410597.602115","399897.574938","400664.495446","401430.709185","402197.806539","402964.394687","403730.9918","404498.669164","405247.922897","409853.10903","Mapping"
"Blocked","m160","cave","9","m160done.wav","None","733.997891191","178","413731.181323","406014.271744","406780.724473","407547.719801","408314.28847","409081.037387","409847.983557","410597.602115","399897.574938","400664.495446","401430.709185","402197.806539","402964.394687","403730.9918","404498.669164","405247.922897","410607.400431","Mapping"
"Blocked","m160","cave","9","m160ball.wav","None","719.853216782","178","413731.181323","406014.271744","406780.724473","407547.719801","408314.28847","409081.037387","409847.983557","410597.602115","414480.658279","400664.495446","401430.709185","402197.806539","402964.394687","403730.9918","404498.669164","405247.922897","413740.686853","Mapping"
"Blocked","m160","cave","9","m160priest.wav","None","734.920772724","178","413731.181323","406014.271744","406780.724473","407547.719801","408314.28847","409081.037387","409847.983557","410597.602115","414480.658279","415247.377207","401430.709185","402197.806539","402964.394687","403730.9918","404498.669164","405247.922897","414490.047869","Mapping"
"Blocked","m160","cave","9","m160reek.wav","None","732.607848477","178","413731.181323","406014.271744","406780.724473","407547.719801","408314.28847","409081.037387","409847.983557","410597.602115","414480.658279","415247.377207","416014.187649","402197.806539","402964.394687","403730.9918","404498.669164","405247.922897","415256.757521","Mapping"
"Blocked","m160","cave","9","m160knife.wav","None","730.356140062","178","413731.181323","406014.271744","406780.724473","407547.719801","408314.28847","409081.037387","409847.983557","410597.602115","414480.658279","415247.377207","416014.187649","416780.699739","402964.394687","403730.9918","404498.669164","405247.922897","416023.542302","Mapping"
"Blocked","m160","cave","9","m160cave.wav","None","728.187289555","178","413731.181323","406014.271744","406780.724473","407547.719801","408314.28847","409081.037387","409847.983557","410597.602115","414480.658279","415247.377207","416014.187649","416780.699739","417547.136392","403730.9918","404498.669164","405247.922897","416790.033987","Mapping"
"Blocked","m160","cave","9","m160greet.wav","space","464.298998006","178","413731.181323","406014.271744","406780.724473","407547.719801","408314.28847","409081.037387","409847.983557","410597.602115","414480.658279","415247.377207","416014.187649","416780.699739","417547.136392","418314.40472","404498.669164","405247.922897","417556.261638","Mapping"
"Blocked","m160","cave","9","m160cave.wav","None","721.205540467","178","413731.181323","406014.271744","406780.724473","407547.719801","408314.28847","409081.037387","409847.983557","410597.602115","414480.658279","415247.377207","416014.187649","416780.699739","417547.136392","418314.40472","419080.994412","405247.922897","418324.473254","Mapping"
"Blocked","m160","cave","9","m160greet.wav","space","449.811141938","178","413731.181323","406014.271744","406780.724473","407547.719801","408314.28847","409081.037387","409847.983557","410597.602115","414480.658279","415247.377207","416014.187649","416780.699739","417547.136392","418314.40472","419080.994412","419830.430557","419090.731513","Mapping"
"Blocked","m160","cave","9","m160romp.wav","None","734.030045103","178","413731.181323","420597.293559","406780.724473","407547.719801","408314.28847","409081.037387","409847.983557","410597.602115","414480.658279","415247.377207","416014.187649","416780.699739","417547.136392","418314.40472","419080.994412","419830.430557","419839.536326","Mapping"
"Blocked","m160","cave","9","m160cave.wav","None","731.320451014","178","413731.181323","420597.293559","421364.082978","407547.719801","408314.28847","409081.037387","409847.983557","410597.602115","414480.658279","415247.377207","416014.187649","416780.699739","417547.136392","418314.40472","419080.994412","419830.430557","420606.780848","Mapping"
"Blocked","m160","cave","9","m160priest.wav","space","599.098203704","178","413731.181323","420597.293559","421364.082978","422130.668343","408314.28847","409081.037387","409847.983557","410597.602115","414480.658279","415247.377207","416014.187649","416780.699739","417547.136392","418314.40472","419080.994412","419830.430557","421373.417535","Mapping"
"Blocked","m160","cave","9","m160romp.wav","None","725.54354975","178","413731.181323","420597.293559","421364.082978","422130.668343","422897.800635","409081.037387","409847.983557","410597.602115","414480.658279","415247.377207","416014.187649","416780.699739","417547.136392","418314.40472","419080.994412","419830.430557","422140.046802","Mapping"
"Blocked","m160","cave","9","m160cave.wav","None","722.086065449","178","413731.181323","420597.293559","421364.082978","422130.668343","422897.800635","423664.316435","409847.983557","410597.602115","414480.658279","415247.377207","416014.187649","416780.699739","417547.136392","418314.40472","419080.994412","419830.430557","422908.398164","Mapping"
"Blocked","m160","cave","9","m160romp.wav","space","466.348816175","178","413731.181323","420597.293559","421364.082978","422130.668343","422897.800635","423664.316435","424413.896346","410597.602115","414480.658279","415247.377207","416014.187649","416780.699739","417547.136392","418314.40472","419080.994412","419830.430557","423674.128355","Mapping"
"Blocked","m160","cave","9","m160ball.wav","None","734.757838771","178","413731.181323","420597.293559","421364.082978","422130.668343","422897.800635","423664.316435","424413.896346","425180.644026","414480.658279","415247.377207","416014.187649","416780.699739","417547.136392","418314.40472","419080.994412","419830.430557","424423.184527","Mapping"
"Blocked","m160","done","20","m160dime.wav","None","732.414924074","178","428314.308257","420597.293559","421364.082978","422130.668343","422897.800635","423664.316435","424413.896346","425180.644026","414480.658279","415247.377207","416014.187649","416780.699739","417547.136392","418314.40472","419080.994412","419830.430557","425190.133479","Mapping"
"Blocked","m160","done","20","m160done.wav","None","719.29608658","178","428314.308257","420597.293559","421364.082978","422130.668343","422897.800635","423664.316435","424413.896346","425180.644026","429063.557662","415247.377207","416014.187649","416780.699739","417547.136392","418314.40472","419080.994412","419830.430557","428324.018151","Mapping"
"Blocked","m160","done","20","m160reek.wav","space","498.340513092","178","428314.308257","420597.293559","421364.082978","422130.668343","422897.800635","423664.316435","424413.896346","425180.644026","429063.557662","429830.362539","416014.187649","416780.699739","417547.136392","418314.40472","419080.994412","419830.430557","429074.036778","Mapping"
"Blocked","m160","done","20","m160cave.wav","None","731.716501527","178","428314.308257","420597.293559","421364.082978","422130.668343","422897.800635","423664.316435","424413.896346","425180.644026","429063.557662","429830.362539","430597.384147","416780.699739","417547.136392","418314.40472","419080.994412","419830.430557","429839.257143","Mapping"
"Blocked","m160","done","20","m160cad.wav","None","728.099794127","178","428314.308257","420597.293559","421364.082978","422130.668343","422897.800635","423664.316435","424413.896346","425180.644026","429063.557662","429830.362539","430597.384147","431363.659102","417547.136392","418314.40472","419080.994412","419830.430557","430607.399504","Mapping"
"Blocked","m160","done","20","m160park.wav","None","727.295015939","178","428314.308257","420597.293559","421364.082978","422130.668343","422897.800635","423664.316435","424413.896346","425180.644026","429063.557662","429830.362539","430597.384147","431363.659102","432130.500461","418314.40472","419080.994412","419830.430557","431372.781566","Mapping"
"Blocked","m160","done","20","m160ball.wav","None","724.894286133","178","428314.308257","420597.293559","421364.082978","422130.668343","422897.800635","423664.316435","424413.896346","425180.644026","429063.557662","429830.362539","430597.384147","431363.659102","432130.500461","432897.558552","419080.994412","419830.430557","432139.838111","Mapping"
"Blocked","m160","done","20","m160bluff.wav","None","722.191493958","178","428314.308257","420597.293559","421364.082978","422130.668343","422897.800635","423664.316435","424413.896346","425180.644026","429063.557662","429830.362539","430597.384147","431363.659102","432130.500461","432897.558552","433663.590806","419830.430557","432907.265353","Mapping"
"Blocked","m160","done","20","m160jolt.wav","None","721.197501756","178","428314.308257","420597.293559","421364.082978","422130.668343","422897.800635","423664.316435","424413.896346","425180.644026","429063.557662","429830.362539","430597.384147","431363.659102","432130.500461","432897.558552","433663.590806","434413.350346","433672.941749","Mapping"
"Blocked","m160","done","20","m160cave.wav","None","736.180962529","178","428314.308257","435180.390813","421364.082978","422130.668343","422897.800635","423664.316435","424413.896346","425180.644026","429063.557662","429830.362539","430597.384147","431363.659102","432130.500461","432897.558552","433663.590806","434413.350346","434422.557215","Mapping"
"Blocked","m160","done","20","m160done.wav","None","733.7765228","178","428314.308257","435180.390813","435947.18085","422130.668343","422897.800635","423664.316435","424413.896346","425180.644026","429063.557662","429830.362539","430597.384147","431363.659102","432130.500461","432897.558552","433663.590806","434413.350346","435189.56491","Mapping"
"Blocked","m160","done","20","m160reek.wav","space","535.10027891","178","428314.308257","435180.390813","435947.18085","436713.544229","422897.800635","423664.316435","424413.896346","425180.644026","429063.557662","429830.362539","430597.384147","431363.659102","432130.500461","432897.558552","433663.590806","434413.350346","435957.130971","Mapping"
"Blocked","m160","done","20","m160done.wav","None","728.165647481","178","428314.308257","435180.390813","435947.18085","436713.544229","437480.163911","423664.316435","424413.896346","425180.644026","429063.557662","429830.362539","430597.384147","431363.659102","432130.500461","432897.558552","433663.590806","434413.350346","436722.677823","Mapping"
"Blocked","m160","done","20","m160cave.wav","space","562.991102226","178","428314.308257","435180.390813","435947.18085","436713.544229","437480.163911","438247.251373","424413.896346","425180.644026","429063.557662","429830.362539","430597.384147","431363.659102","432130.500461","432897.558552","433663.590806","434413.350346","437489.209082","Mapping"
"Blocked","m160","done","20","m160done.wav","None","721.801626496","178","428314.308257","435180.390813","435947.18085","436713.544229","437480.163911","438247.251373","439014.130143","425180.644026","429063.557662","429830.362539","430597.384147","431363.659102","432130.500461","432897.558552","433663.590806","434413.350346","438256.887065","Mapping"
"Blocked","m160","done","20","m160priest.wav","space","380.013746209","178","428314.308257","435180.390813","435947.18085","436713.544229","437480.163911","438247.251373","439014.130143","439763.705725","429063.557662","429830.362539","430597.384147","431363.659102","432130.500461","432897.558552","433663.590806","434413.350346","439024.170851","Mapping"
"Blocked","m160","cave","8","m160ball.wav","None","732.984730508","178","442897.281533","435180.390813","435947.18085","436713.544229","437480.163911","438247.251373","439014.130143","439763.705725","429063.557662","429830.362539","430597.384147","431363.659102","432130.500461","432897.558552","433663.590806","434413.350346","439773.46014","Mapping"
"Blocked","m160","cave","8","m160bluff.wav","None","720.308319665","178","442897.281533","435180.390813","435947.18085","436713.544229","437480.163911","438247.251373","439014.130143","439763.705725","443646.775803","429830.362539","430597.384147","431363.659102","432130.500461","432897.558552","433663.590806","434413.350346","442906.852298","Mapping"
"Blocked","m160","cave","8","m160cave.wav","None","737.699003424","178","442897.281533","435180.390813","435947.18085","436713.544229","437480.163911","438247.251373","439014.130143","439763.705725","443646.775803","444413.647152","430597.384147","431363.659102","432130.500461","432897.558552","433663.590806","434413.350346","443654.079092","Mapping"
"Blocked","m160","cave","8","m160cad.wav","space","428.457785398","178","442897.281533","435180.390813","435947.18085","436713.544229","437480.163911","438247.251373","439014.130143","439763.705725","443646.775803","444413.647152","445180.218604","431363.659102","432130.500461","432897.558552","433663.590806","434413.350346","444423.633446","Mapping"
"Blocked","m160","cave","8","m160cave.wav","None","730.324913282","178","442897.281533","435180.390813","435947.18085","436713.544229","437480.163911","438247.251373","439014.130143","439763.705725","443646.775803","444413.647152","445180.218604","445947.00524","432130.500461","432897.558552","433663.590806","434413.350346","445189.529355","Mapping"
"Blocked","m160","cave","8","m160priest.wav","space","591.490687802","178","442897.281533","435180.390813","435947.18085","436713.544229","437480.163911","438247.251373","439014.130143","439763.705725","443646.775803","444413.647152","445180.218604","445947.00524","446713.364908","432897.558552","433663.590806","434413.350346","445956.584044","Mapping"
"Blocked","m160","cave","8","m160gnash.wav","None","724.639836699","178","442897.281533","435180.390813","435947.18085","436713.544229","437480.163911","438247.251373","439014.130143","439763.705725","443646.775803","444413.647152","445180.218604","445947.00524","446713.364908","447480.439075","433663.590806","434413.350346","446723.048212","Mapping"
"Blocked","m160","cave","8","m160gnash.wav","None","721.684759017","178","442897.281533","435180.390813","435947.18085","436713.544229","437480.163911","438247.251373","439014.130143","439763.705725","443646.775803","444413.647152","445180.218604","445947.00524","446713.364908","447480.439075","448247.305169","434413.350346","447490.71692","Mapping"
"Blocked","m160","cave","8","m160lash.wav","None","720.246176235","178","442897.281533","435180.390813","435947.18085","436713.544229","437480.163911","438247.251373","439014.130143","439763.705725","443646.775803","444413.647152","445180.218604","445947.00524","446713.364908","447480.439075","448247.305169","448996.74688","448256.925093","Mapping"
"Blocked","m160","cave","8","m160cave.wav","None","735.868079588","178","442897.281533","449763.542791","435947.18085","436713.544229","437480.163911","438247.251373","439014.130143","439763.705725","443646.775803","444413.647152","445180.218604","445947.00524","446713.364908","447480.439075","448247.305169","448996.74688","449006.004144","Mapping"
"Blocked","m160","cave","8","m160cad.wav","None","733.043473214","178","442897.281533","449763.542791","450530.10775","436713.544229","437480.163911","438247.251373","439014.130143","439763.705725","443646.775803","444413.647152","445180.218604","445947.00524","446713.364908","447480.439075","448247.305169","448996.74688","449773.489202","Mapping"
"Blocked","m160","cave","8","m160tile.wav","space","0.0333907082677","178","442897.281533","449763.542791","450530.10775","451296.845227","437480.163911","438247.251373","439014.130143","439763.705725","443646.775803","444413.647152","445180.218604","445947.00524","446713.364908","447480.439075","448247.305169","448996.74688","450539.431795","Mapping"
"Blocked","m160","cave","8","m160romp.wav","None","727.610063273","178","442897.281533","449763.542791","450530.10775","451296.845227","452063.435539","438247.251373","439014.130143","439763.705725","443646.775803","444413.647152","445180.218604","445947.00524","446713.364908","447480.439075","448247.305169","448996.74688","451306.618811","Mapping"
