"Condition","Talker","Target","Trial","current_stimulus","response_response","response_time_response","subject_nr","time_Audio1","time_Audio10","time_Audio11","time_Audio12","time_Audio13","time_Audio14","time_Audio15","time_Audio16","time_Audio2","time_Audio3","time_Audio4","time_Audio5","time_Audio6","time_Audio7","time_Audio8","time_Audio9","time_response","title"
"Mixed","Both","ball","1","m160park.wav","NA","NA","140","146690.225428","NA","NA","NA","NA","NA","NA","NA","NA","NA","NA","NA","NA","NA","NA","NA","NA","Mapping"
"Mixed","Both","ball","1","m160cave.wav","None","717.717503314","140","146690.225428","NA","NA","NA","NA","NA","NA","NA","147457.007942","NA","NA","NA","NA","NA","NA","NA","146705.241708","Mapping"
"Mixed","Both","ball","1","m160jolt.wav","None","723.410945269","140","146690.225428","NA","NA","NA","NA","NA","NA","NA","147457.007942","148222.741429","NA","NA","NA","NA","NA","NA","147466.607491","Mapping"
"Mixed","Both","ball","1","m160gnash.wav","None","725.729751517","140","146690.225428","NA","NA","NA","NA","NA","NA","NA","147457.007942","148222.741429","148989.104084","NA","NA","NA","NA","NA","148231.993465","Mapping"
"Mixed","Both","ball","1","m150ball.wav","None","729.661828373","140","146690.225428","NA","NA","NA","NA","NA","NA","NA","147457.007942","148222.741429","148989.104084","149756.125281","NA","NA","NA","NA","148997.891741","Mapping"
"Mixed","Both","ball","1","m150gnash.wav","space","565.024735522","140","146690.225428","NA","NA","NA","NA","NA","NA","NA","147457.007942","148222.741429","148989.104084","149756.125281","150523.410203","NA","NA","NA","149765.09937","Mapping"
"Mixed","Both","ball","1","m150depth.wav","None","729.198067216","140","146690.225428","NA","NA","NA","NA","NA","NA","NA","147457.007942","148222.741429","148989.104084","149756.125281","150523.410203","151289.131014","NA","NA","150533.005114","Mapping"
"Mixed","Both","ball","1","m160priest.wav","None","731.227795593","140","146690.225428","NA","NA","NA","NA","NA","NA","NA","147457.007942","148222.741429","148989.104084","149756.125281","150523.410203","151289.131014","152056.036579","NA","151298.313177","Mapping"
"Mixed","Both","ball","1","m160ball.wav","None","731.206153287","140","146690.225428","NA","NA","NA","NA","NA","NA","NA","147457.007942","148222.741429","148989.104084","149756.125281","150523.410203","151289.131014","152056.036579","152822.553204","152065.543993","Mapping"
"Mixed","Both","ball","1","m150romp.wav","space","346.112428699","140","146690.225428","153589.158561","NA","NA","NA","NA","NA","NA","147457.007942","148222.741429","148989.104084","149756.125281","150523.410203","151289.131014","152056.036579","152822.553204","152831.988271","Mapping"
"Mixed","Both","ball","1","m160greet.wav","None","733.286277042","140","146690.225428","153589.158561","154355.974157","NA","NA","NA","NA","NA","147457.007942","148222.741429","148989.104084","149756.125281","150523.410203","151289.131014","152056.036579","152822.553204","153598.409052","Mapping"
"Mixed","Both","ball","1","m150priest.wav","None","733.265562449","140","146690.225428","153589.158561","154355.974157","155122.496965","NA","NA","NA","NA","147457.007942","148222.741429","148989.104084","149756.125281","150523.410203","151289.131014","152056.036579","152822.553204","154365.382326","Mapping"
"Mixed","Both","ball","1","m160ball.wav","None","733.909263043","140","146690.225428","153589.158561","154355.974157","155122.496965","155889.158592","NA","NA","NA","147457.007942","148222.741429","148989.104084","149756.125281","150523.410203","151289.131014","152056.036579","152822.553204","155131.888439","Mapping"
"Mixed","Both","ball","1","m150gnash.wav","space","311.737209442","140","146690.225428","153589.158561","154355.974157","155122.496965","155889.158592","156655.849281","NA","NA","147457.007942","148222.741429","148989.104084","149756.125281","150523.410203","151289.131014","152056.036579","152822.553204","155898.316639","Mapping"
"Mixed","Both","ball","1","m150ball.wav","None","728.26961719","140","146690.225428","153589.158561","154355.974157","155122.496965","155889.158592","156655.849281","157422.854092","NA","147457.007942","148222.741429","148989.104084","149756.125281","150523.410203","151289.131014","152056.036579","152822.553204","156665.293624","Mapping"
"Mixed","Both","ball","1","m150gnash.wav","None","725.373891997","140","146690.225428","153589.158561","154355.974157","155122.496965","155889.158592","156655.849281","157422.854092","158189.715136","147457.007942","148222.741429","148989.104084","149756.125281","150523.410203","151289.131014","152056.036579","152822.553204","157432.009048","Mapping"
"Mixed","Both","tile","29","m150greet.wav","space","50.0868315576","140","161355.876149","153589.158561","154355.974157","155122.496965","155889.158592","156655.849281","157422.854092","158189.715136","147457.007942","148222.741429","148989.104084","149756.125281","150523.410203","151289.131014","152056.036579","152822.553204","158199.924994","Mapping"
"Mixed","Both","tile","29","m150tile.wav","None","724.824798759","140","161355.876149","153589.158561","154355.974157","155122.496965","155889.158592","156655.849281","157422.854092","158189.715136","162122.783569","148222.741429","148989.104084","149756.125281","150523.410203","151289.131014","152056.036579","152822.553204","161365.147354","Mapping"
"Mixed","Both","tile","29","m150ball.wav","space","533.526381711","140","161355.876149","153589.158561","154355.974157","155122.496965","155889.158592","156655.849281","157422.854092","158189.715136","162122.783569","162890.025207","148989.104084","149756.125281","150523.410203","151289.131014","152056.036579","152822.553204","162132.435986","Mapping"
"Mixed","Both","tile","29","m160tile.wav","None","721.135732718","140","161355.876149","153589.158561","154355.974157","155122.496965","155889.158592","156655.849281","157422.854092","158189.715136","162122.783569","162890.025207","163656.719297","149756.125281","150523.410203","151289.131014","152056.036579","152822.553204","162899.824173","Mapping"
"Mixed","Both","tile","29","m150greet.wav","space","583.406684804","140","161355.876149","153589.158561","154355.974157","155122.496965","155889.158592","156655.849281","157422.854092","158189.715136","162122.783569","162890.025207","163656.719297","164422.630868","150523.410203","151289.131014","152056.036579","152822.553204","163666.544234","Mapping"
"Mixed","Both","tile","29","m160greet.wav","None","719.889451633","140","161355.876149","153589.158561","154355.974157","155122.496965","155889.158592","156655.849281","157422.854092","158189.715136","162122.783569","162890.025207","163656.719297","164422.630868","165172.464146","151289.131014","152056.036579","152822.553204","164431.962053","Mapping"
"Mixed","Both","tile","29","m160dime.wav","None","733.592359349","140","161355.876149","153589.158561","154355.974157","155122.496965","155889.158592","156655.849281","157422.854092","158189.715136","162122.783569","162890.025207","163656.719297","164422.630868","165172.464146","165938.8874","152056.036579","152822.553204","165182.20746","Mapping"
"Mixed","Both","tile","29","m150tile.wav","None","735.296527389","140","161355.876149","153589.158561","154355.974157","155122.496965","155889.158592","156655.849281","157422.854092","158189.715136","162122.783569","162890.025207","163656.719297","164422.630868","165172.464146","165938.8874","166705.852636","152822.553204","165948.364824","Mapping"
"Mixed","Both","tile","29","m150park.wav","space","390.042057028","140","161355.876149","153589.158561","154355.974157","155122.496965","155889.158592","156655.849281","157422.854092","158189.715136","162122.783569","162890.025207","163656.719297","164422.630868","165172.464146","165938.8874","166705.852636","167472.313609","166715.87668","Mapping"
"Mixed","Both","tile","29","m160depth.wav","None","732.843848877","140","161355.876149","168238.821267","154355.974157","155122.496965","155889.158592","156655.849281","157422.854092","158189.715136","162122.783569","162890.025207","163656.719297","164422.630868","165172.464146","165938.8874","166705.852636","167472.313609","167481.767845","Mapping"
"Mixed","Both","tile","29","m160cling.wav","None","734.564712155","140","161355.876149","168238.821267","169005.634699","155122.496965","155889.158592","156655.849281","157422.854092","158189.715136","162122.783569","162890.025207","163656.719297","164422.630868","165172.464146","165938.8874","166705.852636","167472.313609","168247.930465","Mapping"
"Mixed","Both","tile","29","m150jolt.wav","None","734.999411041","140","161355.876149","168238.821267","169005.634699","169772.26139","155889.158592","156655.849281","157422.854092","158189.715136","162122.783569","162890.025207","163656.719297","164422.630868","165172.464146","165938.8874","166705.852636","167472.313609","169014.875296","Mapping"
"Mixed","Both","tile","29","m160cave.wav","None","735.280141118","140","161355.876149","168238.821267","169005.634699","169772.26139","170539.205911","156655.849281","157422.854092","158189.715136","162122.783569","162890.025207","163656.719297","164422.630868","165172.464146","165938.8874","166705.852636","167472.313609","169782.258227","Mapping"
"Mixed","Both","tile","29","m150cling.wav","None","732.461091247","140","161355.876149","168238.821267","169005.634699","169772.26139","170539.205911","171305.68327","157422.854092","158189.715136","162122.783569","162890.025207","163656.719297","164422.630868","165172.464146","165938.8874","166705.852636","167472.313609","170548.890791","Mapping"
"Mixed","Both","tile","29","m160tile.wav","None","733.863195986","140","161355.876149","168238.821267","169005.634699","169772.26139","170539.205911","171305.68327","172072.544006","158189.715136","162122.783569","162890.025207","163656.719297","164422.630868","165172.464146","165938.8874","166705.852636","167472.313609","171314.970862","Mapping"
"Mixed","Both","tile","29","m160reek.wav","space","471.920957789","140","161355.876149","168238.821267","169005.634699","169772.26139","170539.205911","171305.68327","172072.544006","172839.140088","162122.783569","162890.025207","163656.719297","164422.630868","165172.464146","165938.8874","166705.852636","167472.313609","172081.871481","Mapping"
"Mixed","Both","done","40","m150cave.wav","None","731.885099784","140","175972.365396","168238.821267","169005.634699","169772.26139","170539.205911","171305.68327","172072.544006","172839.140088","162122.783569","162890.025207","163656.719297","164422.630868","165172.464146","165938.8874","166705.852636","167472.313609","172848.769935","Mapping"
"Mixed","Both","done","40","m150done.wav","None","724.519334617","140","175972.365396","168238.821267","169005.634699","169772.26139","170539.205911","171305.68327","172072.544006","172839.140088","176739.07309","162890.025207","163656.719297","164422.630868","165172.464146","165938.8874","166705.852636","167472.313609","175982.11242","Mapping"
"Mixed","Both","done","40","m160tile.wav","space","540.967894485","140","175972.365396","168238.821267","169005.634699","169772.26139","170539.205911","171305.68327","172072.544006","172839.140088","176739.07309","177506.270516","163656.719297","164422.630868","165172.464146","165938.8874","166705.852636","167472.313609","176748.744676","Mapping"
"Mixed","Both","done","40","m150lash.wav","None","722.059545107","140","175972.365396","168238.821267","169005.634699","169772.26139","170539.205911","171305.68327","172072.544006","172839.140088","176739.07309","177506.270516","178272.425716","164422.630868","165172.464146","165938.8874","166705.852636","167472.313609","177515.488852","Mapping"
"Mixed","Both","done","40","m150cling.wav","None","723.408781108","140","175972.365396","168238.821267","169005.634699","169772.26139","170539.205911","171305.68327","172072.544006","172839.140088","176739.07309","177506.270516","178272.425716","179039.459588","165172.464146","165938.8874","166705.852636","167472.313609","178282.308467","Mapping"
"Mixed","Both","done","40","m160jaw.wav","None","720.104018576","140","175972.365396","168238.821267","169005.634699","169772.26139","170539.205911","171305.68327","172072.544006","172839.140088","176739.07309","177506.270516","178272.425716","179039.459588","179805.858727","165938.8874","166705.852636","167472.313609","179049.588134","Mapping"
"Mixed","Both","done","40","m160ball.wav","None","721.371323452","140","175972.365396","168238.821267","169005.634699","169772.26139","170539.205911","171305.68327","172072.544006","172839.140088","176739.07309","177506.270516","178272.425716","179039.459588","179805.858727","180572.071433","166705.852636","167472.313609","179815.704068","Mapping"
"Mixed","Both","done","40","m160bluff.wav","None","721.692246269","140","175972.365396","168238.821267","169005.634699","169772.26139","170539.205911","171305.68327","172072.544006","172839.140088","176739.07309","177506.270516","178272.425716","179039.459588","179805.858727","180572.071433","181339.370577","167472.313609","180581.544529","Mapping"
"Mixed","Both","done","40","m150done.wav","None","721.15180979","140","175972.365396","168238.821267","169005.634699","169772.26139","170539.205911","171305.68327","172072.544006","172839.140088","176739.07309","177506.270516","178272.425716","179039.459588","179805.858727","180572.071433","181339.370577","182105.928631","181349.435123","Mapping"
"Mixed","Both","done","40","m150gnash.wav","space","589.242656366","140","175972.365396","182855.807976","169005.634699","169772.26139","170539.205911","171305.68327","172072.544006","172839.140088","176739.07309","177506.270516","178272.425716","179039.459588","179805.858727","180572.071433","181339.370577","182105.928631","182116.418601","Mapping"
"Mixed","Both","done","40","m150cad.wav","None","732.491390198","140","175972.365396","182855.807976","183622.072932","169772.26139","170539.205911","171305.68327","172072.544006","172839.140088","176739.07309","177506.270516","178272.425716","179039.459588","179805.858727","180572.071433","181339.370577","182105.928631","182865.862628","Mapping"
"Mixed","Both","done","40","m160done.wav","None","734.45866548","140","175972.365396","182855.807976","183622.072932","184388.510717","170539.205911","171305.68327","172072.544006","172839.140088","176739.07309","177506.270516","178272.425716","179039.459588","179805.858727","180572.071433","181339.370577","182105.928631","183631.539227","Mapping"
"Mixed","Both","done","40","m150jolt.wav","space","483.975348994","140","175972.365396","182855.807976","183622.072932","184388.510717","185155.547373","171305.68327","172072.544006","172839.140088","176739.07309","177506.270516","178272.425716","179039.459588","179805.858727","180572.071433","181339.370577","182105.928631","184397.633828","Mapping"
"Mixed","Both","done","40","m160done.wav","None","731.653837487","140","175972.365396","182855.807976","183622.072932","184388.510717","185155.547373","185922.241154","172072.544006","172839.140088","176739.07309","177506.270516","178272.425716","179039.459588","179805.858727","180572.071433","181339.370577","182105.928631","185165.11724","Mapping"
"Mixed","Both","done","40","m160cad.wav","space","509.781806497","140","175972.365396","182855.807976","183622.072932","184388.510717","185155.547373","185922.241154","186688.707383","172839.140088","176739.07309","177506.270516","178272.425716","179039.459588","179805.858727","180572.071433","181339.370577","182105.928631","185931.816896","Mapping"
"Mixed","Both","done","40","m160depth.wav","None","730.808555381","140","175972.365396","182855.807976","183622.072932","184388.510717","185155.547373","185922.241154","186688.707383","187455.458052","176739.07309","177506.270516","178272.425716","179039.459588","179805.858727","180572.071433","181339.370577","182105.928631","186698.167185","Mapping"
"Mixed","Both","done","37","m160jolt.wav","None","728.29496942","140","190589.077248","182855.807976","183622.072932","184388.510717","185155.547373","185922.241154","186688.707383","187455.458052","176739.07309","177506.270516","178272.425716","179039.459588","179805.858727","180572.071433","181339.370577","182105.928631","187464.618883","Mapping"
"Mixed","Both","done","37","m160cling.wav","None","720.300034969","140","190589.077248","182855.807976","183622.072932","184388.510717","185155.547373","185922.241154","186688.707383","187455.458052","191338.810972","177506.270516","178272.425716","179039.459588","179805.858727","180572.071433","181339.370577","182105.928631","190598.358965","Mapping"
"Mixed","Both","done","37","m160done.wav","None","734.201123356","140","190589.077248","182855.807976","183622.072932","184388.510717","185155.547373","185922.241154","186688.707383","187455.458052","191338.810972","192105.364079","178272.425716","179039.459588","179805.858727","180572.071433","181339.370577","182105.928631","191348.309729","Mapping"
"Mixed","Both","done","37","m160jaw.wav","space","574.214009801","140","190589.077248","182855.807976","183622.072932","184388.510717","185155.547373","185922.241154","186688.707383","187455.458052","191338.810972","192105.364079","192872.253567","179039.459588","179805.858727","180572.071433","181339.370577","182105.928631","192115.295989","Mapping"
"Mixed","Both","done","37","m150depth.wav","None","727.557589067","140","190589.077248","182855.807976","183622.072932","184388.510717","185155.547373","185922.241154","186688.707383","187455.458052","191338.810972","192105.364079","192872.253567","193638.605402","179805.858727","180572.071433","181339.370577","182105.928631","192882.226907","Mapping"
"Mixed","Both","done","37","m160done.wav","None","725.81817524","140","190589.077248","182855.807976","183622.072932","184388.510717","185155.547373","185922.241154","186688.707383","187455.458052","191338.810972","192105.364079","192872.253567","193638.605402","194405.837455","180572.071433","181339.370577","182105.928631","193647.743044","Mapping"
"Mixed","Both","done","37","m150greet.wav","space","441.695473972","140","190589.077248","182855.807976","183622.072932","184388.510717","185155.547373","185922.241154","186688.707383","187455.458052","191338.810972","192105.364079","192872.253567","193638.605402","194405.837455","195172.594308","181339.370577","182105.928631","194415.787607","Mapping"
"Mixed","Both","done","37","m150romp.wav","None","718.715208233","140","190589.077248","182855.807976","183622.072932","184388.510717","185155.547373","185922.241154","186688.707383","187455.458052","191338.810972","192105.364079","192872.253567","193638.605402","194405.837455","195172.594308","195921.796871","182105.928631","195182.738931","Mapping"
"Mixed","Both","done","37","m150greet.wav","None","734.517099336","140","190589.077248","182855.807976","183622.072932","184388.510717","185155.547373","185922.241154","186688.707383","187455.458052","191338.810972","192105.364079","192872.253567","193638.605402","194405.837455","195172.594308","195921.796871","196688.803227","195930.962648","Mapping"
"Mixed","Both","done","37","m160lash.wav","None","730.607901351","140","190589.077248","197455.031701","183622.072932","184388.510717","185155.547373","185922.241154","186688.707383","187455.458052","191338.810972","192105.364079","192872.253567","193638.605402","194405.837455","195172.594308","195921.796871","196688.803227","196698.768838","Mapping"
"Mixed","Both","done","37","m160reek.wav","space","512.978976476","140","190589.077248","197455.031701","198222.20934","184388.510717","185155.547373","185922.241154","186688.707383","187455.458052","191338.810972","192105.364079","192872.253567","193638.605402","194405.837455","195172.594308","195921.796871","196688.803227","197464.445436","Mapping"
"Mixed","Both","done","37","m150done.wav","None","728.776353644","140","190589.077248","197455.031701","198222.20934","198988.521909","185155.547373","185922.241154","186688.707383","187455.458052","191338.810972","192105.364079","192872.253567","193638.605402","194405.837455","195172.594308","195921.796871","196688.803227","198231.449628","Mapping"
"Mixed","Both","done","37","m150cad.wav","space","715.732605197","140","190589.077248","197455.031701","198222.20934","198988.521909","199755.569695","185922.241154","186688.707383","187455.458052","191338.810972","192105.364079","192872.253567","193638.605402","194405.837455","195172.594308","195921.796871","196688.803227","198997.662334","Mapping"
"Mixed","Both","done","37","m160greet.wav","None","722.814548295","140","190589.077248","197455.031701","198222.20934","198988.521909","199755.569695","200522.070861","186688.707383","187455.458052","191338.810972","192105.364079","192872.253567","193638.605402","194405.837455","195172.594308","195921.796871","196688.803227","199765.512736","Mapping"
"Mixed","Both","done","37","m150done.wav","None","720.514292712","140","190589.077248","197455.031701","198222.20934","198988.521909","199755.569695","200522.070861","201271.80644","187455.458052","191338.810972","192105.364079","192872.253567","193638.605402","194405.837455","195172.594308","195921.796871","196688.803227","200531.935681","Mapping"
"Mixed","Both","done","37","m150tile.wav","space","535.813033697","140","190589.077248","197455.031701","198222.20934","198988.521909","199755.569695","200522.070861","201271.80644","202038.467139","191338.810972","192105.364079","192872.253567","193638.605402","194405.837455","195172.594308","195921.796871","196688.803227","201281.580981","Mapping"
"Mixed","Both","done","45","m160jolt.wav","None","732.584451674","140","205172.458272","197455.031701","198222.20934","198988.521909","199755.569695","200522.070861","201271.80644","202038.467139","191338.810972","192105.364079","192872.253567","193638.605402","194405.837455","195172.594308","195921.796871","196688.803227","202047.410002","Mapping"
"Mixed","Both","done","45","m160park.wav","None","720.493887202","140","205172.458272","197455.031701","198222.20934","198988.521909","199755.569695","200522.070861","201271.80644","202038.467139","205921.712775","192105.364079","192872.253567","193638.605402","194405.837455","195172.594308","195921.796871","196688.803227","205182.344734","Mapping"
"Mixed","Both","done","45","m150done.wav","None","735.354961362","140","205172.458272","197455.031701","198222.20934","198988.521909","199755.569695","200522.070861","201271.80644","202038.467139","205921.712775","206688.701818","192872.253567","193638.605402","194405.837455","195172.594308","195921.796871","196688.803227","205931.420226","Mapping"
"Mixed","Both","done","45","m150jaw.wav","space","526.406100835","140","205172.458272","197455.031701","198222.20934","198988.521909","199755.569695","200522.070861","201271.80644","202038.467139","205921.712775","206688.701818","207454.844033","193638.605402","194405.837455","195172.594308","195921.796871","196688.803227","206698.756161","Mapping"
"Mixed","Both","done","45","m150done.wav","None","735.42947229","140","205172.458272","197455.031701","198222.20934","198988.521909","199755.569695","200522.070861","201271.80644","202038.467139","205921.712775","206688.701818","207454.844033","208222.164819","194405.837455","195172.594308","195921.796871","196688.803227","207464.2117","Mapping"
"Mixed","Both","done","45","m160tile.wav","None","730.168874026","140","205172.458272","197455.031701","198222.20934","198988.521909","199755.569695","200522.070861","201271.80644","202038.467139","205921.712775","206688.701818","207454.844033","208222.164819","208988.625792","195172.594308","195921.796871","196688.803227","208233.353213","Mapping"
"Mixed","Both","done","45","m150gnash.wav","space","96.4502787683","140","205172.458272","197455.031701","198222.20934","198988.521909","199755.569695","200522.070861","201271.80644","202038.467139","205921.712775","206688.701818","207454.844033","208222.164819","208988.625792","209755.016892","195921.796871","196688.803227","208992.818503","Mapping"
"Mixed","Both","done","45","m160done.wav","None","727.281187312","140","205172.458272","197455.031701","198222.20934","198988.521909","199755.569695","200522.070861","201271.80644","202038.467139","205921.712775","206688.701818","207454.844033","208222.164819","208988.625792","209755.016892","210522.379726","196688.803227","209764.298918","Mapping"
"Mixed","Both","done","45","m150cling.wav","space","396.650654613","140","205172.458272","197455.031701","198222.20934","198988.521909","199755.569695","200522.070861","201271.80644","202038.467139","205921.712775","206688.701818","207454.844033","208222.164819","208988.625792","209755.016892","210522.379726","211288.78412","210532.563613","Mapping"
"Mixed","Both","done","45","m160priest.wav","None","720.901687862","140","205172.458272","212037.985755","198222.20934","198988.521909","199755.569695","200522.070861","201271.80644","202038.467139","205921.712775","206688.701818","207454.844033","208222.164819","208988.625792","209755.016892","210522.379726","211288.78412","211298.228772","Mapping"
"Mixed","Both","done","45","m160dime.wav","None","736.225595698","140","205172.458272","212037.985755","212805.042198","198988.521909","199755.569695","200522.070861","201271.80644","202038.467139","205921.712775","206688.701818","207454.844033","208222.164819","208988.625792","209755.016892","210522.379726","211288.78412","212047.065273","Mapping"
"Mixed","Both","done","45","m150bluff.wav","None","733.136327588","140","205172.458272","212037.985755","212805.042198","213571.549238","199755.569695","200522.070861","201271.80644","202038.467139","205921.712775","206688.701818","207454.844033","208222.164819","208988.625792","209755.016892","210522.379726","211288.78412","212814.262699","Mapping"
"Mixed","Both","done","45","m160reek.wav","None","733.586485148","140","205172.458272","212037.985755","212805.042198","213571.549238","214338.36236","200522.070861","201271.80644","202038.467139","205921.712775","206688.701818","207454.844033","208222.164819","208988.625792","209755.016892","210522.379726","211288.78412","213581.175993","Mapping"
"Mixed","Both","done","45","m160done.wav","None","731.229650555","140","205172.458272","212037.985755","212805.042198","213571.549238","214338.36236","215105.054286","201271.80644","202038.467139","205921.712775","206688.701818","207454.844033","208222.164819","208988.625792","209755.016892","210522.379726","211288.78412","214347.451462","Mapping"
"Mixed","Both","done","45","m150knife.wav","space","478.80441125","140","205172.458272","212037.985755","212805.042198","213571.549238","214338.36236","215105.054286","215871.838656","202038.467139","205921.712775","206688.701818","207454.844033","208222.164819","208988.625792","209755.016892","210522.379726","211288.78412","215114.357955","Mapping"
"Mixed","Both","done","45","m150tile.wav","None","728.67618117","140","205172.458272","212037.985755","212805.042198","213571.549238","214338.36236","215105.054286","215871.838656","216638.244905","205921.712775","206688.701818","207454.844033","208222.164819","208988.625792","209755.016892","210522.379726","211288.78412","215881.70533","Mapping"
"Mixed","Both","cave","19","m150cling.wav","None","727.071876521","140","219772.216559","212037.985755","212805.042198","213571.549238","214338.36236","215105.054286","215871.838656","216638.244905","205921.712775","206688.701818","207454.844033","208222.164819","208988.625792","209755.016892","210522.379726","211288.78412","216647.35905","Mapping"
"Mixed","Both","cave","19","m160reek.wav","None","718.750454136","140","219772.216559","212037.985755","212805.042198","213571.549238","214338.36236","215105.054286","215871.838656","216638.244905","220521.701089","206688.701818","207454.844033","208222.164819","208988.625792","209755.016892","210522.379726","211288.78412","219782.661699","Mapping"
"Mixed","Both","cave","19","m150romp.wav","None","733.627296053","140","219772.216559","212037.985755","212805.042198","213571.549238","214338.36236","215105.054286","215871.838656","216638.244905","220521.701089","221288.51452","207454.844033","208222.164819","208988.625792","209755.016892","210522.379726","211288.78412","220531.93228","Mapping"
"Mixed","Both","cave","19","m160cad.wav","None","731.521510868","140","219772.216559","212037.985755","212805.042198","213571.549238","214338.36236","215105.054286","215871.838656","216638.244905","220521.701089","221288.51452","222054.99559","208222.164819","208988.625792","209755.016892","210522.379726","211288.78412","221298.041413","Mapping"
"Mixed","Both","cave","19","m160lash.wav","None","729.362547747","140","219772.216559","212037.985755","212805.042198","213571.549238","214338.36236","215105.054286","215871.838656","216638.244905","220521.701089","221288.51452","222054.99559","222821.511287","208988.625792","209755.016892","210522.379726","211288.78412","222064.280708","Mapping"
"Mixed","Both","cave","19","m150knife.wav","None","727.408567094","140","219772.216559","212037.985755","212805.042198","213571.549238","214338.36236","215105.054286","215871.838656","216638.244905","220521.701089","221288.51452","222054.99559","222821.511287","223588.424272","209755.016892","210522.379726","211288.78412","222830.896268","Mapping"
"Mixed","Both","cave","19","m160cave.wav","None","723.937159753","140","219772.216559","212037.985755","212805.042198","213571.549238","214338.36236","215105.054286","215871.838656","216638.244905","220521.701089","221288.51452","222054.99559","222821.511287","223588.424272","224355.340041","210522.379726","211288.78412","223598.475524","Mapping"
"Mixed","Both","cave","19","m150lash.wav","space","476.113359327","140","219772.216559","212037.985755","212805.042198","213571.549238","214338.36236","215105.054286","215871.838656","216638.244905","220521.701089","221288.51452","222054.99559","222821.511287","223588.424272","224355.340041","225104.76088","211288.78412","224364.938352","Mapping"
"Mixed","Both","cave","19","m150cave.wav","None","736.0855398","140","219772.216559","212037.985755","212805.042198","213571.549238","214338.36236","215105.054286","215871.838656","216638.244905","220521.701089","221288.51452","222054.99559","222821.511287","223588.424272","224355.340041","225104.76088","225871.471048","225113.971797","Mapping"
"Mixed","Both","cave","19","m160dime.wav","None","733.562369482","140","219772.216559","226638.36672","212805.042198","213571.549238","214338.36236","215105.054286","215871.838656","216638.244905","220521.701089","221288.51452","222054.99559","222821.511287","223588.424272","224355.340041","225104.76088","225871.471048","225880.824184","Mapping"
"Mixed","Both","cave","19","m150knife.wav","space","64.7565268446","140","219772.216559","226638.36672","227404.777297","213571.549238","214338.36236","215105.054286","215871.838656","216638.244905","220521.701089","221288.51452","222054.99559","222821.511287","223588.424272","224355.340041","225104.76088","225871.471048","226648.212371","Mapping"
"Mixed","Both","cave","19","m150cave.wav","None","727.59530833","140","219772.216559","226638.36672","227404.777297","228171.418519","214338.36236","215105.054286","215871.838656","216638.244905","220521.701089","221288.51452","222054.99559","222821.511287","223588.424272","224355.340041","225104.76088","225871.471048","227414.154859","Mapping"
"Mixed","Both","cave","19","m160jolt.wav","space","500.560687389","140","219772.216559","226638.36672","227404.777297","228171.418519","228938.87225","215105.054286","215871.838656","216638.244905","220521.701089","221288.51452","222054.99559","222821.511287","223588.424272","224355.340041","225104.76088","225871.471048","228180.405284","Mapping"
"Mixed","Both","cave","19","m160cad.wav","None","720.199553412","140","219772.216559","226638.36672","227404.777297","228171.418519","228938.87225","229688.023799","215871.838656","216638.244905","220521.701089","221288.51452","222054.99559","222821.511287","223588.424272","224355.340041","225104.76088","225871.471048","228949.103441","Mapping"
"Mixed","Both","cave","19","m160cave.wav","None","736.154176528","140","219772.216559","226638.36672","227404.777297","228171.418519","228938.87225","229688.023799","230454.895974","216638.244905","220521.701089","221288.51452","222054.99559","222821.511287","223588.424272","224355.340041","225104.76088","225871.471048","229697.368588","Mapping"
"Mixed","Both","cave","19","m150dime.wav","space","576.008147444","140","219772.216559","226638.36672","227404.777297","228171.418519","228938.87225","229688.023799","230454.895974","231221.484327","220521.701089","221288.51452","222054.99559","222821.511287","223588.424272","224355.340041","225104.76088","225871.471048","230464.915381","Mapping"
"Mixed","Both","done","42","m150tile.wav","None","733.703971375","140","234355.180198","226638.36672","227404.777297","228171.418519","228938.87225","229688.023799","230454.895974","231221.484327","220521.701089","221288.51452","222054.99559","222821.511287","223588.424272","224355.340041","225104.76088","225871.471048","231231.379445","Mapping"
"Mixed","Both","done","42","m150cling.wav","None","720.179457101","140","234355.180198","226638.36672","227404.777297","228171.418519","228938.87225","229688.023799","230454.895974","231221.484327","235104.524053","221288.51452","222054.99559","222821.511287","223588.424272","224355.340041","225104.76088","225871.471048","234365.076553","Mapping"
"Mixed","Both","done","42","m160priest.wav","None","733.217022032","140","234355.180198","226638.36672","227404.777297","228171.418519","228938.87225","229688.023799","230454.895974","231221.484327","235104.524053","235871.647277","222054.99559","222821.511287","223588.424272","224355.340041","225104.76088","225871.471048","235116.103243","Mapping"
"Mixed","Both","done","42","m150knife.wav","None","732.152844546","140","234355.180198","226638.36672","227404.777297","228171.418519","228938.87225","229688.023799","230454.895974","231221.484327","235104.524053","235871.647277","236637.96232","222821.511287","223588.424272","224355.340041","225104.76088","225871.471048","235881.264139","Mapping"
"Mixed","Both","done","42","m160done.wav","None","730.582858203","140","234355.180198","226638.36672","227404.777297","228171.418519","228938.87225","229688.023799","230454.895974","231221.484327","235104.524053","235871.647277","236637.96232","237404.654864","223588.424272","224355.340041","225104.76088","225871.471048","236647.090068","Mapping"
"Mixed","Both","done","42","m150dime.wav","space","690.184307983","140","234355.180198","226638.36672","227404.777297","228171.418519","228938.87225","229688.023799","230454.895974","231221.484327","235104.524053","235871.647277","236637.96232","237404.654864","238171.965139","224355.340041","225104.76088","225871.471048","237414.629441","Mapping"
"Mixed","Both","done","42","m160priest.wav","None","722.789196065","140","234355.180198","226638.36672","227404.777297","228171.418519","228938.87225","229688.023799","230454.895974","231221.484327","235104.524053","235871.647277","236637.96232","237404.654864","238171.965139","238938.411272","225104.76088","225871.471048","238182.449234","Mapping"
"Mixed","Both","done","42","m160jolt.wav","None","721.747897565","140","234355.180198","226638.36672","227404.777297","228171.418519","228938.87225","229688.023799","230454.895974","231221.484327","235104.524053","235871.647277","236637.96232","237404.654864","238171.965139","238938.411272","239688.033383","225871.471048","238947.867981","Mapping"
"Mixed","Both","done","42","m160done.wav","None","734.819162521","140","234355.180198","226638.36672","227404.777297","228171.418519","228938.87225","229688.023799","230454.895974","231221.484327","235104.524053","235871.647277","236637.96232","237404.654864","238171.965139","238938.411272","239688.033383","240454.906795","239698.971038","Mapping"
"Mixed","Both","done","42","m160dime.wav","space","688.188588829","140","234355.180198","241221.380753","227404.777297","228171.418519","228938.87225","229688.023799","230454.895974","231221.484327","235104.524053","235871.647277","236637.96232","237404.654864","238171.965139","238938.411272","239688.033383","240454.906795","240464.602806","Mapping"
"Mixed","Both","done","42","m150done.wav","None","730.481758248","140","234355.180198","241221.380753","241987.871407","228171.418519","228938.87225","229688.023799","230454.895974","231221.484327","235104.524053","235871.647277","236637.96232","237404.654864","238171.965139","238938.411272","239688.033383","240454.906795","241231.078001","Mapping"
"Mixed","Both","done","42","m160jaw.wav","space","651.812085183","140","234355.180198","241221.380753","241987.871407","242754.655467","228938.87225","229688.023799","230454.895974","231221.484327","235104.524053","235871.647277","236637.96232","237404.654864","238171.965139","238938.411272","239688.033383","240454.906795","241996.937939","Mapping"
"Mixed","Both","done","42","m160cling.wav","None","725.615047966","140","234355.180198","241221.380753","241987.871407","242754.655467","243521.587931","229688.023799","230454.895974","231221.484327","235104.524053","235871.647277","236637.96232","237404.654864","238171.965139","238938.411272","239688.033383","240454.906795","242763.740859","Mapping"
"Mixed","Both","done","42","m150cling.wav","None","722.07654966","140","234355.180198","241221.380753","241987.871407","242754.655467","243521.587931","244287.850723","230454.895974","231221.484327","235104.524053","235871.647277","236637.96232","237404.654864","238171.965139","238938.411272","239688.033383","240454.906795","243531.581676","Mapping"
"Mixed","Both","done","42","m150done.wav","None","715.292341076","140","234355.180198","241221.380753","241987.871407","242754.655467","243521.587931","244287.850723","245054.865737","231221.484327","235104.524053","235871.647277","236637.96232","237404.654864","238171.965139","238938.411272","239688.033383","240454.906795","244304.313629","Mapping"
"Mixed","Both","done","42","m150cad.wav","space","536.271229852","140","234355.180198","241221.380753","241987.871407","242754.655467","243521.587931","244287.850723","245054.865737","245804.414883","235104.524053","235871.647277","236637.96232","237404.654864","238171.965139","238938.411272","239688.033383","240454.906795","245064.389846","Mapping"
"Mixed","Both","cave","15","m160park.wav","None","733.791158418","140","248938.363659","241221.380753","241987.871407","242754.655467","243521.587931","244287.850723","245054.865737","245804.414883","235104.524053","235871.647277","236637.96232","237404.654864","238171.965139","238938.411272","239688.033383","240454.906795","245813.677123","Mapping"
"Mixed","Both","cave","15","m160priest.wav","None","719.565437175","140","248938.363659","241221.380753","241987.871407","242754.655467","243521.587931","244287.850723","245054.865737","245804.414883","249687.918371","235871.647277","236637.96232","237404.654864","238171.965139","238938.411272","239688.033383","240454.906795","248948.233734","Mapping"
"Mixed","Both","cave","15","m160depth.wav","None","734.028604114","140","248938.363659","241221.380753","241987.871407","242754.655467","243521.587931","244287.850723","245054.865737","245804.414883","249687.918371","250454.697793","236637.96232","237404.654864","238171.965139","238938.411272","239688.033383","240454.906795","249697.933758","Mapping"
"Mixed","Both","cave","15","m150greet.wav","None","731.826665811","140","248938.363659","241221.380753","241987.871407","242754.655467","243521.587931","244287.850723","245054.865737","245804.414883","249687.918371","250454.697793","251221.369005","237404.654864","238171.965139","238938.411272","239688.033383","240454.906795","250464.407098","Mapping"
"Mixed","Both","cave","15","m160priest.wav","None","729.924008017","140","248938.363659","241221.380753","241987.871407","242754.655467","243521.587931","244287.850723","245054.865737","245804.414883","249687.918371","250454.697793","251221.369005","251987.730733","238171.965139","238938.411272","239688.033383","240454.906795","251230.618259","Mapping"
"Mixed","Both","cave","15","m150cave.wav","None","727.448141435","140","248938.363659","241221.380753","241987.871407","242754.655467","243521.587931","244287.850723","245054.865737","245804.414883","249687.918371","250454.697793","251221.369005","251987.730733","252754.419258","238938.411272","239688.033383","240454.906795","251997.448695","Mapping"
"Mixed","Both","cave","15","m150tile.wav","space","652.456404176","140","248938.363659","241221.380753","241987.871407","242754.655467","243521.587931","244287.850723","245054.865737","245804.414883","249687.918371","250454.697793","251221.369005","251987.730733","252754.419258","253521.301636","239688.033383","240454.906795","252764.136911","Mapping"
"Mixed","Both","cave","15","m150romp.wav","None","721.921035089","140","248938.363659","241221.380753","241987.871407","242754.655467","243521.587931","244287.850723","245054.865737","245804.414883","249687.918371","250454.697793","251221.369005","251987.730733","252754.419258","253521.301636","254287.97563","240454.906795","253531.054534","Mapping"
"Mixed","Both","cave","15","m150cave.wav","None","719.904601225","140","248938.363659","241221.380753","241987.871407","242754.655467","243521.587931","244287.850723","245054.865737","245804.414883","249687.918371","250454.697793","251221.369005","251987.730733","252754.419258","253521.301636","254287.97563","255037.641644","254297.421518","Mapping"
"Mixed","Both","cave","15","m150cad.wav","None","735.15708989","140","248938.363659","255804.477336","241987.871407","242754.655467","243521.587931","244287.850723","245054.865737","245804.414883","249687.918371","250454.697793","251221.369005","251987.730733","252754.419258","253521.301636","254287.97563","255037.641644","255046.496083","Mapping"
"Mixed","Both","cave","15","m160cave.wav","None","731.923128129","140","248938.363659","255804.477336","256571.228933","242754.655467","243521.587931","244287.850723","245054.865737","245804.414883","249687.918371","250454.697793","251221.369005","251987.730733","252754.419258","253521.301636","254287.97563","255037.641644","255814.061117","Mapping"
"Mixed","Both","cave","15","m150park.wav","space","515.234092716","140","248938.363659","255804.477336","256571.228933","257337.872319","243521.587931","244287.850723","245054.865737","245804.414883","249687.918371","250454.697793","251221.369005","251987.730733","252754.419258","253521.301636","254287.97563","255037.641644","256581.294407","Mapping"
"Mixed","Both","cave","15","m160cling.wav","None","725.867643137","140","248938.363659","255804.477336","256571.228933","257337.872319","258104.758407","244287.850723","245054.865737","245804.414883","249687.918371","250454.697793","251221.369005","251987.730733","252754.419258","253521.301636","254287.97563","255037.641644","257347.742086","Mapping"
"Mixed","Both","cave","15","m150romp.wav","None","723.226059228","140","248938.363659","255804.477336","256571.228933","257337.872319","258104.758407","258871.629963","245054.865737","245804.414883","249687.918371","250454.697793","251221.369005","251987.730733","252754.419258","253521.301636","254287.97563","255037.641644","258114.832537","Mapping"
"Mixed","Both","cave","15","m160cave.wav","None","720.274682739","140","248938.363659","255804.477336","256571.228933","257337.872319","258104.758407","258871.629963","259621.037508","245804.414883","249687.918371","250454.697793","251221.369005","251987.730733","252754.419258","253521.301636","254287.97563","255037.641644","258882.070465","Mapping"
"Mixed","Both","cave","15","m160knife.wav","space","449.836338637","140","248938.363659","255804.477336","256571.228933","257337.872319","258104.758407","258871.629963","259621.037508","260387.930088","249687.918371","250454.697793","251221.369005","251987.730733","252754.419258","253521.301636","254287.97563","255037.641644","259630.674157","Mapping"
"Mixed","Both","cave","13","m150cling.wav","None","736.068844446","140","263521.616684","255804.477336","256571.228933","257337.872319","258104.758407","258871.629963","259621.037508","260387.930088","249687.918371","250454.697793","251221.369005","251987.730733","252754.419258","253521.301636","254287.97563","255037.641644","260397.39731","Mapping"
"Mixed","Both","cave","13","m150cave.wav","None","719.460317981","140","263521.616684","255804.477336","256571.228933","257337.872319","258104.758407","258871.629963","259621.037508","260387.930088","264271.007534","250454.697793","251221.369005","251987.730733","252754.419258","253521.301636","254287.97563","255037.641644","263531.585077","Mapping"
"Mixed","Both","cave","13","m160depth.wav","None","734.263267368","140","263521.616684","255804.477336","256571.228933","257337.872319","258104.758407","258871.629963","259621.037508","260387.930088","264271.007534","265037.491695","251221.369005","251987.730733","252754.419258","253521.301636","254287.97563","255037.641644","264281.128968","Mapping"
"Mixed","Both","cave","13","m160cave.wav","space","97.7772542974","140","263521.616684","255804.477336","256571.228933","257337.872319","258104.758407","258871.629963","259621.037508","260387.930088","264271.007534","265037.491695","265804.203717","251987.730733","252754.419258","253521.301636","254287.97563","255037.641644","265046.599038","Mapping"
"Mixed","Both","cave","13","m160done.wav","space","667.073849007","140","263521.616684","255804.477336","256571.228933","257337.872319","258104.758407","258871.629963","259621.037508","260387.930088","264271.007534","265037.491695","265804.203717","266570.883277","252754.419258","253521.301636","254287.97563","255037.641644","265813.320645","Mapping"
"Mixed","Both","cave","13","m160cave.wav","None","726.388910785","140","263521.616684","255804.477336","256571.228933","257337.872319","258104.758407","258871.629963","259621.037508","260387.930088","264271.007534","265037.491695","265804.203717","266570.883277","267338.077611","253521.301636","254287.97563","255037.641644","266580.399039","Mapping"
"Mixed","Both","cave","13","m150cling.wav","space","556.184518849","140","263521.616684","255804.477336","256571.228933","257337.872319","258104.758407","258871.629963","259621.037508","260387.930088","264271.007534","265037.491695","265804.203717","266570.883277","267338.077611","268104.556825","254287.97563","255037.641644","267348.19719","Mapping"
"Mixed","Both","cave","13","m150cave.wav","None","720.438854187","140","263521.616684","255804.477336","256571.228933","257337.872319","258104.758407","258871.629963","259621.037508","260387.930088","264271.007534","265037.491695","265804.203717","266570.883277","267338.077611","268104.556825","268853.962206","255037.641644","268114.759263","Mapping"
"Mixed","Both","cave","13","m160jaw.wav","space","591.059672763","140","263521.616684","255804.477336","256571.228933","257337.872319","258104.758407","258871.629963","259621.037508","260387.930088","264271.007534","265037.491695","265804.203717","266570.883277","267338.077611","268104.556825","268853.962206","269621.09656","268865.295294","Mapping"
"Mixed","Both","cave","13","m150priest.wav","None","731.738241971","140","263521.616684","270387.71614","256571.228933","257337.872319","258104.758407","258871.629963","259621.037508","260387.930088","264271.007534","265037.491695","265804.203717","266570.883277","267338.077611","268104.556825","268853.962206","269621.09656","269631.201299","Mapping"
"Mixed","Both","cave","13","m150tile.wav","None","730.045513483","140","263521.616684","270387.71614","271154.113423","257337.872319","258104.758407","258871.629963","259621.037508","260387.930088","264271.007534","265037.491695","265804.203717","266570.883277","267338.077611","268104.556825","268853.962206","269621.09656","270397.369175","Mapping"
"Mixed","Both","cave","13","m160tile.wav","None","728.849937092","140","263521.616684","270387.71614","271154.113423","271920.960246","258104.758407","258871.629963","259621.037508","260387.930088","264271.007534","265037.491695","265804.203717","266570.883277","267338.077611","268104.556825","268853.962206","269621.09656","271163.372571","Mapping"
"Mixed","Both","cave","13","m150priest.wav","None","725.778291817","140","263521.616684","270387.71614","271154.113423","271920.960246","272687.798411","258871.629963","259621.037508","260387.930088","264271.007534","265037.491695","265804.203717","266570.883277","267338.077611","268104.556825","268853.962206","269621.09656","271930.837123","Mapping"
"Mixed","Both","cave","13","m160lash.wav","None","723.574498435","140","263521.616684","270387.71614","271154.113423","271920.960246","272687.798411","273454.524965","259621.037508","260387.930088","264271.007534","265037.491695","265804.203717","266570.883277","267338.077611","268104.556825","268853.962206","269621.09656","272697.5813","Mapping"
"Mixed","Both","cave","13","m150knife.wav","None","720.38567625","140","263521.616684","270387.71614","271154.113423","271920.960246","272687.798411","273454.524965","274204.408329","260387.930088","264271.007534","265037.491695","265804.203717","266570.883277","267338.077611","268104.556825","268853.962206","269621.09656","273465.090682","Mapping"
"Mixed","Both","cave","13","m160depth.wav","None","736.460877233","140","263521.616684","270387.71614","271154.113423","271920.960246","272687.798411","273454.524965","274204.408329","274970.63402","264271.007534","265037.491695","265804.203717","266570.883277","267338.077611","268104.556825","268853.962206","269621.09656","274213.449509","Mapping"
"Mixed","Both","tile","33","m150jaw.wav","None","734.236678341","140","278104.627008","270387.71614","271154.113423","271920.960246","272687.798411","273454.524965","274204.408329","274970.63402","264271.007534","265037.491695","265804.203717","266570.883277","267338.077611","268104.556825","268853.962206","269621.09656","274980.182246","Mapping"
"Mixed","Both","tile","33","m150reek.wav","None","720.567470649","140","278104.627008","270387.71614","271154.113423","271920.960246","272687.798411","273454.524965","274204.408329","274970.63402","278871.288326","265037.491695","265804.203717","266570.883277","267338.077611","268104.556825","268853.962206","269621.09656","278114.215426","Mapping"
"Mixed","Both","tile","33","m150park.wav","None","721.235905075","140","278104.627008","270387.71614","271154.113423","271920.960246","272687.798411","273454.524965","274204.408329","274970.63402","278871.288326","279637.554828","265804.203717","266570.883277","267338.077611","268104.556825","268853.962206","269621.09656","278881.535594","Mapping"
"Mixed","Both","tile","33","m150priest.wav","None","720.216867165","140","278104.627008","270387.71614","271154.113423","271920.960246","272687.798411","273454.524965","274204.408329","274970.63402","278871.288326","279637.554828","280387.138293","266570.883277","267338.077611","268104.556825","268853.962206","269621.09656","279647.448401","Mapping"
"Mixed","Both","tile","33","m160jaw.wav","None","735.943010543","140","278104.627008","270387.71614","271154.113423","271920.960246","272687.798411","273454.524965","274204.408329","274970.63402","278871.288326","279637.554828","280387.138293","281153.944614","267338.077611","268104.556825","268853.962206","269621.09656","280396.212864","Mapping"
"Mixed","Both","tile","33","m160priest.wav","None","733.652030001","140","278104.627008","270387.71614","271154.113423","271920.960246","272687.798411","273454.524965","274204.408329","274970.63402","278871.288326","279637.554828","280387.138293","281153.944614","281920.568213","268104.556825","268853.962206","269621.09656","281163.145019","Mapping"
"Mixed","Both","tile","33","m160tile.wav","None","731.702996185","140","278104.627008","270387.71614","271154.113423","271920.960246","272687.798411","273454.524965","274204.408329","274970.63402","278871.288326","279637.554828","280387.138293","281153.944614","281920.568213","282687.520463","268853.962206","269621.09656","281929.772637","Mapping"
"Mixed","Both","tile","33","m160cad.wav","space","510.722932639","140","278104.627008","270387.71614","271154.113423","271920.960246","272687.798411","273454.524965","274204.408329","274970.63402","278871.288326","279637.554828","280387.138293","281153.944614","281920.568213","282687.520463","283454.130149","269621.09656","282697.424548","Mapping"
"Mixed","Both","tile","33","m150cave.wav","None","725.942463265","140","278104.627008","270387.71614","271154.113423","271920.960246","272687.798411","273454.524965","274204.408329","274970.63402","278871.288326","279637.554828","280387.138293","281153.944614","281920.568213","282687.520463","283454.130149","284221.282127","283464.204589","Mapping"
"Mixed","Both","tile","33","m160tile.wav","space","568.965469254","140","278104.627008","284987.850692","271154.113423","271920.960246","272687.798411","273454.524965","274204.408329","274970.63402","278871.288326","279637.554828","280387.138293","281153.944614","281920.568213","282687.520463","283454.130149","284221.282127","284231.189303","Mapping"
"Mixed","Both","tile","33","m160romp.wav","None","725.832706434","140","278104.627008","284987.850692","285754.213967","271920.960246","272687.798411","273454.524965","274204.408329","274970.63402","278871.288326","279637.554828","280387.138293","281153.944614","281920.568213","282687.520463","283454.130149","284221.282127","284992.754195","Mapping"
"Mixed","Both","tile","33","m150tile.wav","space","204.232717864","140","278104.627008","284987.850692","285754.213967","286521.344302","272687.798411","273454.524965","274204.408329","274970.63402","278871.288326","279637.554828","280387.138293","281153.944614","281920.568213","282687.520463","283454.130149","284221.282127","285763.847215","Mapping"
"Mixed","Both","tile","33","m160cad.wav","space","573.109021294","140","278104.627008","284987.850692","285754.213967","286521.344302","287270.435252","273454.524965","274204.408329","274970.63402","278871.288326","279637.554828","280387.138293","281153.944614","281920.568213","282687.520463","283454.130149","284221.282127","286531.018052","Mapping"
"Mixed","Both","tile","33","m150cling.wav","None","734.28429116","140","278104.627008","284987.850692","285754.213967","286521.344302","287270.435252","288037.194888","274204.408329","274970.63402","278871.288326","279637.554828","280387.138293","281153.944614","281920.568213","282687.520463","283454.130149","284221.282127","287279.680178","Mapping"
"Mixed","Both","tile","33","m150tile.wav","None","731.971359346","140","278104.627008","284987.850692","285754.213967","286521.344302","287270.435252","288037.194888","288803.832399","274970.63402","278871.288326","279637.554828","280387.138293","281153.944614","281920.568213","282687.520463","283454.130149","284221.282127","288046.537203","Mapping"
"Mixed","Both","tile","33","m160cave.wav","space","627.199967392","140","278104.627008","284987.850692","285754.213967","286521.344302","287270.435252","288037.194888","288803.832399","289570.42137","278871.288326","279637.554828","280387.138293","281153.944614","281920.568213","282687.520463","283454.130149","284221.282127","288812.901714","Mapping"
"Mixed","Both","done","43","m150cave.wav","None","726.75744642","140","292703.761691","284987.850692","285754.213967","286521.344302","287270.435252","288037.194888","288803.832399","289570.42137","278871.288326","279637.554828","280387.138293","281153.944614","281920.568213","282687.520463","283454.130149","284221.282127","289579.910234","Mapping"
"Mixed","Both","done","43","m160cave.wav","None","721.011135611","140","292703.761691","284987.850692","285754.213967","286521.344302","287270.435252","288037.194888","288803.832399","289570.42137","293453.613519","279637.554828","280387.138293","281153.944614","281920.568213","282687.520463","283454.130149","284221.282127","292713.29755","Mapping"
"Mixed","Both","done","43","m160jolt.wav","None","735.322498018","140","292703.761691","284987.850692","285754.213967","286521.344302","287270.435252","288037.194888","288803.832399","289570.42137","293453.613519","294220.643991","280387.138293","281153.944614","281920.568213","282687.520463","283454.130149","284221.282127","293463.468136","Mapping"
"Mixed","Both","done","43","m160done.wav","None","732.963190065","140","292703.761691","284987.850692","285754.213967","286521.344302","287270.435252","288037.194888","288803.832399","289570.42137","293453.613519","294220.643991","294987.336227","281153.944614","281920.568213","282687.520463","283454.130149","284221.282127","294230.357625","Mapping"
"Mixed","Both","done","43","m160lash.wav","space","426.978165749","140","292703.761691","284987.850692","285754.213967","286521.344302","287270.435252","288037.194888","288803.832399","289570.42137","293453.613519","294220.643991","294987.336227","295753.754225","281920.568213","282687.520463","283454.130149","284221.282127","294997.013687","Mapping"
"Mixed","Both","done","43","m160priest.wav","None","728.399779415","140","292703.761691","284987.850692","285754.213967","286521.344302","287270.435252","288037.194888","288803.832399","289570.42137","293453.613519","294220.643991","294987.336227","295753.754225","296520.418634","282687.520463","283454.130149","284221.282127","295762.896195","Mapping"
"Mixed","Both","done","43","m150dime.wav","None","725.858677062","140","292703.761691","284987.850692","285754.213967","286521.344302","287270.435252","288037.194888","288803.832399","289570.42137","293453.613519","294220.643991","294987.336227","295753.754225","296520.418634","297287.666765","283454.130149","284221.282127","296530.046936","Mapping"
"Mixed","Both","done","43","m160done.wav","None","722.583595314","140","292703.761691","284987.850692","285754.213967","286521.344302","287270.435252","288037.194888","288803.832399","289570.42137","293453.613519","294220.643991","294987.336227","295753.754225","296520.418634","297287.666765","298054.224818","284221.282127","297297.782325","Mapping"
"Mixed","Both","done","43","m160dime.wav","space","495.480955928","140","292703.761691","284987.850692","285754.213967","286521.344302","287270.435252","288037.194888","288803.832399","289570.42137","293453.613519","294220.643991","294987.336227","295753.754225","296520.418634","297287.666765","298054.224818","298803.33401","298064.441478","Mapping"
"Mixed","Both","done","43","m160cad.wav","None","735.79398857","140","292703.761691","299570.374376","285754.213967","286521.344302","287270.435252","288037.194888","288803.832399","289570.42137","293453.613519","294220.643991","294987.336227","295753.754225","296520.418634","297287.666765","298054.224818","298803.33401","298812.716828","Mapping"
"Mixed","Both","done","43","m150done.wav","None","733.076966135","140","292703.761691","299570.374376","300337.262628","286521.344302","287270.435252","288037.194888","288803.832399","289570.42137","293453.613519","294220.643991","294987.336227","295753.754225","296520.418634","297287.666765","298054.224818","298803.33401","299579.912708","Mapping"
"Mixed","Both","done","43","m150park.wav","None","730.739918654","140","292703.761691","299570.374376","300337.262628","301104.44645","287270.435252","288037.194888","288803.832399","289570.42137","293453.613519","294220.643991","294987.336227","295753.754225","296520.418634","297287.666765","298054.224818","298803.33401","300346.888456","Mapping"
"Mixed","Both","done","43","m150greet.wav","space","0.0337000237778","140","292703.761691","299570.374376","300337.262628","301104.44645","301870.647717","288037.194888","288803.832399","289570.42137","293453.613519","294220.643991","294987.336227","295753.754225","296520.418634","297287.666765","298054.224818","298803.33401","301114.289937","Mapping"
"Mixed","Both","done","43","m150romp.wav","None","726.077572443","140","292703.761691","299570.374376","300337.262628","301104.44645","301870.647717","302636.961523","288803.832399","289570.42137","293453.613519","294220.643991","294987.336227","295753.754225","296520.418634","297287.666765","298054.224818","298803.33401","301879.761243","Mapping"
"Mixed","Both","done","43","m150done.wav","None","724.695254816","140","292703.761691","299570.374376","300337.262628","301104.44645","301870.647717","302636.961523","303404.087839","289570.42137","293453.613519","294220.643991","294987.336227","295753.754225","296520.418634","297287.666765","298054.224818","298803.33401","302646.329809","Mapping"
"Mixed","Both","done","43","m150jolt.wav","space","570.033665979","140","292703.761691","299570.374376","300337.262628","301104.44645","301870.647717","302636.961523","303404.087839","304153.653681","293453.613519","294220.643991","294987.336227","295753.754225","296520.418634","297287.666765","298054.224818","298803.33401","303413.801782","Mapping"
"Mixed","Both","cave","24","m160knife.wav","None","736.330714892","140","307287.502284","299570.374376","300337.262628","301104.44645","301870.647717","302636.961523","303404.087839","304153.653681","293453.613519","294220.643991","294987.336227","295753.754225","296520.418634","297287.666765","298054.224818","298803.33401","304162.830588","Mapping"
"Mixed","Both","cave","24","m150cave.wav","None","719.677976565","140","307287.502284","299570.374376","300337.262628","301104.44645","301870.647717","302636.961523","303404.087839","304153.653681","308053.514027","294220.643991","294987.336227","295753.754225","296520.418634","297287.666765","298054.224818","298803.33401","307297.312998","Mapping"
"Mixed","Both","cave","24","m150dime.wav","None","720.750501729","140","307287.502284","299570.374376","300337.262628","301104.44645","301870.647717","302636.961523","303404.087839","304153.653681","308053.514027","308803.563109","294987.336227","295753.754225","296520.418634","297287.666765","298054.224818","298803.33401","308062.888187","Mapping"
"Mixed","Both","cave","24","m160depth.wav","space","466.973862145","140","307287.502284","299570.374376","300337.262628","301104.44645","301870.647717","302636.961523","303404.087839","304153.653681","308053.514027","308803.563109","309570.10694","295753.754225","296520.418634","297287.666765","298054.224818","298803.33401","308812.801851","Mapping"
"Mixed","Both","cave","24","m150depth.wav","None","732.105850126","140","307287.502284","299570.374376","300337.262628","301104.44645","301870.647717","302636.961523","303404.087839","304153.653681","308053.514027","308803.563109","309570.10694","310336.851426","296520.418634","297287.666765","298054.224818","298803.33401","309579.50738","Mapping"
"Mixed","Both","cave","24","m160bluff.wav","None","730.312949163","140","307287.502284","299570.374376","300337.262628","301104.44645","301870.647717","302636.961523","303404.087839","304153.653681","308053.514027","308803.563109","309570.10694","310336.851426","311103.575816","297287.666765","298054.224818","298803.33401","310345.962479","Mapping"
"Mixed","Both","cave","24","m150depth.wav","None","727.620351478","140","307287.502284","299570.374376","300337.262628","301104.44645","301870.647717","302636.961523","303404.087839","304153.653681","308053.514027","308803.563109","309570.10694","310336.851426","311103.575816","311870.109445","298054.224818","298803.33401","311113.206591","Mapping"
"Mixed","Both","cave","24","m150greet.wav","None","725.941226585","140","307287.502284","299570.374376","300337.262628","301104.44645","301870.647717","302636.961523","303404.087839","304153.653681","308053.514027","308803.563109","309570.10694","310336.851426","311103.575816","311870.109445","312637.015629","298803.33401","311879.519469","Mapping"
"Mixed","Both","cave","24","m150lash.wav","None","723.413727945","140","307287.502284","299570.374376","300337.262628","301104.44645","301870.647717","302636.961523","303404.087839","304153.653681","308053.514027","308803.563109","309570.10694","310336.851426","311103.575816","311870.109445","312637.015629","313403.523596","312646.624143","Mapping"
"Mixed","Both","cave","24","m160cave.wav","None","721.849306603","140","307287.502284","314153.876286","300337.262628","301104.44645","301870.647717","302636.961523","303404.087839","304153.653681","308053.514027","308803.563109","309570.10694","310336.851426","311103.575816","311870.109445","312637.015629","313403.523596","313412.905795","Mapping"
"Mixed","Both","cave","24","m160depth.wav","None","735.971454531","140","307287.502284","314153.876286","314919.963159","301104.44645","301870.647717","302636.961523","303404.087839","304153.653681","308053.514027","308803.563109","309570.10694","310336.851426","311103.575816","311870.109445","312637.015629","313403.523596","314163.316301","Mapping"
"Mixed","Both","cave","24","m150cave.wav","space","182.05812911","140","307287.502284","314153.876286","314919.963159","315687.034751","301870.647717","302636.961523","303404.087839","304153.653681","308053.514027","308803.563109","309570.10694","310336.851426","311103.575816","311870.109445","312637.015629","313403.523596","314929.634436","Mapping"
"Mixed","Both","cave","24","m160park.wav","None","731.186675373","140","307287.502284","314153.876286","314919.963159","315687.034751","316453.809845","302636.961523","303404.087839","304153.653681","308053.514027","308803.563109","309570.10694","310336.851426","311103.575816","311870.109445","312637.015629","313403.523596","315696.732926","Mapping"
"Mixed","Both","cave","24","m150jolt.wav","space","360.767592909","140","307287.502284","314153.876286","314919.963159","315687.034751","316453.809845","317220.113448","303404.087839","304153.653681","308053.514027","308803.563109","309570.10694","310336.851426","311103.575816","311870.109445","312637.015629","313403.523596","316462.88658","Mapping"
"Mixed","Both","cave","24","m160cave.wav","None","726.614607964","140","307287.502284","314153.876286","314919.963159","315687.034751","316453.809845","317220.113448","317986.740448","304153.653681","308053.514027","308803.563109","309570.10694","310336.851426","311103.575816","311870.109445","312637.015629","313403.523596","317229.552535","Mapping"
"Mixed","Both","cave","24","m160romp.wav","None","724.971038057","140","307287.502284","314153.876286","314919.963159","315687.034751","316453.809845","317220.113448","317986.740448","318753.836774","308053.514027","308803.563109","309570.10694","310336.851426","311103.575816","311870.109445","312637.015629","313403.523596","317996.036078","Mapping"
"Mixed","Both","ball","3","m160cad.wav","space","0.0247339485213","140","321870.714498","314153.876286","314919.963159","315687.034751","316453.809845","317220.113448","317986.740448","318753.836774","308053.514027","308803.563109","309570.10694","310336.851426","311103.575816","311870.109445","312637.015629","313403.523596","318763.481153","Mapping"
"Mixed","Both","ball","3","m150romp.wav","None","719.950358965","140","321870.714498","314153.876286","314919.963159","315687.034751","316453.809845","317220.113448","317986.740448","318753.836774","322637.275644","308803.563109","309570.10694","310336.851426","311103.575816","311870.109445","312637.015629","313403.523596","321881.0842","Mapping"
"Mixed","Both","ball","3","m160cling.wav","None","718.390575377","140","321870.714498","314153.876286","314919.963159","315687.034751","316453.809845","317220.113448","317986.740448","318753.836774","322637.275644","323386.925581","309570.10694","310336.851426","311103.575816","311870.109445","312637.015629","313403.523596","322647.453348","Mapping"
"Mixed","Both","ball","3","m160ball.wav","None","733.969861176","140","321870.714498","314153.876286","314919.963159","315687.034751","316453.809845","317220.113448","317986.740448","318753.836774","322637.275644","323386.925581","324153.327812","310336.851426","311103.575816","311870.109445","312637.015629","313403.523596","323396.727639","Mapping"
"Mixed","Both","ball","3","m150knife.wav","None","732.993489131","140","321870.714498","314153.876286","314919.963159","315687.034751","316453.809845","317220.113448","317986.740448","318753.836774","322637.275644","323386.925581","324153.327812","324920.125784","311103.575816","311870.109445","312637.015629","313403.523596","324162.443193","Mapping"
"Mixed","Both","ball","3","m150ball.wav","None","730.426725233","140","321870.714498","314153.876286","314919.963159","315687.034751","316453.809845","317220.113448","317986.740448","318753.836774","322637.275644","323386.925581","324153.327812","324920.125784","325686.6421","311870.109445","312637.015629","313403.523596","324929.829834","Mapping"
"Mixed","Both","ball","3","m150jaw.wav","space","351.557294838","140","321870.714498","314153.876286","314919.963159","315687.034751","316453.809845","317220.113448","317986.740448","318753.836774","322637.275644","323386.925581","324153.327812","324920.125784","325686.6421","326453.511801","312637.015629","313403.523596","325695.970193","Mapping"
"Mixed","Both","ball","3","m150ball.wav","None","726.118074264","140","321870.714498","314153.876286","314919.963159","315687.034751","316453.809845","317220.113448","317986.740448","318753.836774","322637.275644","323386.925581","324153.327812","324920.125784","325686.6421","326453.511801","327219.869201","313403.523596","326462.975931","Mapping"
"Mixed","Both","ball","3","m160jolt.wav","space","466.122396523","140","321870.714498","314153.876286","314919.963159","315687.034751","316453.809845","317220.113448","317986.740448","318753.836774","322637.275644","323386.925581","324153.327812","324920.125784","325686.6421","326453.511801","327219.869201","327986.848968","327229.368268","Mapping"
"Mixed","Both","ball","3","m150park.wav","None","720.796568668","140","321870.714498","328753.641067","314919.963159","315687.034751","316453.809845","317220.113448","317986.740448","318753.836774","322637.275644","323386.925581","324153.327812","324920.125784","325686.6421","326453.511801","327219.869201","327986.848968","327996.988025","Mapping"
"Mixed","Both","ball","3","m160priest.wav","None","719.418270281","140","321870.714498","328753.641067","329503.249575","315687.034751","316453.809845","317220.113448","317986.740448","318753.836774","322637.275644","323386.925581","324153.327812","324920.125784","325686.6421","326453.511801","327219.869201","327986.848968","328763.423955","Mapping"
"Mixed","Both","ball","3","m150cling.wav","None","734.80370373","140","321870.714498","328753.641067","329503.249575","330270.068881","316453.809845","317220.113448","317986.740448","318753.836774","322637.275644","323386.925581","324153.327812","324920.125784","325686.6421","326453.511801","327219.869201","327986.848968","329512.765028","Mapping"
"Mixed","Both","ball","3","m160priest.wav","None","732.582905795","140","321870.714498","328753.641067","329503.249575","330270.068881","331036.771937","317220.113448","317986.740448","318753.836774","322637.275644","323386.925581","324153.327812","324920.125784","325686.6421","326453.511801","327219.869201","327986.848968","330279.754998","Mapping"
"Mixed","Both","ball","3","m160tile.wav","None","730.735281133","140","321870.714498","328753.641067","329503.249575","330270.068881","331036.771937","331803.249606","317986.740448","318753.836774","322637.275644","323386.925581","324153.327812","324920.125784","325686.6421","326453.511801","327219.869201","327986.848968","331046.30996","Mapping"
"Mixed","Both","ball","3","m160ball.wav","None","728.890748112","140","321870.714498","328753.641067","329503.249575","330270.068881","331036.771937","331803.249606","332569.97987","318753.836774","322637.275644","323386.925581","324153.327812","324920.125784","325686.6421","326453.511801","327219.869201","327986.848968","331812.85843","Mapping"
"Mixed","Both","ball","3","m150romp.wav","space","459.524929174","140","321870.714498","328753.641067","329503.249575","330270.068881","331036.771937","331803.249606","332569.97987","333336.527412","322637.275644","323386.925581","324153.327812","324920.125784","325686.6421","326453.511801","327219.869201","327986.848968","332579.8821","Mapping"
"Mixed","Both","tile","30","m160greet.wav","None","725.206628791","140","336453.617848","328753.641067","329503.249575","330270.068881","331036.771937","331803.249606","332569.97987","333336.527412","322637.275644","323386.925581","324153.327812","324920.125784","325686.6421","326453.511801","327219.869201","327986.848968","333345.525307","Mapping"
"Mixed","Both","tile","30","m150tile.wav","None","720.335899154","140","336453.617848","328753.641067","329503.249575","330270.068881","331036.771937","331803.249606","332569.97987","333336.527412","337203.653635","323386.925581","324153.327812","324920.125784","325686.6421","326453.511801","327219.869201","327986.848968","336463.484523","Mapping"
"Mixed","Both","tile","30","m160greet.wav","space","538.215626031","140","336453.617848","328753.641067","329503.249575","330270.068881","331036.771937","331803.249606","332569.97987","333336.527412","337203.653635","337969.799559","324153.327812","324920.125784","325686.6421","326453.511801","327219.869201","327986.848968","337213.14961","Mapping"
"Mixed","Both","tile","30","m150tile.wav","None","733.321522945","140","336453.617848","328753.641067","329503.249575","330270.068881","331036.771937","331803.249606","332569.97987","333336.527412","337203.653635","337969.799559","338736.667406","324920.125784","325686.6421","326453.511801","327219.869201","327986.848968","337979.401272","Mapping"
"Mixed","Both","tile","30","m150gnash.wav","space","221.065704711","140","336453.617848","328753.641067","329503.249575","330270.068881","331036.771937","331803.249606","332569.97987","333336.527412","337203.653635","337969.799559","338736.667406","339502.762007","325686.6421","326453.511801","327219.869201","327986.848968","338746.262626","Mapping"
"Mixed","Both","tile","30","m150dime.wav","None","732.342368341","140","336453.617848","328753.641067","329503.249575","330270.068881","331036.771937","331803.249606","332569.97987","333336.527412","337203.653635","337969.799559","338736.667406","339502.762007","340269.901927","326453.511801","327219.869201","327986.848968","339511.772579","Mapping"
"Mixed","Both","tile","30","m160jaw.wav","space","447.047897032","140","336453.617848","328753.641067","329503.249575","330270.068881","331036.771937","331803.249606","332569.97987","333336.527412","337203.653635","337969.799559","338736.667406","339502.762007","340269.901927","341036.629717","327219.869201","327986.848968","340280.264517","Mapping"
"Mixed","Both","tile","30","m150lash.wav","None","726.825464633","140","336453.617848","328753.641067","329503.249575","330270.068881","331036.771937","331803.249606","332569.97987","333336.527412","337203.653635","337969.799559","338736.667406","339502.762007","340269.901927","341036.629717","341803.236311","327986.848968","341046.202368","Mapping"
"Mixed","Both","tile","30","m160tile.wav","None","725.350394729","140","336453.617848","328753.641067","329503.249575","330270.068881","331036.771937","331803.249606","332569.97987","333336.527412","337203.653635","337969.799559","338736.667406","339502.762007","340269.901927","341036.629717","341803.236311","342570.273585","341812.538434","Mapping"
"Mixed","Both","tile","30","m160reek.wav","space","546.650824603","140","336453.617848","343336.847407","329503.249575","330270.068881","331036.771937","331803.249606","332569.97987","333336.527412","337203.653635","337969.799559","338736.667406","339502.762007","340269.901927","341036.629717","341803.236311","342570.273585","342580.618862","Mapping"
"Mixed","Both","tile","30","m160tile.wav","None","720.194297493","140","336453.617848","343336.847407","344086.126645","330270.068881","331036.771937","331803.249606","332569.97987","333336.527412","337203.653635","337969.799559","338736.667406","339502.762007","340269.901927","341036.629717","341803.236311","342570.273585","343346.22064","Mapping"
"Mixed","Both","tile","30","m150park.wav","space","567.599537899","140","336453.617848","343336.847407","344086.126645","344853.00593","331036.771937","331803.249606","332569.97987","333336.527412","337203.653635","337969.799559","338736.667406","339502.762007","340269.901927","341036.629717","341803.236311","342570.273585","344095.647663","Mapping"
"Mixed","Both","tile","30","m160done.wav","None","732.696991065","140","336453.617848","343336.847407","344086.126645","344853.00593","345619.586554","331803.249606","332569.97987","333336.527412","337203.653635","337969.799559","338736.667406","339502.762007","340269.901927","341036.629717","341803.236311","342570.273585","344862.32042","Mapping"
"Mixed","Both","tile","30","m150reek.wav","None","730.656132568","140","336453.617848","343336.847407","344086.126645","344853.00593","345619.586554","346386.590437","332569.97987","333336.527412","337203.653635","337969.799559","338736.667406","339502.762007","340269.901927","341036.629717","341803.236311","342570.273585","345629.193831","Mapping"
"Mixed","Both","tile","30","m160park.wav","None","728.960621404","140","336453.617848","343336.847407","344086.126645","344853.00593","345619.586554","346386.590437","347153.214963","333336.527412","337203.653635","337969.799559","338736.667406","339502.762007","340269.901927","341036.629717","341803.236311","342570.273585","346395.88483","Mapping"
"Mixed","Both","tile","30","m150park.wav","None","726.47084191","140","336453.617848","343336.847407","344086.126645","344853.00593","345619.586554","346386.590437","347153.214963","347920.099814","337203.653635","337969.799559","338736.667406","339502.762007","340269.901927","341036.629717","341803.236311","342570.273585","347163.223858","Mapping"
"Mixed","Both","tile","31","m160cling.wav","None","724.849532591","140","351053.275345","343336.847407","344086.126645","344853.00593","345619.586554","346386.590437","347153.214963","347920.099814","337203.653635","337969.799559","338736.667406","339502.762007","340269.901927","341036.629717","341803.236311","342570.273585","347929.810047","Mapping"
"Mixed","Both","tile","31","m150tile.wav","None","720.471008332","140","351053.275345","343336.847407","344086.126645","344853.00593","345619.586554","346386.590437","347153.214963","347920.099814","351803.269393","337969.799559","338736.667406","339502.762007","340269.901927","341036.629717","341803.236311","342570.273585","351063.129653","Mapping"
"Mixed","Both","tile","31","m150romp.wav","space","490.027123829","140","351053.275345","343336.847407","344086.126645","344853.00593","345619.586554","346386.590437","347153.214963","347920.099814","351803.269393","352569.723874","338736.667406","339502.762007","340269.901927","341036.629717","341803.236311","342570.273585","351813.109788","Mapping"
"Mixed","Both","tile","31","m150depth.wav","None","732.598982984","140","351053.275345","343336.847407","344086.126645","344853.00593","345619.586554","346386.590437","347153.214963","347920.099814","351803.269393","352569.723874","353336.238643","339502.762007","340269.901927","341036.629717","341803.236311","342570.273585","352579.607862","Mapping"
"Mixed","Both","tile","31","m160depth.wav","None","731.802859344","140","351053.275345","343336.847407","344086.126645","344853.00593","345619.586554","346386.590437","347153.214963","347920.099814","351803.269393","352569.723874","353336.238643","354102.792677","340269.901927","341036.629717","341803.236311","342570.273585","353345.405038","Mapping"
"Mixed","Both","tile","31","m150cad.wav","None","730.33706483","140","351053.275345","343336.847407","344086.126645","344853.00593","345619.586554","346386.590437","347153.214963","347920.099814","351803.269393","352569.723874","353336.238643","354102.792677","354869.535617","341036.629717","341803.236311","342570.273585","354111.925991","Mapping"
"Mixed","Both","tile","31","m150tile.wav","None","728.710499592","140","351053.275345","343336.847407","344086.126645","344853.00593","345619.586554","346386.590437","347153.214963","347920.099814","351803.269393","352569.723874","353336.238643","354102.792677","354869.535617","355636.171583","341803.236311","342570.273585","354878.576179","Mapping"
"Mixed","Both","tile","31","m150romp.wav","space","681.402216083","140","351053.275345","343336.847407","344086.126645","344853.00593","345619.586554","346386.590437","347153.214963","347920.099814","351803.269393","352569.723874","353336.238643","354102.792677","354869.535617","355636.171583","356403.421878","342570.273585","355645.684253","Mapping"
"Mixed","Both","tile","31","m160bluff.wav","None","723.004690488","140","351053.275345","343336.847407","344086.126645","344853.00593","345619.586554","346386.590437","347153.214963","347920.099814","351803.269393","352569.723874","353336.238643","354102.792677","354869.535617","355636.171583","356403.421878","357169.723935","356412.886008","Mapping"
"Mixed","Both","tile","31","m160ball.wav","None","721.693792031","140","351053.275345","357936.375051","344086.126645","344853.00593","345619.586554","346386.590437","347153.214963","347920.099814","351803.269393","352569.723874","353336.238643","354102.792677","354869.535617","355636.171583","356403.421878","357169.723935","357179.19394","Mapping"
"Mixed","Both","tile","31","m150bluff.wav","None","720.211611129","140","351053.275345","357936.375051","358686.179884","344853.00593","345619.586554","346386.590437","347153.214963","347920.099814","351803.269393","352569.723874","353336.238643","354102.792677","354869.535617","355636.171583","356403.421878","357169.723935","357945.706545","Mapping"
"Mixed","Both","tile","31","m160tile.wav","None","735.086598201","140","351053.275345","357936.375051","358686.179884","359453.015886","345619.586554","346386.590437","347153.214963","347920.099814","351803.269393","352569.723874","353336.238643","354102.792677","354869.535617","355636.171583","356403.421878","357169.723935","358695.839103","Mapping"
"Mixed","Both","tile","31","m150jaw.wav","space","440.017585875","140","351053.275345","357936.375051","358686.179884","359453.015886","360219.707503","346386.590437","347153.214963","347920.099814","351803.269393","352569.723874","353336.238643","354102.792677","354869.535617","355636.171583","356403.421878","357169.723935","359463.001593","Mapping"
"Mixed","Both","tile","31","m160tile.wav","None","730.548230698","140","351053.275345","357936.375051","358686.179884","359453.015886","360219.707503","360986.13694","347153.214963","347920.099814","351803.269393","352569.723874","353336.238643","354102.792677","354869.535617","355636.171583","356403.421878","357169.723935","360229.600767","Mapping"
"Mixed","Both","tile","31","m160bluff.wav","None","729.960799799","140","351053.275345","357936.375051","358686.179884","359453.015886","360219.707503","360986.13694","361752.72653","347920.099814","351803.269393","352569.723874","353336.238643","354102.792677","354869.535617","355636.171583","356403.421878","357169.723935","360995.30921","Mapping"
"Mixed","Both","tile","31","m160bluff.wav","space","380.940897274","140","351053.275345","357936.375051","358686.179884","359453.015886","360219.707503","360986.13694","361752.72653","362519.782663","351803.269393","352569.723874","353336.238643","354102.792677","354869.535617","355636.171583","356403.421878","357169.723935","361762.047512","Mapping"
"Mixed","Both","cave","14","m150lash.wav","None","724.735447322","140","365636.601953","357936.375051","358686.179884","359453.015886","360219.707503","360986.13694","361752.72653","362519.782663","351803.269393","352569.723874","353336.238643","354102.792677","354869.535617","355636.171583","356403.421878","357169.723935","362529.475891","Mapping"
"Mixed","Both","cave","14","m150bluff.wav","None","719.39910145","140","365636.601953","357936.375051","358686.179884","359453.015886","360219.707503","360986.13694","361752.72653","362519.782663","366386.072261","352569.723874","353336.238643","354102.792677","354869.535617","355636.171583","356403.421878","357169.723935","365646.591061","Mapping"
"Mixed","Both","cave","14","m150cave.wav","None","735.260663205","140","365636.601953","357936.375051","358686.179884","359453.015886","360219.707503","360986.13694","361752.72653","362519.782663","366386.072261","367152.806235","353336.238643","354102.792677","354869.535617","355636.171583","356403.421878","357169.723935","366395.697471","Mapping"
"Mixed","Both","cave","14","m150jolt.wav","space","612.419587676","140","365636.601953","357936.375051","358686.179884","359453.015886","360219.707503","360986.13694","361752.72653","362519.782663","366386.072261","367152.806235","367919.272464","354102.792677","354869.535617","355636.171583","356403.421878","357169.723935","367162.426189","Mapping"
"Mixed","Both","cave","14","m160cave.wav","None","730.593060958","140","365636.601953","357936.375051","358686.179884","359453.015886","360219.707503","360986.13694","361752.72653","362519.782663","366386.072261","367152.806235","367919.272464","368686.0018","354869.535617","355636.171583","356403.421878","357169.723935","367928.67445","Mapping"
"Mixed","Both","cave","14","m160priest.wav","space","704.076739494","140","365636.601953","357936.375051","358686.179884","359453.015886","360219.707503","360986.13694","361752.72653","362519.782663","366386.072261","367152.806235","367919.272464","368686.0018","369452.556453","355636.171583","356403.421878","357169.723935","368694.820065","Mapping"
"Mixed","Both","cave","14","m150jolt.wav","None","725.535280886","140","365636.601953","357936.375051","358686.179884","359453.015886","360219.707503","360986.13694","361752.72653","362519.782663","366386.072261","367152.806235","367919.272464","368686.0018","369452.556453","370219.965972","356403.421878","357169.723935","369462.214744","Mapping"
"Mixed","Both","cave","14","m150greet.wav","None","722.662125598","140","365636.601953","357936.375051","358686.179884","359453.015886","360219.707503","360986.13694","361752.72653","362519.782663","366386.072261","367152.806235","367919.272464","368686.0018","369452.556453","370219.965972","370986.225055","357169.723935","370230.067619","Mapping"
"Mixed","Both","cave","14","m150cave.wav","None","722.702936502","140","365636.601953","357936.375051","358686.179884","359453.015886","360219.707503","360986.13694","361752.72653","362519.782663","366386.072261","367152.806235","367919.272464","368686.0018","369452.556453","370219.965972","370986.225055","371752.592348","370995.684238","Mapping"
"Mixed","Both","cave","14","m160depth.wav","space","420.896091848","140","365636.601953","372502.591343","358686.179884","359453.015886","360219.707503","360986.13694","361752.72653","362519.782663","366386.072261","367152.806235","367919.272464","368686.0018","369452.556453","370219.965972","370986.225055","371752.592348","371761.915185","Mapping"
"Mixed","Both","cave","14","m160tile.wav","None","735.390207148","140","365636.601953","372502.591343","373269.589043","359453.015886","360219.707503","360986.13694","361752.72653","362519.782663","366386.072261","367152.806235","367919.272464","368686.0018","369452.556453","370219.965972","370986.225055","371752.592348","372512.067531","Mapping"
"Mixed","Both","cave","14","m160cave.wav","space","648.008933873","140","365636.601953","372502.591343","373269.589043","374035.928201","360219.707503","360986.13694","361752.72653","362519.782663","366386.072261","367152.806235","367919.272464","368686.0018","369452.556453","370219.965972","370986.225055","371752.592348","373278.794703","Mapping"
"Mixed","Both","cave","14","m160reek.wav","None","730.471555493","140","365636.601953","372502.591343","373269.589043","374035.928201","374802.573442","360986.13694","361752.72653","362519.782663","366386.072261","367152.806235","367919.272464","368686.0018","369452.556453","370219.965972","370986.225055","371752.592348","374045.478282","Mapping"
"Mixed","Both","cave","14","m150greet.wav","None","728.893839754","140","365636.601953","372502.591343","373269.589043","374035.928201","374802.573442","375569.537132","361752.72653","362519.782663","366386.072261","367152.806235","367919.272464","368686.0018","369452.556453","370219.965972","370986.225055","371752.592348","374811.979447","Mapping"
"Mixed","Both","cave","14","m160gnash.wav","None","726.569159306","140","365636.601953","372502.591343","373269.589043","374035.928201","374802.573442","375569.537132","376336.102297","362519.782663","366386.072261","367152.806235","367919.272464","368686.0018","369452.556453","370219.965972","370986.225055","371752.592348","375579.2755","Mapping"
"Mixed","Both","cave","14","m160ball.wav","None","725.72758724","140","365636.601953","372502.591343","373269.589043","374035.928201","374802.573442","375569.537132","376336.102297","377102.425069","366386.072261","367152.806235","367919.272464","368686.0018","369452.556453","370219.965972","370986.225055","371752.592348","376345.676493","Mapping"
"Mixed","Both","ball","12","m150dime.wav","None","724.765437306","140","380219.739348","372502.591343","373269.589043","374035.928201","374802.573442","375569.537132","376336.102297","377102.425069","366386.072261","367152.806235","367919.272464","368686.0018","369452.556453","370219.965972","370986.225055","371752.592348","377111.761201","Mapping"
"Mixed","Both","ball","12","m160priest.wav","None","719.248224399","140","380219.739348","372502.591343","373269.589043","374035.928201","374802.573442","375569.537132","376336.102297","377102.425069","380969.062797","367152.806235","367919.272464","368686.0018","369452.556453","370219.965972","370986.225055","371752.592348","380229.772977","Mapping"
"Mixed","Both","ball","12","m160dime.wav","None","735.549122677","140","380219.739348","372502.591343","373269.589043","374035.928201","374802.573442","375569.537132","376336.102297","377102.425069","380969.062797","381735.962798","367919.272464","368686.0018","369452.556453","370219.965972","370986.225055","371752.592348","380978.611332","Mapping"
"Mixed","Both","ball","12","m150gnash.wav","None","733.26525325","140","380219.739348","372502.591343","373269.589043","374035.928201","374802.573442","375569.537132","376336.102297","377102.425069","380969.062797","381735.962798","382502.33813","368686.0018","369452.556453","370219.965972","370986.225055","371752.592348","381746.006939","Mapping"
"Mixed","Both","ball","12","m150ball.wav","None","732.05359967","140","380219.739348","372502.591343","373269.589043","374035.928201","374802.573442","375569.537132","376336.102297","377102.425069","380969.062797","381735.962798","382502.33813","383269.121262","369452.556453","370219.965972","370986.225055","371752.592348","382512.27746","Mapping"
"Mixed","Both","ball","12","m160cad.wav","space","432.080776081","140","380219.739348","372502.591343","373269.589043","374035.928201","374802.573442","375569.537132","376336.102297","377102.425069","380969.062797","381735.962798","382502.33813","383269.121262","384035.965611","370219.965972","370986.225055","371752.592348","383278.581064","Mapping"
"Mixed","Both","ball","12","m150cave.wav","None","727.470711223","140","380219.739348","372502.591343","373269.589043","374035.928201","374802.573442","375569.537132","376336.102297","377102.425069","380969.062797","381735.962798","382502.33813","383269.121262","384035.965611","384802.551182","370986.225055","371752.592348","384045.552174","Mapping"
"Mixed","Both","ball","12","m160reek.wav","None","725.86671554","140","380219.739348","372502.591343","373269.589043","374035.928201","374802.573442","375569.537132","376336.102297","377102.425069","380969.062797","381735.962798","382502.33813","383269.121262","384035.965611","384802.551182","385568.991749","371752.592348","384812.293259","Mapping"
"Mixed","Both","ball","12","m160ball.wav","None","724.699274055","140","380219.739348","372502.591343","373269.589043","374035.928201","374802.573442","375569.537132","376336.102297","377102.425069","380969.062797","381735.962798","382502.33813","383269.121262","384035.965611","384802.551182","385568.991749","386336.349636","385578.539975","Mapping"
"Mixed","Both","ball","12","m150park.wav","space","476.031119004","140","380219.739348","387102.766088","373269.589043","374035.928201","374802.573442","375569.537132","376336.102297","377102.425069","380969.062797","381735.962798","382502.33813","383269.121262","384035.965611","384802.551182","385568.991749","386336.349636","386346.56877","Mapping"
"Mixed","Both","ball","12","m150ball.wav","None","719.169385149","140","380219.739348","387102.766088","387852.098813","374035.928201","374802.573442","375569.537132","376336.102297","377102.425069","380969.062797","381735.962798","382502.33813","383269.121262","384035.965611","384802.551182","385568.991749","386336.349636","387112.864335","Mapping"
"Mixed","Both","ball","12","m150gnash.wav","None","735.524388729","140","380219.739348","387102.766088","387852.098813","388619.233477","374802.573442","375569.537132","376336.102297","377102.425069","380969.062797","381735.962798","382502.33813","383269.121262","384035.965611","384802.551182","385568.991749","386336.349636","387861.549649","Mapping"
"Mixed","Both","ball","12","m160ball.wav","space","33.2386951195","140","380219.739348","387102.766088","387852.098813","388619.233477","389385.670334","375569.537132","376336.102297","377102.425069","380969.062797","381735.962798","382502.33813","383269.121262","384035.965611","384802.551182","385568.991749","386336.349636","388629.366351","Mapping"
"Mixed","Both","ball","12","m160knife.wav","space","699.446856626","140","380219.739348","387102.766088","387852.098813","388619.233477","389385.670334","390152.348039","376336.102297","377102.425069","380969.062797","381735.962798","382502.33813","383269.121262","384035.965611","384802.551182","385568.991749","386336.349636","389395.095199","Mapping"
"Mixed","Both","ball","12","m150lash.wav","None","725.614120369","140","380219.739348","387102.766088","387852.098813","388619.233477","389385.670334","390152.348039","390919.203209","377102.425069","380969.062797","381735.962798","382502.33813","383269.121262","384035.965611","384802.551182","385568.991749","386336.349636","390163.913007","Mapping"
"Mixed","Both","ball","12","m160romp.wav","None","726.788672968","140","380219.739348","387102.766088","387852.098813","388619.233477","389385.670334","390152.348039","390919.203209","391685.862363","380969.062797","381735.962798","382502.33813","383269.121262","384035.965611","384802.551182","385568.991749","386336.349636","390928.5211","Mapping"
"Mixed","Both","cave","23","m150lash.wav","None","725.168600446","140","394819.59317","387102.766088","387852.098813","388619.233477","389385.670334","390152.348039","390919.203209","391685.862363","380969.062797","381735.962798","382502.33813","383269.121262","384035.965611","384802.551182","385568.991749","386336.349636","391695.290628","Mapping"
"Mixed","Both","cave","23","m160priest.wav","None","720.34826607","140","394819.59317","387102.766088","387852.098813","388619.233477","389385.670334","390152.348039","390919.203209","391685.862363","395586.189871","381735.962798","382502.33813","383269.121262","384035.965611","384802.551182","385568.991749","386336.349636","394829.370803","Mapping"
"Mixed","Both","cave","23","m160cad.wav","None","718.09191315","140","394819.59317","387102.766088","387852.098813","388619.233477","389385.670334","390152.348039","390919.203209","391685.862363","395586.189871","396335.809818","382502.33813","383269.121262","384035.965611","384802.551182","385568.991749","386336.349636","395596.799491","Mapping"
"Mixed","Both","cave","23","m150cave.wav","None","734.624382691","140","394819.59317","387102.766088","387852.098813","388619.233477","389385.670334","390152.348039","390919.203209","391685.862363","395586.189871","396335.809818","397102.294289","383269.121262","384035.965611","384802.551182","385568.991749","386336.349636","396345.335783","Mapping"
"Mixed","Both","cave","23","m150cad.wav","space","614.738393808","140","394819.59317","387102.766088","387852.098813","388619.233477","389385.670334","390152.348039","390919.203209","391685.862363","395586.189871","396335.809818","397102.294289","397869.26509","384035.965611","384802.551182","385568.991749","386336.349636","397111.742033","Mapping"
"Mixed","Both","cave","23","m160depth.wav","None","729.512497317","140","394819.59317","387102.766088","387852.098813","388619.233477","389385.670334","390152.348039","390919.203209","391685.862363","395586.189871","396335.809818","397102.294289","397869.26509","398635.82438","384802.551182","385568.991749","386336.349636","397878.999747","Mapping"
"Mixed","Both","cave","23","m150cad.wav","None","728.596414207","140","394819.59317","387102.766088","387852.098813","388619.233477","389385.670334","390152.348039","390919.203209","391685.862363","395586.189871","396335.809818","397102.294289","397869.26509","398635.82438","399402.42139","385568.991749","386336.349636","398645.525956","Mapping"
"Mixed","Both","cave","23","m160cave.wav","None","727.133402135","140","394819.59317","387102.766088","387852.098813","388619.233477","389385.670334","390152.348039","390919.203209","391685.862363","395586.189871","396335.809818","397102.294289","397869.26509","398635.82438","399402.42139","400168.765495","386336.349636","399412.181091","Mapping"
"Mixed","Both","cave","23","m150cad.wav","space","691.886930028","140","394819.59317","387102.766088","387852.098813","388619.233477","389385.670334","390152.348039","390919.203209","391685.862363","395586.189871","396335.809818","397102.294289","397869.26509","398635.82438","399402.42139","400168.765495","400936.230048","400178.536635","Mapping"
"Mixed","Both","cave","23","m150cave.wav","None","721.624227823","140","394819.59317","401702.471507","387852.098813","388619.233477","389385.670334","390152.348039","390919.203209","391685.862363","395586.189871","396335.809818","397102.294289","397869.26509","398635.82438","399402.42139","400168.765495","400936.230048","400946.414554","Mapping"
"Mixed","Both","cave","23","m150cad.wav","None","720.854075043","140","394819.59317","401702.471507","402469.031107","388619.233477","389385.670334","390152.348039","390919.203209","391685.862363","395586.189871","396335.809818","397102.294289","397869.26509","398635.82438","399402.42139","400168.765495","400936.230048","401712.472055","Mapping"
"Mixed","Both","cave","23","m160cave.wav","space","0.0281349057332","140","394819.59317","401702.471507","402469.031107","403218.367851","389385.670334","390152.348039","390919.203209","391685.862363","395586.189871","396335.809818","397102.294289","397869.26509","398635.82438","399402.42139","400168.765495","400936.230048","402478.639003","Mapping"
"Mixed","Both","cave","23","m150cad.wav","space","587.028041715","140","394819.59317","401702.471507","402469.031107","403218.367851","403985.710898","390152.348039","390919.203209","391685.862363","395586.189871","396335.809818","397102.294289","397869.26509","398635.82438","399402.42139","400168.765495","400936.230048","403227.352452","Mapping"
"Mixed","Both","cave","23","m160dime.wav","None","731.495540356","140","394819.59317","401702.471507","402469.031107","403218.367851","403985.710898","404752.188257","390919.203209","391685.862363","395586.189871","396335.809818","397102.294289","397869.26509","398635.82438","399402.42139","400168.765495","400936.230048","403995.391759","Mapping"
