"Condition","Talker","Target","Trial","current_stimulus","response_response","response_time_response","subject_nr","time_Audio1","time_Audio10","time_Audio11","time_Audio12","time_Audio13","time_Audio14","time_Audio15","time_Audio16","time_Audio2","time_Audio3","time_Audio4","time_Audio5","time_Audio6","time_Audio7","time_Audio8","time_Audio9","time_response","title"
"Blocked","m150","ball","1","m150romp.wav","NA","NA","149","130877.960372","NA","NA","NA","NA","NA","NA","NA","NA","NA","NA","NA","NA","NA","NA","NA","NA","Mapping"
"Blocked","m150","ball","1","m150park.wav","None","718.268394936","149","130877.960372","NA","NA","NA","NA","NA","NA","NA","131644.404135","NA","NA","NA","NA","NA","NA","NA","130892.682891","Mapping"
"Blocked","m150","ball","1","m150knife.wav","None","723.8267106","149","130877.960372","NA","NA","NA","NA","NA","NA","NA","131644.404135","132410.775552","NA","NA","NA","NA","NA","NA","131653.609149","Mapping"
"Blocked","m150","ball","1","m150ball.wav","None","723.463123199","149","130877.960372","NA","NA","NA","NA","NA","NA","NA","131644.404135","132410.775552","133177.508392","NA","NA","NA","NA","NA","132420.711142","Mapping"
"Blocked","m150","ball","1","m150romp.wav","space","433.300674427","149","130877.960372","NA","NA","NA","NA","NA","NA","NA","131644.404135","132410.775552","133177.508392","133944.018627","NA","NA","NA","NA","133187.352466","Mapping"
"Blocked","m150","ball","1","m150ball.wav","None","653.87411043","149","130877.960372","NA","NA","NA","NA","NA","NA","NA","131644.404135","132410.775552","133177.508392","133944.018627","134693.841239","NA","NA","NA","134020.203541","Mapping"
"Blocked","m150","ball","1","m150done.wav","space","702.008976135","149","130877.960372","NA","NA","NA","NA","NA","NA","NA","131644.404135","132410.775552","133177.508392","133944.018627","134693.841239","135460.676106","NA","NA","134702.629178","Mapping"
"Blocked","m150","ball","1","m150bluff.wav","None","734.29222405","149","130877.960372","NA","NA","NA","NA","NA","NA","NA","131644.404135","132410.775552","133177.508392","133944.018627","134693.841239","135460.676106","136227.162535","NA","135469.503619","Mapping"
"Blocked","m150","ball","1","m150cling.wav","None","734.378792346","149","130877.960372","NA","NA","NA","NA","NA","NA","NA","131644.404135","132410.775552","133177.508392","133944.018627","134693.841239","135460.676106","136227.162535","136993.702451","136236.472049","Mapping"
"Blocked","m150","ball","1","m150ball.wav","None","734.757838305","149","130877.960372","137760.289671","NA","NA","NA","NA","NA","NA","131644.404135","132410.775552","133177.508392","133944.018627","134693.841239","135460.676106","136227.162535","136993.702451","137002.481733","Mapping"
"Blocked","m150","ball","1","m150jaw.wav","space","411.446766462","149","130877.960372","137760.289671","138527.488435","NA","NA","NA","NA","NA","131644.404135","132410.775552","133177.508392","133944.018627","134693.841239","135460.676106","136227.162535","136993.702451","137769.150575","Mapping"
"Blocked","m150","ball","1","m150cad.wav","None","730.120240245","149","130877.960372","137760.289671","138527.488435","139293.926942","NA","NA","NA","NA","131644.404135","132410.775552","133177.508392","133944.018627","134693.841239","135460.676106","136227.162535","136993.702451","138536.820519","Mapping"
"Blocked","m150","ball","1","m150priest.wav","None","730.395713821","149","130877.960372","137760.289671","138527.488435","139293.926942","140060.656999","NA","NA","NA","131644.404135","132410.775552","133177.508392","133944.018627","134693.841239","135460.676106","136227.162535","136993.702451","139303.18637","Mapping"
"Blocked","m150","ball","1","m150greet.wav","None","730.654492043","149","130877.960372","137760.289671","138527.488435","139293.926942","140060.656999","140827.428486","NA","NA","131644.404135","132410.775552","133177.508392","133944.018627","134693.841239","135460.676106","136227.162535","136993.702451","140069.546965","Mapping"
"Blocked","m150","ball","1","m150ball.wav","None","730.608734302","149","130877.960372","137760.289671","138527.488435","139293.926942","140060.656999","140827.428486","141594.005812","NA","131644.404135","132410.775552","133177.508392","133944.018627","134693.841239","135460.676106","136227.162535","136993.702451","140836.493753","Mapping"
"Blocked","m150","ball","1","m150romp.wav","space","416.709203739","149","130877.960372","137760.289671","138527.488435","139293.926942","140060.656999","140827.428486","141594.005812","142361.134084","131644.404135","132410.775552","133177.508392","133944.018627","134693.841239","135460.676106","136227.162535","136993.702451","141603.797946","Mapping"
"Blocked","m150","tile","18","m150cling.wav","None","723.04759454","149","145527.769473","137760.289671","138527.488435","139293.926942","140060.656999","140827.428486","141594.005812","142361.134084","131644.404135","132410.775552","133177.508392","133944.018627","134693.841239","135460.676106","136227.162535","136993.702451","142370.426594","Mapping"
"Blocked","m150","tile","18","m150done.wav","None","720.731268637","149","145527.769473","137760.289671","138527.488435","139293.926942","140060.656999","140827.428486","141594.005812","142361.134084","146277.171609","132410.775552","133177.508392","133944.018627","134693.841239","135460.676106","136227.162535","136993.702451","145537.338075","Mapping"
"Blocked","m150","tile","18","m150romp.wav","None","735.279413406","149","145527.769473","137760.289671","138527.488435","139293.926942","140060.656999","140827.428486","141594.005812","142361.134084","146277.171609","147043.960101","133177.508392","133944.018627","134693.841239","135460.676106","136227.162535","136993.702451","146286.308296","Mapping"
"Blocked","m150","tile","18","m150depth.wav","None","732.18489904","149","145527.769473","137760.289671","138527.488435","139293.926942","140060.656999","140827.428486","141594.005812","142361.134084","146277.171609","147043.960101","147810.942753","133944.018627","134693.841239","135460.676106","136227.162535","136993.702451","147053.3163","Mapping"
"Blocked","m150","tile","18","m150dime.wav","None","732.064012438","149","145527.769473","137760.289671","138527.488435","139293.926942","140060.656999","140827.428486","141594.005812","142361.134084","146277.171609","147043.960101","147810.942753","148577.295928","134693.841239","135460.676106","136227.162535","136993.702451","147820.332961","Mapping"
"Blocked","m150","tile","18","m150romp.wav","None","733.302560169","149","145527.769473","137760.289671","138527.488435","139293.926942","140060.656999","140827.428486","141594.005812","142361.134084","146277.171609","147043.960101","147810.942753","148577.295928","149343.833061","135460.676106","136227.162535","136993.702451","148586.301525","Mapping"
"Blocked","m150","tile","18","m150dime.wav","None","729.549816344","149","145527.769473","137760.289671","138527.488435","139293.926942","140060.656999","140827.428486","141594.005812","142361.134084","146277.171609","147043.960101","147810.942753","148577.295928","149343.833061","150110.149445","136227.162535","136993.702451","149353.45515","Mapping"
"Blocked","m150","tile","18","m150tile.wav","None","727.458259091","149","145527.769473","137760.289671","138527.488435","139293.926942","140060.656999","140827.428486","141594.005812","142361.134084","146277.171609","147043.960101","147810.942753","148577.295928","149343.833061","150110.149445","150877.306161","136993.702451","150119.014368","Mapping"
"Blocked","m150","tile","18","m150romp.wav","space","597.967866343","149","145527.769473","137760.289671","138527.488435","139293.926942","140060.656999","140827.428486","141594.005812","142361.134084","146277.171609","147043.960101","147810.942753","148577.295928","149343.833061","150110.149445","150877.306161","151643.727046","150886.392144","Mapping"
"Blocked","m150","tile","18","m150tile.wav","None","727.261934429","149","145527.769473","152410.484929","138527.488435","139293.926942","140060.656999","140827.428486","141594.005812","142361.134084","146277.171609","147043.960101","147810.942753","148577.295928","149343.833061","150110.149445","150877.306161","151643.727046","151652.410794","Mapping"
"Blocked","m150","tile","18","m150cling.wav","space","632.640094496","149","145527.769473","152410.484929","153177.603927","139293.926942","140060.656999","140827.428486","141594.005812","142361.134084","146277.171609","147043.960101","147810.942753","148577.295928","149343.833061","150110.149445","150877.306161","151643.727046","152419.688088","Mapping"
"Blocked","m150","tile","18","m150reek.wav","None","719.644215889","149","145527.769473","152410.484929","153177.603927","153944.070568","140060.656999","140827.428486","141594.005812","142361.134084","146277.171609","147043.960101","147810.942753","148577.295928","149343.833061","150110.149445","150877.306161","151643.727046","153187.095853","Mapping"
"Blocked","m150","tile","18","m150tile.wav","None","720.131163485","149","145527.769473","152410.484929","153177.603927","153944.070568","154693.375933","140827.428486","141594.005812","142361.134084","146277.171609","147043.960101","147810.942753","148577.295928","149343.833061","150110.149445","150877.306161","151643.727046","153953.610417","Mapping"
"Blocked","m150","tile","18","m150priest.wav","space","526.297499426","149","145527.769473","152410.484929","153177.603927","153944.070568","154693.375933","155460.445154","141594.005812","142361.134084","146277.171609","147043.960101","147810.942753","148577.295928","149343.833061","150110.149445","150877.306161","151643.727046","154701.980533","Mapping"
"Blocked","m150","tile","18","m150tile.wav","None","730.252257548","149","145527.769473","152410.484929","153177.603927","153944.070568","154693.375933","155460.445154","156227.155115","142361.134084","146277.171609","147043.960101","147810.942753","148577.295928","149343.833061","150110.149445","150877.306161","151643.727046","155470.131241","Mapping"
"Blocked","m150","tile","18","m150park.wav","space","688.113805372","149","145527.769473","152410.484929","153177.603927","153944.070568","154693.375933","155460.445154","156227.155115","156993.924438","146277.171609","147043.960101","147810.942753","148577.295928","149343.833061","150110.149445","150877.306161","151643.727046","156236.133814","Mapping"
"Blocked","m150","ball","5","m150dime.wav","None","723.654810339","149","160110.783868","152410.484929","153177.603927","153944.070568","154693.375933","155460.445154","156227.155115","156993.924438","146277.171609","147043.960101","147810.942753","148577.295928","149343.833061","150110.149445","150877.306161","151643.727046","157003.717808","Mapping"
"Blocked","m150","ball","5","m150depth.wav","None","720.0164604","149","160110.783868","152410.484929","153177.603927","153944.070568","154693.375933","155460.445154","156227.155115","156993.924438","160860.166218","147043.960101","147810.942753","148577.295928","149343.833061","150110.149445","150877.306161","151643.727046","160120.162328","Mapping"
"Blocked","m150","ball","5","m150ball.wav","None","734.1769021","149","160110.783868","152410.484929","153177.603927","153944.070568","154693.375933","155460.445154","156227.155115","156993.924438","160860.166218","161626.828257","147810.942753","148577.295928","149343.833061","150110.149445","150877.306161","151643.727046","160869.742549","Mapping"
"Blocked","m150","ball","5","m150cad.wav","space","448.464073706","149","160110.783868","152410.484929","153177.603927","153944.070568","154693.375933","155460.445154","156227.155115","156993.924438","160860.166218","161626.828257","162393.314377","148577.295928","149343.833061","150110.149445","150877.306161","151643.727046","161635.676794","Mapping"
"Blocked","m150","ball","5","m150cad.wav","None","728.266128805","149","160110.783868","152410.484929","153177.603927","153944.070568","154693.375933","155460.445154","156227.155115","156993.924438","160860.166218","161626.828257","162393.314377","163160.0871","149343.833061","150110.149445","150877.306161","151643.727046","162402.069235","Mapping"
"Blocked","m150","ball","5","m150romp.wav","None","724.601189606","149","160110.783868","152410.484929","153177.603927","153944.070568","154693.375933","155460.445154","156227.155115","156993.924438","160860.166218","161626.828257","162393.314377","163160.0871","163926.830452","150110.149445","150877.306161","151643.727046","163169.025298","Mapping"
"Blocked","m150","ball","5","m150jaw.wav","None","721.465246286","149","160110.783868","152410.484929","153177.603927","153944.070568","154693.375933","155460.445154","156227.155115","156993.924438","160860.166218","161626.828257","162393.314377","163160.0871","163926.830452","164676.607616","150877.306161","151643.727046","163935.666931","Mapping"
"Blocked","m150","ball","5","m150ball.wav","None","735.052480828","149","160110.783868","152410.484929","153177.603927","153944.070568","154693.375933","155460.445154","156227.155115","156993.924438","160860.166218","161626.828257","162393.314377","163160.0871","163926.830452","164676.607616","165443.302427","151643.727046","164685.412559","Mapping"
"Blocked","m150","ball","5","m150dime.wav","space","368.053071667","149","160110.783868","152410.484929","153177.603927","153944.070568","154693.375933","155460.445154","156227.155115","156993.924438","160860.166218","161626.828257","162393.314377","163160.0871","163926.830452","164676.607616","165443.302427","166209.917782","165452.046155","Mapping"
"Blocked","m150","ball","5","m150ball.wav","None","728.370010853","149","160110.783868","166976.822522","153177.603927","153944.070568","154693.375933","155460.445154","156227.155115","156993.924438","160860.166218","161626.828257","162393.314377","163160.0871","163926.830452","164676.607616","165443.302427","166209.917782","166218.779922","Mapping"
"Blocked","m150","ball","5","m150reek.wav","space","562.512811273","149","160110.783868","166976.822522","167743.260102","153944.070568","154693.375933","155460.445154","156227.155115","156993.924438","160860.166218","161626.828257","162393.314377","163160.0871","163926.830452","164676.607616","165443.302427","166209.917782","166985.551409","Mapping"
"Blocked","m150","ball","5","m150ball.wav","None","721.095784102","149","160110.783868","166976.822522","167743.260102","168493.435171","154693.375933","155460.445154","156227.155115","156993.924438","160860.166218","161626.828257","162393.314377","163160.0871","163926.830452","164676.607616","165443.302427","166209.917782","167752.292906","Mapping"
"Blocked","m150","ball","5","m150knife.wav","space","373.544605915","149","160110.783868","166976.822522","167743.260102","168493.435171","169260.076187","155460.445154","156227.155115","156993.924438","160860.166218","161626.828257","162393.314377","163160.0871","163926.830452","164676.607616","165443.302427","166209.917782","168502.497965","Mapping"
"Blocked","m150","ball","5","m150cling.wav","None","730.6702598","149","160110.783868","166976.822522","167743.260102","168493.435171","169260.076187","170026.558287","156227.155115","156993.924438","160860.166218","161626.828257","162393.314377","163160.0871","163926.830452","164676.607616","165443.302427","166209.917782","169269.077455","Mapping"
"Blocked","m150","ball","5","m150done.wav","None","727.722602431","149","160110.783868","166976.822522","167743.260102","168493.435171","169260.076187","170026.558287","170793.931425","156993.924438","160860.166218","161626.828257","162393.314377","163160.0871","163926.830452","164676.607616","165443.302427","166209.917782","170035.371269","Mapping"
"Blocked","m150","ball","5","m150dime.wav","None","723.045121413","149","160110.783868","166976.822522","167743.260102","168493.435171","169260.076187","170026.558287","170793.931425","171559.971408","160860.166218","161626.828257","162393.314377","163160.0871","163926.830452","164676.607616","165443.302427","166209.917782","170803.411603","Mapping"
"Blocked","m150","tile","17","m150jaw.wav","None","720.907806419","149","174677.305419","166976.822522","167743.260102","168493.435171","169260.076187","170026.558287","170793.931425","171559.971408","160860.166218","161626.828257","162393.314377","163160.0871","163926.830452","164676.607616","165443.302427","166209.917782","171568.983807","Mapping"
"Blocked","m150","tile","17","m150greet.wav","None","720.52505007","149","174677.305419","166976.822522","167743.260102","168493.435171","169260.076187","170026.558287","170793.931425","171559.971408","175426.628408","161626.828257","162393.314377","163160.0871","163926.830452","164676.607616","165443.302427","166209.917782","174686.688826","Mapping"
"Blocked","m150","tile","17","m150cad.wav","None","734.986935742","149","174677.305419","166976.822522","167743.260102","168493.435171","169260.076187","170026.558287","170793.931425","171559.971408","175426.628408","176193.065369","162393.314377","163160.0871","163926.830452","164676.607616","165443.302427","166209.917782","175435.692748","Mapping"
"Blocked","m150","tile","17","m150gnash.wav","None","732.343505137","149","174677.305419","166976.822522","167743.260102","168493.435171","169260.076187","170026.558287","170793.931425","171559.971408","175426.628408","176193.065369","176959.964853","163160.0871","163926.830452","164676.607616","165443.302427","166209.917782","176201.87124","Mapping"
"Blocked","m150","tile","17","m150romp.wav","None","732.297438197","149","174677.305419","166976.822522","167743.260102","168493.435171","169260.076187","170026.558287","170793.931425","171559.971408","175426.628408","176193.065369","176959.964853","177726.420056","163926.830452","164676.607616","165443.302427","166209.917782","176968.997966","Mapping"
"Blocked","m150","tile","17","m150tile.wav","None","729.82343426","149","174677.305419","166976.822522","167743.260102","168493.435171","169260.076187","170026.558287","170793.931425","171559.971408","175426.628408","176193.065369","176959.964853","177726.420056","178493.287077","164676.607616","165443.302427","166209.917782","177735.131629","Mapping"
"Blocked","m150","tile","17","m150jaw.wav","space","397.017962765","149","174677.305419","166976.822522","167743.260102","168493.435171","169260.076187","170026.558287","170793.931425","171559.971408","175426.628408","176193.065369","176959.964853","177726.420056","178493.287077","179260.414731","165443.302427","166209.917782","178502.823524","Mapping"
"Blocked","m150","tile","17","m150tile.wav","None","721.855731681","149","174677.305419","166976.822522","167743.260102","168493.435171","169260.076187","170026.558287","170793.931425","171559.971408","175426.628408","176193.065369","176959.964853","177726.420056","178493.287077","179260.414731","180010.453146","166209.917782","179269.673232","Mapping"
"Blocked","m150","tile","17","m150lash.wav","space","448.250744026","149","174677.305419","166976.822522","167743.260102","168493.435171","169260.076187","170026.558287","170793.931425","171559.971408","175426.628408","176193.065369","176959.964853","177726.420056","178493.287077","179260.414731","180010.453146","180776.850224","180019.612711","Mapping"
"Blocked","m150","tile","17","m150tile.wav","None","736.196730752","149","174677.305419","181543.377773","167743.260102","168493.435171","169260.076187","170026.558287","170793.931425","171559.971408","175426.628408","176193.065369","176959.964853","177726.420056","178493.287077","179260.414731","180010.453146","180776.850224","180785.890139","Mapping"
"Blocked","m150","tile","17","m150park.wav","space","442.684699316","149","174677.305419","181543.377773","182309.508034","168493.435171","169260.076187","170026.558287","170793.931425","171559.971408","175426.628408","176193.065369","176959.964853","177726.420056","178493.287077","179260.414731","180010.453146","180776.850224","181553.115801","Mapping"
"Blocked","m150","tile","17","m150dime.wav","None","730.224431958","149","174677.305419","181543.377773","182309.508034","183076.243966","169260.076187","170026.558287","170793.931425","171559.971408","175426.628408","176193.065369","176959.964853","177726.420056","178493.287077","179260.414731","180010.453146","180776.850224","182318.395218","Mapping"
"Blocked","m150","tile","17","m150cling.wav","None","727.0300542","149","174677.305419","181543.377773","182309.508034","183076.243966","183843.725314","170026.558287","170793.931425","171559.971408","175426.628408","176193.065369","176959.964853","177726.420056","178493.287077","179260.414731","180010.453146","180776.850224","183085.05633","Mapping"
"Blocked","m150","tile","17","m150romp.wav","None","722.36308502","149","174677.305419","181543.377773","182309.508034","183076.243966","183843.725314","184609.709337","170793.931425","171559.971408","175426.628408","176193.065369","176959.964853","177726.420056","178493.287077","179260.414731","180010.453146","180776.850224","183853.25125","Mapping"
"Blocked","m150","tile","17","m150tile.wav","None","720.783828292","149","174677.305419","181543.377773","182309.508034","183076.243966","183843.725314","184609.709337","185359.825664","171559.971408","175426.628408","176193.065369","176959.964853","177726.420056","178493.287077","179260.414731","180010.453146","180776.850224","184618.484291","Mapping"
"Blocked","m150","tile","17","m150gnash.wav","space","442.279373296","149","174677.305419","181543.377773","182309.508034","183076.243966","183843.725314","184609.709337","185359.825664","186126.654038","175426.628408","176193.065369","176959.964853","177726.420056","178493.287077","179260.414731","180010.453146","180776.850224","185369.458264","Mapping"
"Blocked","m150","tile","14","m150depth.wav","None","730.243909638","149","189260.306521","181543.377773","182309.508034","183076.243966","183843.725314","184609.709337","185359.825664","186126.654038","175426.628408","176193.065369","176959.964853","177726.420056","178493.287077","179260.414731","180010.453146","180776.850224","186135.660563","Mapping"
"Blocked","m150","tile","14","m150jolt.wav","None","719.540642574","149","189260.306521","181543.377773","182309.508034","183076.243966","183843.725314","184609.709337","185359.825664","186126.654038","190027.011535","176193.065369","176959.964853","177726.420056","178493.287077","179260.414731","180010.453146","180776.850224","189270.179349","Mapping"
"Blocked","m150","tile","14","m150tile.wav","None","722.099050879","149","189260.306521","181543.377773","182309.508034","183076.243966","183843.725314","184609.709337","185359.825664","186126.654038","190027.011535","190793.356672","176959.964853","177726.420056","178493.287077","179260.414731","180010.453146","180776.850224","190036.385048","Mapping"
"Blocked","m150","tile","14","m150jaw.wav","space","456.781451125","149","189260.306521","181543.377773","182309.508034","183076.243966","183843.725314","184609.709337","185359.825664","186126.654038","190027.011535","190793.356672","191542.717379","177726.420056","178493.287077","179260.414731","180010.453146","180776.850224","190802.854473","Mapping"
"Blocked","m150","tile","14","m150priest.wav","None","733.965427615","149","189260.306521","181543.377773","182309.508034","183076.243966","183843.725314","184609.709337","185359.825664","186126.654038","190027.011535","190793.356672","191542.717379","192309.452693","178493.287077","179260.414731","180010.453146","180776.850224","191551.287351","Mapping"
"Blocked","m150","tile","14","m150tile.wav","None","730.787745677","149","189260.306521","181543.377773","182309.508034","183076.243966","183843.725314","184609.709337","185359.825664","186126.654038","190027.011535","190793.356672","191542.717379","192309.452693","193076.507072","179260.414731","180010.453146","180776.850224","192318.48055","Mapping"
"Blocked","m150","tile","14","m150dime.wav","space","462.059656158","149","189260.306521","181543.377773","182309.508034","183076.243966","183843.725314","184609.709337","185359.825664","186126.654038","190027.011535","190793.356672","191542.717379","192309.452693","193076.507072","193842.89302","180010.453146","180776.850224","193085.528747","Mapping"
"Blocked","m150","tile","14","m150depth.wav","None","724.198955111","149","189260.306521","181543.377773","182309.508034","183076.243966","183843.725314","184609.709337","185359.825664","186126.654038","190027.011535","190793.356672","191542.717379","192309.452693","193076.507072","193842.89302","194609.536819","180776.850224","193851.836164","Mapping"
"Blocked","m150","tile","14","m150tile.wav","None","721.358890645","149","189260.306521","181543.377773","182309.508034","183076.243966","183843.725314","184609.709337","185359.825664","186126.654038","190027.011535","190793.356672","191542.717379","192309.452693","193076.507072","193842.89302","194609.536819","195359.241326","194618.374225","Mapping"
"Blocked","m150","tile","14","m150reek.wav","space","451.504482888","149","189260.306521","196126.042494","182309.508034","183076.243966","183843.725314","184609.709337","185359.825664","186126.654038","190027.011535","190793.356672","191542.717379","192309.452693","193076.507072","193842.89302","194609.536819","195359.241326","195368.065748","Mapping"
"Blocked","m150","tile","14","m150tile.wav","None","731.701352634","149","189260.306521","196126.042494","196892.98588","183076.243966","183843.725314","184609.709337","185359.825664","186126.654038","190027.011535","190793.356672","191542.717379","192309.452693","193076.507072","193842.89302","194609.536819","195359.241326","196134.941116","Mapping"
"Blocked","m150","tile","14","m150dime.wav","space","517.214918043","149","189260.306521","196126.042494","196892.98588","197659.254033","183843.725314","184609.709337","185359.825664","186126.654038","190027.011535","190793.356672","191542.717379","192309.452693","193076.507072","193842.89302","194609.536819","195359.241326","196902.306834","Mapping"
"Blocked","m150","tile","14","m150romp.wav","None","724.863677751","149","189260.306521","196126.042494","196892.98588","197659.254033","198426.781758","184609.709337","185359.825664","186126.654038","190027.011535","190793.356672","191542.717379","192309.452693","193076.507072","193842.89302","194609.536819","195359.241326","197668.48038","Mapping"
"Blocked","m150","tile","14","m150greet.wav","None","720.753529109","149","189260.306521","196126.042494","196892.98588","197659.254033","198426.781758","199176.215121","185359.825664","186126.654038","190027.011535","190793.356672","191542.717379","192309.452693","193076.507072","193842.89302","194609.536819","195359.241326","198436.225762","Mapping"
"Blocked","m150","tile","14","m150priest.wav","None","735.242003575","149","189260.306521","196126.042494","196892.98588","197659.254033","198426.781758","199176.215121","199943.028654","186126.654038","190027.011535","190793.356672","191542.717379","192309.452693","193076.507072","193842.89302","194609.536819","195359.241326","199185.358609","Mapping"
"Blocked","m150","tile","14","m150dime.wav","None","732.005269732","149","189260.306521","196126.042494","196892.98588","197659.254033","198426.781758","199176.215121","199943.028654","200709.619893","190027.011535","190793.356672","191542.717379","192309.452693","193076.507072","193842.89302","194609.536819","195359.241326","199952.34899","Mapping"
"Blocked","m150","ball","3","m150bluff.wav","space","492.115001194","149","203843.302984","196126.042494","196892.98588","197659.254033","198426.781758","199176.215121","199943.028654","200709.619893","190027.011535","190793.356672","191542.717379","192309.452693","193076.507072","193842.89302","194609.536819","195359.241326","200719.324222","Mapping"
"Blocked","m150","ball","3","m150done.wav","None","719.534768723","149","203843.302984","196126.042494","196892.98588","197659.254033","198426.781758","199176.215121","199943.028654","200709.619893","204592.62659","190793.356672","191542.717379","192309.452693","193076.507072","193842.89302","194609.536819","195359.241326","203852.899102","Mapping"
"Blocked","m150","ball","3","m150ball.wav","None","741.669714451","149","203843.302984","196126.042494","196892.98588","197659.254033","198426.781758","199176.215121","199943.028654","200709.619893","204592.62659","205359.560084","191542.717379","192309.452693","193076.507072","193842.89302","194609.536819","195359.241326","204595.82004","Mapping"
"Blocked","m150","ball","3","m150jolt.wav","space","434.240870178","149","203843.302984","196126.042494","196892.98588","197659.254033","198426.781758","199176.215121","199943.028654","200709.619893","204592.62659","205359.560084","206125.91666","192309.452693","193076.507072","193842.89302","194609.536819","195359.241326","205369.135487","Mapping"
"Blocked","m150","ball","3","m150knife.wav","None","729.32597436","149","203843.302984","196126.042494","196892.98588","197659.254033","198426.781758","199176.215121","199943.028654","200709.619893","204592.62659","205359.560084","206125.91666","206892.757711","193076.507072","193842.89302","194609.536819","195359.241326","206134.737681","Mapping"
"Blocked","m150","ball","3","m150lash.wav","None","725.327437744","149","203843.302984","196126.042494","196892.98588","197659.254033","198426.781758","199176.215121","199943.028654","200709.619893","204592.62659","205359.560084","206125.91666","206892.757711","207660.039642","193842.89302","194609.536819","195359.241326","206902.254584","Mapping"
"Blocked","m150","ball","3","m150jolt.wav","None","727.039638441","149","203843.302984","196126.042494","196892.98588","197659.254033","198426.781758","199176.215121","199943.028654","200709.619893","204592.62659","205359.560084","206125.91666","206892.757711","207660.039642","208409.723126","194609.536819","195359.241326","207664.194003","Mapping"
"Blocked","m150","ball","3","m150ball.wav","None","735.925276298","149","203843.302984","196126.042494","196892.98588","197659.254033","198426.781758","199176.215121","199943.028654","200709.619893","204592.62659","205359.560084","206125.91666","206892.757711","207660.039642","208409.723126","209176.231816","195359.241326","208418.802616","Mapping"
"Blocked","m150","ball","3","m150park.wav","space","402.084074914","149","203843.302984","196126.042494","196892.98588","197659.254033","198426.781758","199176.215121","199943.028654","200709.619893","204592.62659","205359.560084","206125.91666","206892.757711","207660.039642","208409.723126","209176.231816","209942.480491","209185.213606","Mapping"
"Blocked","m150","ball","3","m150cave.wav","None","730.069227051","149","203843.302984","210709.357096","196892.98588","197659.254033","198426.781758","199176.215121","199943.028654","200709.619893","204592.62659","205359.560084","206125.91666","206892.757711","207660.039642","208409.723126","209176.231816","209942.480491","209951.317897","Mapping"
"Blocked","m150","ball","3","m150lash.wav","None","730.899048038","149","203843.302984","210709.357096","211476.195983","197659.254033","198426.781758","199176.215121","199943.028654","200709.619893","204592.62659","205359.560084","206125.91666","206892.757711","207660.039642","208409.723126","209176.231816","209942.480491","210718.376606","Mapping"
"Blocked","m150","ball","3","m150ball.wav","None","727.690757718","149","203843.302984","210709.357096","211476.195983","212242.669736","198426.781758","199176.215121","199943.028654","200709.619893","204592.62659","205359.560084","206125.91666","206892.757711","207660.039642","208409.723126","209176.231816","209942.480491","211485.226622","Mapping"
"Blocked","m150","ball","3","m150bluff.wav","space","415.505283047","149","203843.302984","210709.357096","211476.195983","212242.669736","213009.736173","199176.215121","199943.028654","200709.619893","204592.62659","205359.560084","206125.91666","206892.757711","207660.039642","208409.723126","209176.231816","209942.480491","212251.743351","Mapping"
"Blocked","m150","ball","3","m150ball.wav","None","720.228553284","149","203843.302984","210709.357096","211476.195983","212242.669736","213009.736173","213758.886643","199943.028654","200709.619893","204592.62659","205359.560084","206125.91666","206892.757711","207660.039642","208409.723126","209176.231816","209942.480491","213019.509138","Mapping"
"Blocked","m150","ball","3","m150cad.wav","space","635.332684033","149","203843.302984","210709.357096","211476.195983","212242.669736","213009.736173","213758.886643","214526.164555","200709.619893","204592.62659","205359.560084","206125.91666","206892.757711","207660.039642","208409.723126","209176.231816","209942.480491","213767.856067","Mapping"
"Blocked","m150","ball","3","m150jaw.wav","None","731.243157759","149","203843.302984","210709.357096","211476.195983","212242.669736","213009.736173","213758.886643","214526.164555","215292.193717","204592.62659","205359.560084","206125.91666","206892.757711","207660.039642","208409.723126","209176.231816","209942.480491","214535.210963","Mapping"
"Blocked","m150","tile","16","m150depth.wav","None","732.393281534","149","218426.506284","210709.357096","211476.195983","212242.669736","213009.736173","213758.886643","214526.164555","215292.193717","204592.62659","205359.560084","206125.91666","206892.757711","207660.039642","208409.723126","209176.231816","209942.480491","215300.819649","Mapping"
"Blocked","m150","tile","16","m150romp.wav","None","720.200109296","149","218426.506284","210709.357096","211476.195983","212242.669736","213009.736173","213758.886643","214526.164555","215292.193717","219175.84875","205359.560084","206125.91666","206892.757711","207660.039642","208409.723126","209176.231816","209942.480491","218435.990172","Mapping"
"Blocked","m150","tile","16","m150park.wav","None","734.971477184","149","218426.506284","210709.357096","211476.195983","212242.669736","213009.736173","213758.886643","214526.164555","215292.193717","219175.84875","219942.663212","206125.91666","206892.757711","207660.039642","208409.723126","209176.231816","209942.480491","219184.997185","Mapping"
"Blocked","m150","tile","16","m150tile.wav","None","731.622512918","149","218426.506284","210709.357096","211476.195983","212242.669736","213009.736173","213758.886643","214526.164555","215292.193717","219175.84875","219942.663212","220709.215804","206892.757711","207660.039642","208409.723126","209176.231816","209942.480491","219952.010136","Mapping"
"Blocked","m150","tile","16","m150greet.wav","space","484.276842326","149","218426.506284","210709.357096","211476.195983","212242.669736","213009.736173","213758.886643","214526.164555","215292.193717","219175.84875","219942.663212","220709.215804","221475.608862","207660.039642","208409.723126","209176.231816","209942.480491","220718.811303","Mapping"
"Blocked","m150","tile","16","m150jaw.wav","None","726.072235499","149","218426.506284","210709.357096","211476.195983","212242.669736","213009.736173","213758.886643","214526.164555","215292.193717","219175.84875","219942.663212","220709.215804","221475.608862","222242.434764","208409.723126","209176.231816","209942.480491","221484.435758","Mapping"
"Blocked","m150","tile","16","m150dime.wav","None","722.879095003","149","218426.506284","210709.357096","211476.195983","212242.669736","213009.736173","213758.886643","214526.164555","215292.193717","219175.84875","219942.663212","220709.215804","221475.608862","222242.434764","222992.4166","209176.231816","209942.480491","222251.344826","Mapping"
"Blocked","m150","tile","16","m150cling.wav","None","736.829299014","149","218426.506284","210709.357096","211476.195983","212242.669736","213009.736173","213758.886643","214526.164555","215292.193717","219175.84875","219942.663212","220709.215804","221475.608862","222242.434764","222992.4166","223758.763283","209942.480491","223001.163419","Mapping"
"Blocked","m150","tile","16","m150tile.wav","None","734.151859302","149","218426.506284","210709.357096","211476.195983","212242.669736","213009.736173","213758.886643","214526.164555","215292.193717","219175.84875","219942.663212","220709.215804","221475.608862","222242.434764","222992.4166","223758.763283","224525.982761","223767.684784","Mapping"
"Blocked","m150","tile","16","m150romp.wav","space","531.636302359","149","218426.506284","225292.144249","211476.195983","212242.669736","213009.736173","213758.886643","214526.164555","215292.193717","219175.84875","219942.663212","220709.215804","221475.608862","222242.434764","222992.4166","223758.763283","224525.982761","224535.396467","Mapping"
"Blocked","m150","tile","16","m150greet.wav","None","727.825866081","149","218426.506284","225292.144249","226059.506566","212242.669736","213009.736173","213758.886643","214526.164555","215292.193717","219175.84875","219942.663212","220709.215804","221475.608862","222242.434764","222992.4166","223758.763283","224525.982761","225300.814084","Mapping"
"Blocked","m150","tile","16","m150done.wav","None","723.900912795","149","218426.506284","225292.144249","226059.506566","226826.198286","213009.736173","213758.886643","214526.164555","215292.193717","219175.84875","219942.663212","220709.215804","221475.608862","222242.434764","222992.4166","223758.763283","224525.982761","226068.962628","Mapping"
"Blocked","m150","tile","16","m150tile.wav","None","720.747345593","149","218426.506284","225292.144249","226059.506566","226826.198286","227575.355557","213758.886643","214526.164555","215292.193717","219175.84875","219942.663212","220709.215804","221475.608862","222242.434764","222992.4166","223758.763283","224525.982761","226835.850055","Mapping"
"Blocked","m150","tile","16","m150cling.wav","space","394.918676466","149","218426.506284","225292.144249","226059.506566","226826.198286","227575.355557","228342.348102","214526.164555","215292.193717","219175.84875","219942.663212","220709.215804","221475.608862","222242.434764","222992.4166","223758.763283","224525.982761","227584.038377","Mapping"
"Blocked","m150","tile","16","m150tile.wav","None","731.821002439","149","218426.506284","225292.144249","226059.506566","226826.198286","227575.355557","228342.348102","229109.021581","215292.193717","219175.84875","219942.663212","220709.215804","221475.608862","222242.434764","222992.4166","223758.763283","224525.982761","228351.651124","Mapping"
"Blocked","m150","tile","16","m150depth.wav","space","500.300670508","149","218426.506284","225292.144249","226059.506566","226826.198286","227575.355557","228342.348102","229109.021581","229875.881801","219175.84875","219942.663212","220709.215804","221475.608862","222242.434764","222992.4166","223758.763283","224525.982761","229118.627284","Mapping"
"Blocked","m150","done","24","m150priest.wav","None","725.521598477","149","232992.72701","225292.144249","226059.506566","226826.198286","227575.355557","228342.348102","229109.021581","229875.881801","219175.84875","219942.663212","220709.215804","221475.608862","222242.434764","222992.4166","223758.763283","224525.982761","229884.920788","Mapping"
"Blocked","m150","done","24","m150jaw.wav","None","719.669877086","149","232992.72701","225292.144249","226059.506566","226826.198286","227575.355557","228342.348102","229109.021581","229875.881801","233742.038867","219942.663212","220709.215804","221475.608862","222242.434764","222992.4166","223758.763283","224525.982761","233002.146899","Mapping"
"Blocked","m150","done","24","m150done.wav","None","734.896348324","149","232992.72701","225292.144249","226059.506566","226826.198286","227575.355557","228342.348102","229109.021581","229875.881801","233742.038867","234508.64742","220709.215804","221475.608862","222242.434764","222992.4166","223758.763283","224525.982761","233750.829589","Mapping"
"Blocked","m150","done","24","m150priest.wav","space","445.217136759","149","232992.72701","225292.144249","226059.506566","226826.198286","227575.355557","228342.348102","229109.021581","229875.881801","233742.038867","234508.64742","235275.823923","221475.608862","222242.434764","222992.4166","223758.763283","224525.982761","234517.626428","Mapping"
"Blocked","m150","done","24","m150park.wav","None","727.680864278","149","232992.72701","225292.144249","226059.506566","226826.198286","227575.355557","228342.348102","229109.021581","229875.881801","233742.038867","234508.64742","235275.823923","236042.365385","222242.434764","222992.4166","223758.763283","224525.982761","235284.870022","Mapping"
"Blocked","m150","done","24","m150done.wav","None","724.671990611","149","232992.72701","225292.144249","226059.506566","226826.198286","227575.355557","228342.348102","229109.021581","229875.881801","233742.038867","234508.64742","235275.823923","236042.365385","236809.331651","222992.4166","223758.763283","224525.982761","236051.699633","Mapping"
"Blocked","m150","done","24","m150reek.wav","space","440.069403499","149","232992.72701","225292.144249","226059.506566","226826.198286","227575.355557","228342.348102","229109.021581","229875.881801","233742.038867","234508.64742","235275.823923","236042.365385","236809.331651","237558.776762","223758.763283","224525.982761","236818.735772","Mapping"
"Blocked","m150","done","24","m150jaw.wav","None","735.252824612","149","232992.72701","225292.144249","226059.506566","226826.198286","227575.355557","228342.348102","229109.021581","229875.881801","233742.038867","234508.64742","235275.823923","236042.365385","236809.331651","237558.776762","238325.300292","224525.982761","237568.159242","Mapping"
"Blocked","m150","done","24","m150cling.wav","None","733.087066561","149","232992.72701","225292.144249","226059.506566","226826.198286","227575.355557","228342.348102","229109.021581","229875.881801","233742.038867","234508.64742","235275.823923","236042.365385","236809.331651","237558.776762","238325.300292","239091.86927","238334.136462","Mapping"
"Blocked","m150","done","24","m150cling.wav","None","730.356448796","149","232992.72701","239858.577377","226059.506566","226826.198286","227575.355557","228342.348102","229109.021581","229875.881801","233742.038867","234508.64742","235275.823923","236042.365385","236809.331651","237558.776762","238325.300292","239091.86927","239100.596921","Mapping"
"Blocked","m150","done","24","m150done.wav","None","727.223287802","149","232992.72701","239858.577377","240626.124888","226826.198286","227575.355557","228342.348102","229109.021581","229875.881801","233742.038867","234508.64742","235275.823923","236042.365385","236809.331651","237558.776762","238325.300292","239091.86927","239867.465797","Mapping"
"Blocked","m150","done","24","m150depth.wav","space","495.250017382","149","232992.72701","239858.577377","240626.124888","241392.496923","227575.355557","228342.348102","229109.021581","229875.881801","233742.038867","234508.64742","235275.823923","236042.365385","236809.331651","237558.776762","238325.300292","239091.86927","240635.492836","Mapping"
"Blocked","m150","done","24","m150jaw.wav","None","719.674515072","149","232992.72701","239858.577377","240626.124888","241392.496923","242141.863504","228342.348102","229109.021581","229875.881801","233742.038867","234508.64742","235275.823923","236042.365385","236809.331651","237558.776762","238325.300292","239091.86927","241401.96999","Mapping"
"Blocked","m150","done","24","m150park.wav","None","734.846262261","149","232992.72701","239858.577377","240626.124888","241392.496923","242141.863504","242908.791742","229109.021581","229875.881801","233742.038867","234508.64742","235275.823923","236042.365385","236809.331651","237558.776762","238325.300292","239091.86927","242150.598884","Mapping"
"Blocked","m150","done","24","m150done.wav","None","730.559575837","149","232992.72701","239858.577377","240626.124888","241392.496923","242141.863504","242908.791742","243675.616406","229875.881801","233742.038867","234508.64742","235275.823923","236042.365385","236809.331651","237558.776762","238325.300292","239091.86927","242918.800915","Mapping"
"Blocked","m150","done","24","m150gnash.wav","space","414.061753545","149","232992.72701","239858.577377","240626.124888","241392.496923","242141.863504","242908.791742","243675.616406","244442.096961","233742.038867","234508.64742","235275.823923","236042.365385","236809.331651","237558.776762","238325.300292","239091.86927","243684.626023","Mapping"
"Blocked","m150","tile","15","m150priest.wav","None","725.060621276","149","247559.138804","239858.577377","240626.124888","241392.496923","242141.863504","242908.791742","243675.616406","244442.096961","233742.038867","234508.64742","235275.823923","236042.365385","236809.331651","237558.776762","238325.300292","239091.86927","244451.286207","Mapping"
"Blocked","m150","tile","15","m150done.wav","None","719.676679","149","247559.138804","239858.577377","240626.124888","241392.496923","242141.863504","242908.791742","243675.616406","244442.096961","248308.224966","234508.64742","235275.823923","236042.365385","236809.331651","237558.776762","238325.300292","239091.86927","247568.712662","Mapping"
"Blocked","m150","tile","15","m150depth.wav","None","735.329809133","149","247559.138804","239858.577377","240626.124888","241392.496923","242141.863504","242908.791742","243675.616406","244442.096961","248308.224966","249075.540288","235275.823923","236042.365385","236809.331651","237558.776762","238325.300292","239091.86927","248317.022489","Mapping"
"Blocked","m150","tile","15","m150tile.wav","None","731.678473763","149","247559.138804","239858.577377","240626.124888","241392.496923","242141.863504","242908.791742","243675.616406","244442.096961","248308.224966","249075.540288","249841.957462","236042.365385","236809.331651","237558.776762","238325.300292","239091.86927","249084.519914","Mapping"
"Blocked","m150","tile","15","m150park.wav","space","447.606427595","149","247559.138804","239858.577377","240626.124888","241392.496923","242141.863504","242908.791742","243675.616406","244442.096961","248308.224966","249075.540288","249841.957462","250608.348357","236809.331651","237558.776762","238325.300292","239091.86927","249850.96646","Mapping"
"Blocked","m150","tile","15","m150gnash.wav","None","726.07378196","149","247559.138804","239858.577377","240626.124888","241392.496923","242141.863504","242908.791742","243675.616406","244442.096961","248308.224966","249075.540288","249841.957462","250608.348357","251375.266391","237558.776762","238325.300292","239091.86927","250617.171851","Mapping"
"Blocked","m150","tile","15","m150done.wav","None","722.993180156","149","247559.138804","239858.577377","240626.124888","241392.496923","242141.863504","242908.791742","243675.616406","244442.096961","248308.224966","249075.540288","249841.957462","250608.348357","251375.266391","252141.898441","238325.300292","239091.86927","251384.152648","Mapping"
"Blocked","m150","tile","15","m150tile.wav","None","720.385613386","149","247559.138804","239858.577377","240626.124888","241392.496923","242141.863504","242908.791742","243675.616406","244442.096961","248308.224966","249075.540288","249841.957462","250608.348357","251375.266391","252141.898441","252891.878113","239091.86927","252150.801701","Mapping"
"Blocked","m150","tile","15","m150lash.wav","space","405.524554197","149","247559.138804","239858.577377","240626.124888","241392.496923","242141.863504","242908.791742","243675.616406","244442.096961","248308.224966","249075.540288","249841.957462","250608.348357","251375.266391","252141.898441","252891.878113","253658.599204","252901.007379","Mapping"
"Blocked","m150","tile","15","m150tile.wav","None","730.155795347","149","247559.138804","254424.990099","240626.124888","241392.496923","242141.863504","242908.791742","243675.616406","244442.096961","248308.224966","249075.540288","249841.957462","250608.348357","251375.266391","252141.898441","252891.878113","253658.599204","253668.295803","Mapping"
"Blocked","m150","tile","15","m150knife.wav","space","576.63336955","149","247559.138804","254424.990099","255192.105386","241392.496923","242141.863504","242908.791742","243675.616406","244442.096961","248308.224966","249075.540288","249841.957462","250608.348357","251375.266391","252141.898441","252891.878113","253658.599204","254433.868007","Mapping"
"Blocked","m150","tile","15","m150lash.wav","None","724.52451475","149","247559.138804","254424.990099","255192.105386","255958.506174","242141.863504","242908.791742","243675.616406","244442.096961","248308.224966","249075.540288","249841.957462","250608.348357","251375.266391","252141.898441","252891.878113","253658.599204","255201.065844","Mapping"
"Blocked","m150","tile","15","m150cad.wav","None","722.217773553","149","247559.138804","254424.990099","255192.105386","255958.506174","256707.993024","242908.791742","243675.616406","244442.096961","248308.224966","249075.540288","249841.957462","250608.348357","251375.266391","252141.898441","252891.878113","253658.599204","255967.291021","Mapping"
"Blocked","m150","tile","15","m150ball.wav","None","736.717069056","149","247559.138804","254424.990099","255192.105386","255958.506174","256707.993024","257474.951251","243675.616406","244442.096961","248308.224966","249075.540288","249841.957462","250608.348357","251375.266391","252141.898441","252891.878113","253658.599204","256716.847126","Mapping"
"Blocked","m150","tile","15","m150tile.wav","None","733.201151248","149","247559.138804","254424.990099","255192.105386","255958.506174","256707.993024","257474.951251","258241.656884","244442.096961","248308.224966","249075.540288","249841.957462","250608.348357","251375.266391","252141.898441","252891.878113","253658.599204","257484.413188","Mapping"
"Blocked","m150","tile","15","m150gnash.wav","space","495.997598395","149","247559.138804","254424.990099","255192.105386","255958.506174","256707.993024","257474.951251","258241.656884","259008.478457","248308.224966","249075.540288","249841.957462","250608.348357","251375.266391","252141.898441","252891.878113","253658.599204","258250.410505","Mapping"
"Blocked","m150","cave","7","m150priest.wav","None","727.388695348","149","262142.097239","254424.990099","255192.105386","255958.506174","256707.993024","257474.951251","258241.656884","259008.478457","248308.224966","249075.540288","249841.957462","250608.348357","251375.266391","252141.898441","252891.878113","253658.599204","259017.980277","Mapping"
"Blocked","m150","cave","7","m150depth.wav","None","719.772213604","149","262142.097239","254424.990099","255192.105386","255958.506174","256707.993024","257474.951251","258241.656884","259008.478457","262891.789071","249075.540288","249841.957462","250608.348357","251375.266391","252141.898441","252891.878113","253658.599204","262151.569997","Mapping"
"Blocked","m150","cave","7","m150romp.wav","None","734.136709943","149","262142.097239","254424.990099","255192.105386","255958.506174","256707.993024","257474.951251","258241.656884","259008.478457","262891.789071","263658.143174","249841.957462","250608.348357","251375.266391","252141.898441","252891.878113","253658.599204","262901.029949","Mapping"
"Blocked","m150","cave","7","m150cave.wav","None","732.138523366","149","262142.097239","254424.990099","255192.105386","255958.506174","256707.993024","257474.951251","258241.656884","259008.478457","262891.789071","263658.143174","264424.806759","250608.348357","251375.266391","252141.898441","252891.878113","253658.599204","263666.916582","Mapping"
"Blocked","m150","cave","7","m150knife.wav","space","648.731941357","149","262142.097239","254424.990099","255192.105386","255958.506174","256707.993024","257474.951251","258241.656884","259008.478457","262891.789071","263658.143174","264424.806759","265191.739325","251375.266391","252141.898441","252891.878113","253658.599204","264433.601809","Mapping"
"Blocked","m150","cave","7","m150ball.wav","None","725.197584834","149","262142.097239","254424.990099","255192.105386","255958.506174","256707.993024","257474.951251","258241.656884","259008.478457","262891.789071","263658.143174","264424.806759","265191.739325","265958.348805","252141.898441","252891.878113","253658.599204","265200.676286","Mapping"
"Blocked","m150","cave","7","m150gnash.wav","None","722.53065696","149","262142.097239","254424.990099","255192.105386","255958.506174","256707.993024","257474.951251","258241.656884","259008.478457","262891.789071","263658.143174","264424.806759","265191.739325","265958.348805","266708.597458","252891.878113","253658.599204","265967.181574","Mapping"
"Blocked","m150","cave","7","m150ball.wav","None","735.97907275","149","262142.097239","254424.990099","255192.105386","255958.506174","256707.993024","257474.951251","258241.656884","259008.478457","262891.789071","263658.143174","264424.806759","265191.739325","265958.348805","266708.597458","267474.775022","253658.599204","266717.665507","Mapping"
"Blocked","m150","cave","7","m150reek.wav","None","734.004074708","149","262142.097239","254424.990099","255192.105386","255958.506174","256707.993024","257474.951251","258241.656884","259008.478457","262891.789071","263658.143174","264424.806759","265191.739325","265958.348805","266708.597458","267474.775022","268241.407381","267483.659114","Mapping"
"Blocked","m150","cave","7","m150cave.wav","None","731.412893627","149","262142.097239","269007.967703","255192.105386","255958.506174","256707.993024","257474.951251","258241.656884","259008.478457","262891.789071","263658.143174","264424.806759","265191.739325","265958.348805","266708.597458","267474.775022","268241.407381","268250.207069","Mapping"
"Blocked","m150","cave","7","m150done.wav","space","529.383357149","149","262142.097239","269007.967703","269774.719402","255958.506174","256707.993024","257474.951251","258241.656884","259008.478457","262891.789071","263658.143174","264424.806759","265191.739325","265958.348805","266708.597458","267474.775022","268241.407381","269016.833554","Mapping"
"Blocked","m150","cave","7","m150cave.wav","None","725.00868002","149","262142.097239","269007.967703","269774.719402","270542.112636","256707.993024","257474.951251","258241.656884","259008.478457","262891.789071","263658.143174","264424.806759","265191.739325","265958.348805","266708.597458","267474.775022","268241.407381","269783.656672","Mapping"
"Blocked","m150","cave","7","m150lash.wav","space","530.573983211","149","262142.097239","269007.967703","269774.719402","270542.112636","271291.293714","257474.951251","258241.656884","259008.478457","262891.789071","263658.143174","264424.806759","265191.739325","265958.348805","266708.597458","267474.775022","268241.407381","270551.617548","Mapping"
"Blocked","m150","cave","7","m150jolt.wav","None","735.775946174","149","262142.097239","269007.967703","269774.719402","270542.112636","271291.293714","272057.883407","258241.656884","259008.478457","262891.789071","263658.143174","264424.806759","265191.739325","265958.348805","266708.597458","267474.775022","268241.407381","271299.909134","Mapping"
"Blocked","m150","cave","7","m150cave.wav","None","733.089539688","149","262142.097239","269007.967703","269774.719402","270542.112636","271291.293714","272057.883407","272825.055891","259008.478457","262891.789071","263658.143174","264424.806759","265191.739325","265958.348805","266708.597458","267474.775022","268241.407381","272066.642902","Mapping"
"Blocked","m150","cave","7","m150jolt.wav","space","447.82779552","149","262142.097239","269007.967703","269774.719402","270542.112636","271291.293714","272057.883407","272825.055891","273591.29158","262891.789071","263658.143174","264424.806759","265191.739325","265958.348805","266708.597458","267474.775022","268241.407381","272834.322739","Mapping"
"Blocked","m150","ball","2","m150dime.wav","None","726.500131655","149","276708.741841","269007.967703","269774.719402","270542.112636","271291.293714","272057.883407","272825.055891","273591.29158","262891.789071","263658.143174","264424.806759","265191.739325","265958.348805","266708.597458","267474.775022","268241.407381","273600.024796","Mapping"
"Blocked","m150","ball","2","m150romp.wav","None","719.495503698","149","276708.741841","269007.967703","269774.719402","270542.112636","271291.293714","272057.883407","272825.055891","273591.29158","277458.089563","263658.143174","264424.806759","265191.739325","265958.348805","266708.597458","267474.775022","268241.407381","276718.566747","Mapping"
"Blocked","m150","ball","2","m150lash.wav","None","735.095764976","149","276708.741841","269007.967703","269774.719402","270542.112636","271291.293714","272057.883407","272825.055891","273591.29158","277458.089563","278224.689768","264424.806759","265191.739325","265958.348805","266708.597458","267474.775022","268241.407381","277467.042292","Mapping"
"Blocked","m150","ball","2","m150dime.wav","None","733.280609362","149","276708.741841","269007.967703","269774.719402","270542.112636","271291.293714","272057.883407","272825.055891","273591.29158","277458.089563","278224.689768","278991.357063","265191.739325","265958.348805","266708.597458","267474.775022","268241.407381","278233.498421","Mapping"
"Blocked","m150","ball","2","m150ball.wav","None","733.377689496","149","276708.741841","269007.967703","269774.719402","270542.112636","271291.293714","272057.883407","272825.055891","273591.29158","277458.089563","278224.689768","278991.357063","279757.773619","265958.348805","266708.597458","267474.775022","268241.407381","279000.180248","Mapping"
"Blocked","m150","ball","2","m150cling.wav","space","467.301378492","149","276708.741841","269007.967703","269774.719402","270542.112636","271291.293714","272057.883407","272825.055891","273591.29158","277458.089563","278224.689768","278991.357063","279757.773619","280524.952596","266708.597458","267474.775022","268241.407381","279766.736241","Mapping"
"Blocked","m150","ball","2","m150ball.wav","None","725.777593907","149","276708.741841","269007.967703","269774.719402","270542.112636","271291.293714","272057.883407","272825.055891","273591.29158","277458.089563","278224.689768","278991.357063","279757.773619","280524.952596","281291.836003","267474.775022","268241.407381","280534.756478","Mapping"
"Blocked","m150","ball","2","m150reek.wav","space","604.606433306","149","276708.741841","269007.967703","269774.719402","270542.112636","271291.293714","272057.883407","272825.055891","273591.29158","277458.089563","278224.689768","278991.357063","279757.773619","280524.952596","281291.836003","282057.917725","268241.407381","281301.400895","Mapping"
"Blocked","m150","ball","2","m150lash.wav","None","720.824948512","149","276708.741841","269007.967703","269774.719402","270542.112636","271291.293714","272057.883407","272825.055891","273591.29158","277458.089563","278224.689768","278991.357063","279757.773619","280524.952596","281291.836003","282057.917725","282807.989839","282066.78914","Mapping"
"Blocked","m150","ball","2","m150reek.wav","None","734.841005877","149","276708.741841","283574.872319","269774.719402","270542.112636","271291.293714","272057.883407","272825.055891","273591.29158","277458.089563","278224.689768","278991.357063","279757.773619","280524.952596","281291.836003","282057.917725","282807.989839","282816.959263","Mapping"
"Blocked","m150","ball","2","m150park.wav","None","731.64322786","149","276708.741841","283574.872319","284341.42522","270542.112636","271291.293714","272057.883407","272825.055891","273591.29158","277458.089563","278224.689768","278991.357063","279757.773619","280524.952596","281291.836003","282057.917725","282807.989839","283584.260364","Mapping"
"Blocked","m150","ball","2","m150ball.wav","None","729.209107347","149","276708.741841","283574.872319","284341.42522","285108.007803","271291.293714","272057.883407","272825.055891","273591.29158","277458.089563","278224.689768","278991.357063","279757.773619","280524.952596","281291.836003","282057.917725","282807.989839","284350.820066","Mapping"
"Blocked","m150","ball","2","m150bluff.wav","space","444.967943244","149","276708.741841","283574.872319","284341.42522","285108.007803","285875.355279","272057.883407","272825.055891","273591.29158","277458.089563","278224.689768","278991.357063","279757.773619","280524.952596","281291.836003","282057.917725","282807.989839","285116.966714","Mapping"
"Blocked","m150","ball","2","m150jaw.wav","None","722.27466153","149","276708.741841","283574.872319","284341.42522","285108.007803","285875.355279","286641.919619","272825.055891","273591.29158","277458.089563","278224.689768","278991.357063","279757.773619","280524.952596","281291.836003","282057.917725","282807.989839","285884.836384","Mapping"
"Blocked","m150","ball","2","m150ball.wav","None","719.532604329","149","276708.741841","283574.872319","284341.42522","285108.007803","285875.355279","286641.919619","287391.255284","273591.29158","277458.089563","278224.689768","278991.357063","279757.773619","280524.952596","281291.836003","282057.917725","282807.989839","286651.758129","Mapping"
"Blocked","m150","ball","2","m150jolt.wav","space","457.494404633","149","276708.741841","283574.872319","284341.42522","285108.007803","285875.355279","286641.919619","287391.255284","288157.639376","277458.089563","278224.689768","278991.357063","279757.773619","280524.952596","281291.836003","282057.917725","282807.989839","287400.411448","Mapping"
"Blocked","m150","done","23","m150cad.wav","None","732.192319352","149","291291.531159","283574.872319","284341.42522","285108.007803","285875.355279","286641.919619","287391.255284","288157.639376","277458.089563","278224.689768","278991.357063","279757.773619","280524.952596","281291.836003","282057.917725","282807.989839","288166.436281","Mapping"
"Blocked","m150","done","23","m150park.wav","None","719.240126666","149","291291.531159","283574.872319","284341.42522","285108.007803","285875.355279","286641.919619","287391.255284","288157.639376","292040.992038","278224.689768","278991.357063","279757.773619","280524.952596","281291.836003","282057.917725","282807.989839","291301.673276","Mapping"
"Blocked","m150","done","23","m150done.wav","None","735.201192554","149","291291.531159","283574.872319","284341.42522","285108.007803","285875.355279","286641.919619","287391.255284","288157.639376","292040.992038","292808.182145","278991.357063","279757.773619","280524.952596","281291.836003","282057.917725","282807.989839","292049.753079","Mapping"
"Blocked","m150","done","23","m150jaw.wav","space","456.356029026","149","291291.531159","283574.872319","284341.42522","285108.007803","285875.355279","286641.919619","287391.255284","288157.639376","292040.992038","292808.182145","293574.685888","279757.773619","280524.952596","281291.836003","282057.917725","282807.989839","292817.456104","Mapping"
"Blocked","m150","done","23","m150done.wav","None","728.73359872","149","291291.531159","283574.872319","284341.42522","285108.007803","285875.355279","286641.919619","287391.255284","288157.639376","292040.992038","292808.182145","293574.685888","294340.923123","280524.952596","281291.836003","282057.917725","282807.989839","293583.65964","Mapping"
"Blocked","m150","done","23","m150gnash.wav","space","523.945928086","149","291291.531159","283574.872319","284341.42522","285108.007803","285875.355279","286641.919619","287391.255284","288157.639376","292040.992038","292808.182145","293574.685888","294340.923123","295108.339236","281291.836003","282057.917725","282807.989839","294349.814326","Mapping"
"Blocked","m150","done","23","m150dime.wav","None","722.017738502","149","291291.531159","283574.872319","284341.42522","285108.007803","285875.355279","286641.919619","287391.255284","288157.639376","292040.992038","292808.182145","293574.685888","294340.923123","295108.339236","295875.14906","282057.917725","282807.989839","295117.703474","Mapping"
"Blocked","m150","done","23","m150done.wav","None","719.119239599","149","291291.531159","283574.872319","284341.42522","285108.007803","285875.355279","286641.919619","287391.255284","288157.639376","292040.992038","292808.182145","293574.685888","294340.923123","295108.339236","295875.14906","296624.543158","282807.989839","295884.85277","Mapping"
"Blocked","m150","done","23","m150gnash.wav","space","456.140226219","149","291291.531159","283574.872319","284341.42522","285108.007803","285875.355279","286641.919619","287391.255284","288157.639376","292040.992038","292808.182145","293574.685888","294340.923123","295108.339236","295875.14906","296624.543158","297390.835117","296633.588947","Mapping"
"Blocked","m150","done","23","m150knife.wav","None","731.617257465","149","291291.531159","298157.516944","284341.42522","285108.007803","285875.355279","286641.919619","287391.255284","288157.639376","292040.992038","292808.182145","293574.685888","294340.923123","295108.339236","295875.14906","296624.543158","297390.835117","297399.42333","Mapping"
"Blocked","m150","done","23","m150knife.wav","None","728.940744884","149","291291.531159","298157.516944","298924.592038","285108.007803","285875.355279","286641.919619","287391.255284","288157.639376","292040.992038","292808.182145","293574.685888","294340.923123","295108.339236","295875.14906","296624.543158","297390.835117","298166.209348","Mapping"
"Blocked","m150","done","23","m150done.wav","None","725.616205484","149","291291.531159","298157.516944","298924.592038","299691.682901","285875.355279","286641.919619","287391.255284","288157.639376","292040.992038","292808.182145","293574.685888","294340.923123","295108.339236","295875.14906","296624.543158","297390.835117","298933.979464","Mapping"
"Blocked","m150","done","23","m150reek.wav","space","460.440516472","149","291291.531159","298157.516944","298924.592038","299691.682901","300441.584352","286641.919619","287391.255284","288157.639376","292040.992038","292808.182145","293574.685888","294340.923123","295108.339236","295875.14906","296624.543158","297390.835117","299701.223677","Mapping"
"Blocked","m150","done","23","m150greet.wav","None","735.710710287","149","291291.531159","298157.516944","298924.592038","299691.682901","300441.584352","301207.369885","287391.255284","288157.639376","292040.992038","292808.182145","293574.685888","294340.923123","295108.339236","295875.14906","296624.543158","297390.835117","300450.913344","Mapping"
"Blocked","m150","done","23","m150cling.wav","None","734.540798701","149","291291.531159","298157.516944","298924.592038","299691.682901","300441.584352","301207.369885","301974.596166","288157.639376","292040.992038","292808.182145","293574.685888","294340.923123","295108.339236","295875.14906","296624.543158","297390.835117","301216.3727","Mapping"
"Blocked","m150","done","23","m150park.wav","None","730.983143207","149","291291.531159","298157.516944","298924.592038","299691.682901","300441.584352","301207.369885","301974.596166","302741.104237","292040.992038","292808.182145","293574.685888","294340.923123","295108.339236","295875.14906","296624.543158","297390.835117","301984.148381","Mapping"
"Blocked","m150","cave","8","m150reek.wav","None","728.738236241","149","305874.83525","298157.516944","298924.592038","299691.682901","300441.584352","301207.369885","301974.596166","302741.104237","292040.992038","292808.182145","293574.685888","294340.923123","295108.339236","295875.14906","296624.543158","297390.835117","302750.608221","Mapping"
"Blocked","m150","cave","8","m150knife.wav","None","718.852423131","149","305874.83525","298157.516944","298924.592038","299691.682901","300441.584352","301207.369885","301974.596166","302741.104237","306624.531101","292808.182145","293574.685888","294340.923123","295108.339236","295875.14906","296624.543158","297390.835117","305884.547616","Mapping"
"Blocked","m150","cave","8","m150cave.wav","None","734.112285078","149","305874.83525","298157.516944","298924.592038","299691.682901","300441.584352","301207.369885","301974.596166","302741.104237","306624.531101","307391.135324","293574.685888","294340.923123","295108.339236","295875.14906","296624.543158","297390.835117","306633.379328","Mapping"
"Blocked","m150","cave","8","m150jolt.wav","space","529.299262445","149","305874.83525","298157.516944","298924.592038","299691.682901","300441.584352","301207.369885","301974.596166","302741.104237","306624.531101","307391.135324","308157.30516","294340.923123","295108.339236","295875.14906","296624.543158","297390.835117","307400.240475","Mapping"
"Blocked","m150","cave","8","m150cave.wav","None","728.47265657","149","305874.83525","298157.516944","298924.592038","299691.682901","300441.584352","301207.369885","301974.596166","302741.104237","306624.531101","307391.135324","308157.30516","308924.498668","295108.339236","295875.14906","296624.543158","297390.835117","308166.218624","Mapping"
"Blocked","m150","cave","8","m150ball.wav","space","563.943974208","149","305874.83525","298157.516944","298924.592038","299691.682901","300441.584352","301207.369885","301974.596166","302741.104237","306624.531101","307391.135324","308157.30516","308924.498668","309691.222542","295875.14906","296624.543158","297390.835117","308933.558061","Mapping"
"Blocked","m150","cave","8","m150dime.wav","None","721.349924337","149","305874.83525","298157.516944","298924.592038","299691.682901","300441.584352","301207.369885","301974.596166","302741.104237","306624.531101","307391.135324","308157.30516","308924.498668","309691.222542","310441.23004","296624.543158","297390.835117","309700.83721","Mapping"
"Blocked","m150","cave","8","m150cave.wav","None","736.070588231","149","305874.83525","298157.516944","298924.592038","299691.682901","300441.584352","301207.369885","301974.596166","302741.104237","306624.531101","307391.135324","308157.30516","308924.498668","309691.222542","310441.23004","311207.159029","297390.835117","310450.35034","Mapping"
"Blocked","m150","cave","8","m150jaw.wav","space","513.538539875","149","305874.83525","298157.516944","298924.592038","299691.682901","300441.584352","301207.369885","301974.596166","302741.104237","306624.531101","307391.135324","308157.30516","308924.498668","309691.222542","310441.23004","311207.159029","311974.271843","311215.951297","Mapping"
"Blocked","m150","cave","8","m150romp.wav","None","730.145283509","149","305874.83525","312740.820107","298924.592038","299691.682901","300441.584352","301207.369885","301974.596166","302741.104237","306624.531101","307391.135324","308157.30516","308924.498668","309691.222542","310441.23004","311207.159029","311974.271843","311983.463563","Mapping"
"Blocked","m150","cave","8","m150tile.wav","None","727.939951234","149","305874.83525","312740.820107","313507.458649","299691.682901","300441.584352","301207.369885","301974.596166","302741.104237","306624.531101","307391.135324","308157.30516","308924.498668","309691.222542","310441.23004","311207.159029","311974.271843","312749.86837","Mapping"
"Blocked","m150","cave","8","m150reek.wav","None","725.061239675","149","305874.83525","312740.820107","313507.458649","314274.209112","300441.584352","301207.369885","301974.596166","302741.104237","306624.531101","307391.135324","308157.30516","308924.498668","309691.222542","310441.23004","311207.159029","311974.271843","313517.375689","Mapping"
"Blocked","m150","cave","8","m150priest.wav","None","723.655428737","149","305874.83525","312740.820107","313507.458649","314274.209112","315040.721202","301207.369885","301974.596166","302741.104237","306624.531101","307391.135324","308157.30516","308924.498668","309691.222542","310441.23004","311207.159029","311974.271843","314282.960878","Mapping"
"Blocked","m150","cave","8","m150park.wav","None","721.646730322","149","305874.83525","312740.820107","313507.458649","314274.209112","315040.721202","315790.492801","301974.596166","302741.104237","306624.531101","307391.135324","308157.30516","308924.498668","309691.222542","310441.23004","311207.159029","311974.271843","315049.686298","Mapping"
"Blocked","m150","cave","8","m150cave.wav","None","736.604530364","149","305874.83525","312740.820107","313507.458649","314274.209112","315040.721202","315790.492801","316557.469269","302741.104237","306624.531101","307391.135324","308157.30516","308924.498668","309691.222542","310441.23004","311207.159029","311974.271843","315799.064009","Mapping"
"Blocked","m150","cave","8","m150romp.wav","space","530.003558379","149","305874.83525","312740.820107","313507.458649","314274.209112","315040.721202","315790.492801","316557.469269","317324.294552","306624.531101","307391.135324","308157.30516","308924.498668","309691.222542","310441.23004","311207.159029","311974.271843","316567.33715","Mapping"
"Blocked","m150","cave","11","m150priest.wav","None","729.479015339","149","320457.945179","312740.820107","313507.458649","314274.209112","315040.721202","315790.492801","316557.469269","317324.294552","306624.531101","307391.135324","308157.30516","308924.498668","309691.222542","310441.23004","311207.159029","311974.271843","317333.29242","Mapping"
"Blocked","m150","cave","11","m150dime.wav","None","719.025869388","149","320457.945179","312740.820107","313507.458649","314274.209112","315040.721202","315790.492801","316557.469269","317324.294552","321206.873972","307391.135324","308157.30516","308924.498668","309691.222542","310441.23004","311207.159029","311974.271843","320468.192725","Mapping"
"Blocked","m150","cave","11","m150cave.wav","None","735.638363753","149","320457.945179","312740.820107","313507.458649","314274.209112","315040.721202","315790.492801","316557.469269","317324.294552","321206.873972","321973.784895","308157.30516","308924.498668","309691.222542","310441.23004","311207.159029","311974.271843","321215.982523","Mapping"
"Blocked","m150","cave","11","m150bluff.wav","space","506.558645982","149","320457.945179","312740.820107","313507.458649","314274.209112","315040.721202","315790.492801","316557.469269","317324.294552","321206.873972","321973.784895","322740.717771","308924.498668","309691.222542","310441.23004","311207.159029","311974.271843","321982.680736","Mapping"
"Blocked","m150","cave","11","m150knife.wav","None","728.821404278","149","320457.945179","312740.820107","313507.458649","314274.209112","315040.721202","315790.492801","316557.469269","317324.294552","321206.873972","321973.784895","322740.717771","323507.31983","309691.222542","310441.23004","311207.159029","311974.271843","322749.92804","Mapping"
"Blocked","m150","cave","11","m150lash.wav","None","726.936065592","149","320457.945179","312740.820107","313507.458649","314274.209112","315040.721202","315790.492801","316557.469269","317324.294552","321206.873972","321973.784895","322740.717771","323507.31983","324273.901175","310441.23004","311207.159029","311974.271843","323516.288017","Mapping"
"Blocked","m150","cave","11","m150dime.wav","None","724.721767474","149","320457.945179","312740.820107","313507.458649","314274.209112","315040.721202","315790.492801","316557.469269","317324.294552","321206.873972","321973.784895","322740.717771","323507.31983","324273.901175","325041.007806","311207.159029","311974.271843","324282.881729","Mapping"
"Blocked","m150","cave","11","m150bluff.wav","None","721.70176357","149","320457.945179","312740.820107","313507.458649","314274.209112","315040.721202","315790.492801","316557.469269","317324.294552","321206.873972","321973.784895","322740.717771","323507.31983","324273.901175","325041.007806","325807.818248","311974.271843","325050.64628","Mapping"
"Blocked","m150","cave","11","m150cave.wav","None","719.918761402","149","320457.945179","312740.820107","313507.458649","314274.209112","315040.721202","315790.492801","316557.469269","317324.294552","321206.873972","321973.784895","322740.717771","323507.31983","324273.901175","325041.007806","325807.818248","326557.123304","325817.15497","Mapping"
"Blocked","m150","cave","11","m150romp.wav","space","563.103332184","149","320457.945179","327323.688572","313507.458649","314274.209112","315040.721202","315790.492801","316557.469269","317324.294552","321206.873972","321973.784895","322740.717771","323507.31983","324273.901175","325041.007806","325807.818248","326557.123304","326566.098293","Mapping"
"Blocked","m150","cave","11","m150depth.wav","None","732.059684116","149","320457.945179","327323.688572","328090.363288","314274.209112","315040.721202","315790.492801","316557.469269","317324.294552","321206.873972","321973.784895","322740.717771","323507.31983","324273.901175","325041.007806","325807.818248","326557.123304","327332.553186","Mapping"
"Blocked","m150","cave","11","m150jolt.wav","None","729.753870051","149","320457.945179","327323.688572","328090.363288","328857.189498","315040.721202","315790.492801","316557.469269","317324.294552","321206.873972","321973.784895","322740.717771","323507.31983","324273.901175","325041.007806","325807.818248","326557.123304","328099.162048","Mapping"
"Blocked","m150","cave","11","m150cave.wav","None","727.069937624","149","320457.945179","327323.688572","328090.363288","328857.189498","329624.502038","315790.492801","316557.469269","317324.294552","321206.873972","321973.784895","322740.717771","323507.31983","324273.901175","325041.007806","325807.818248","326557.123304","328866.177163","Mapping"
"Blocked","m150","cave","11","m150knife.wav","space","495.184473228","149","320457.945179","327323.688572","328090.363288","328857.189498","329624.502038","330390.407221","316557.469269","317324.294552","321206.873972","321973.784895","322740.717771","323507.31983","324273.901175","325041.007806","325807.818248","326557.123304","329633.956245","Mapping"
"Blocked","m150","cave","11","m150cave.wav","None","721.301693004","149","320457.945179","327323.688572","328090.363288","328857.189498","329624.502038","330390.407221","331140.427395","317324.294552","321206.873972","321973.784895","322740.717771","323507.31983","324273.901175","325041.007806","325807.818248","326557.123304","330399.421785","Mapping"
"Blocked","m150","cave","11","m150jolt.wav","space","579.530631658","149","320457.945179","327323.688572","328090.363288","328857.189498","329624.502038","330390.407221","331140.427395","331906.837458","321206.873972","321973.784895","322740.717771","323507.31983","324273.901175","325041.007806","325807.818248","326557.123304","331149.588815","Mapping"
"Blocked","m150","done","19","m150jolt.wav","None","732.54261259","149","335040.846726","327323.688572","328090.363288","328857.189498","329624.502038","330390.407221","331140.427395","331906.837458","321206.873972","321973.784895","322740.717771","323507.31983","324273.901175","325041.007806","325807.818248","326557.123304","331915.663425","Mapping"
"Blocked","m150","done","19","m150jolt.wav","None","719.157886226","149","335040.846726","327323.688572","328090.363288","328857.189498","329624.502038","330390.407221","331140.427395","331906.837458","335790.072634","321973.784895","322740.717771","323507.31983","324273.901175","325041.007806","325807.818248","326557.123304","335050.974932","Mapping"
"Blocked","m150","done","19","m150done.wav","None","736.026685219","149","335040.846726","327323.688572","328090.363288","328857.189498","329624.502038","330390.407221","331140.427395","331906.837458","335790.072634","336557.196888","322740.717771","323507.31983","324273.901175","325041.007806","325807.818248","326557.123304","335798.67847","Mapping"
"Blocked","m150","done","19","m150depth.wav","space","506.842775736","149","335040.846726","327323.688572","328090.363288","328857.189498","329624.502038","330390.407221","331140.427395","331906.837458","335790.072634","336557.196888","337323.846251","323507.31983","324273.901175","325041.007806","325807.818248","326557.123304","336566.173422","Mapping"
"Blocked","m150","done","19","m150lash.wav","None","729.344525374","149","335040.846726","327323.688572","328090.363288","328857.189498","329624.502038","330390.407221","331140.427395","331906.837458","335790.072634","336557.196888","337323.846251","338090.173455","324273.901175","325041.007806","325807.818248","326557.123304","337332.901315","Mapping"
"Blocked","m150","done","19","m150cling.wav","None","727.517311461","149","335040.846726","327323.688572","328090.363288","328857.189498","329624.502038","330390.407221","331140.427395","331906.837458","335790.072634","336557.196888","337323.846251","338090.173455","338857.059955","325041.007806","325807.818248","326557.123304","338098.958303","Mapping"
"Blocked","m150","done","19","m150priest.wav","None","724.998168182","149","335040.846726","327323.688572","328090.363288","328857.189498","329624.502038","330390.407221","331140.427395","331906.837458","335790.072634","336557.196888","337323.846251","338090.173455","338857.059955","339624.234603","325807.818248","326557.123304","338866.092759","Mapping"
"Blocked","m150","done","19","m150done.wav","None","721.568509471","149","335040.846726","327323.688572","328090.363288","328857.189498","329624.502038","330390.407221","331140.427395","331906.837458","335790.072634","336557.196888","337323.846251","338090.173455","338857.059955","339624.234603","340390.618696","326557.123304","339633.910179","Mapping"
"Blocked","m150","done","19","m150greet.wav","space","456.781760324","149","335040.846726","327323.688572","328090.363288","328857.189498","329624.502038","330390.407221","331140.427395","331906.837458","335790.072634","336557.196888","337323.846251","338090.173455","338857.059955","339624.234603","340390.618696","341140.316092","340400.177404","Mapping"
"Blocked","m150","done","19","m150cave.wav","None","734.221732244","149","335040.846726","341906.617945","328090.363288","328857.189498","329624.502038","330390.407221","331140.427395","331906.837458","335790.072634","336557.196888","337323.846251","338090.173455","338857.059955","339624.234603","340390.618696","341140.316092","341149.441649","Mapping"
"Blocked","m150","done","19","m150done.wav","None","732.669064309","149","335040.846726","341906.617945","342673.45745","328857.189498","329624.502038","330390.407221","331140.427395","331906.837458","335790.072634","336557.196888","337323.846251","338090.173455","338857.059955","339624.234603","340390.618696","341140.316092","341915.421961","Mapping"
"Blocked","m150","done","19","m150knife.wav","space","430.65105984","149","335040.846726","341906.617945","342673.45745","343440.285825","329624.502038","330390.407221","331140.427395","331906.837458","335790.072634","336557.196888","337323.846251","338090.173455","338857.059955","339624.234603","340390.618696","341140.316092","342682.275379","Mapping"
"Blocked","m150","done","19","m150knife.wav","None","728.919102345","149","335040.846726","341906.617945","342673.45745","343440.285825","344206.600662","330390.407221","331140.427395","331906.837458","335790.072634","336557.196888","337323.846251","338090.173455","338857.059955","339624.234603","340390.618696","341140.316092","343449.259268","Mapping"
"Blocked","m150","done","19","m150done.wav","None","727.504326031","149","335040.846726","341906.617945","342673.45745","343440.285825","344206.600662","344974.068716","331140.427395","331906.837458","335790.072634","336557.196888","337323.846251","338090.173455","338857.059955","339624.234603","340390.618696","341140.316092","344215.354593","Mapping"
"Blocked","m150","done","19","m150lash.wav","space","432.892566081","149","335040.846726","341906.617945","342673.45745","343440.285825","344206.600662","344974.068716","345740.693036","331906.837458","335790.072634","336557.196888","337323.846251","338090.173455","338857.059955","339624.234603","340390.618696","341140.316092","344983.981736","Mapping"
"Blocked","m150","done","19","m150lash.wav","None","720.058816951","149","335040.846726","341906.617945","342673.45745","343440.285825","344206.600662","344974.068716","345740.693036","346489.91307","335790.072634","336557.196888","337323.846251","338090.173455","338857.059955","339624.234603","340390.618696","341140.316092","345750.286063","Mapping"
"Blocked","m150","done","21","m150reek.wav","None","736.153755337","149","349624.083417","341906.617945","342673.45745","343440.285825","344206.600662","344974.068716","345740.693036","346489.91307","335790.072634","336557.196888","337323.846251","338090.173455","338857.059955","339624.234603","340390.618696","341140.316092","346498.707502","Mapping"
"Blocked","m150","done","21","m150done.wav","None","720.127453562","149","349624.083417","341906.617945","342673.45745","343440.285825","344206.600662","344974.068716","345740.693036","346489.91307","350373.095687","336557.196888","337323.846251","338090.173455","338857.059955","339624.234603","340390.618696","341140.316092","349633.678608","Mapping"
"Blocked","m150","done","21","m150greet.wav","space","634.936015122","149","349624.083417","341906.617945","342673.45745","343440.285825","344206.600662","344974.068716","345740.693036","346489.91307","350373.095687","351140.156868","337323.846251","338090.173455","338857.059955","339624.234603","340390.618696","341140.316092","350381.821482","Mapping"
"Blocked","m150","done","21","m150cad.wav","None","732.278578915","149","349624.083417","341906.617945","342673.45745","343440.285825","344206.600662","344974.068716","345740.693036","346489.91307","350373.095687","351140.156868","351906.43677","338090.173455","338857.059955","339624.234603","340390.618696","341140.316092","351149.206059","Mapping"
"Blocked","m150","done","21","m150ball.wav","None","730.660365894","149","349624.083417","341906.617945","342673.45745","343440.285825","344206.600662","344974.068716","345740.693036","346489.91307","350373.095687","351140.156868","351906.43677","352673.22186","338857.059955","339624.234603","340390.618696","341140.316092","351915.356417","Mapping"
"Blocked","m150","done","21","m150tile.wav","None","728.957749438","149","349624.083417","341906.617945","342673.45745","343440.285825","344206.600662","344974.068716","345740.693036","346489.91307","350373.095687","351140.156868","351906.43677","352673.22186","353439.908324","339624.234603","340390.618696","341140.316092","352681.99434","Mapping"
"Blocked","m150","done","21","m150greet.wav","None","732.136358973","149","349624.083417","341906.617945","342673.45745","343440.285825","344206.600662","344974.068716","345740.693036","346489.91307","350373.095687","351140.156868","351906.43677","352673.22186","353439.908324","354206.68012","340390.618696","341140.316092","353443.270274","Mapping"
"Blocked","m150","done","21","m150done.wav","None","724.510911386","149","349624.083417","341906.617945","342673.45745","343440.285825","344206.600662","344974.068716","345740.693036","346489.91307","350373.095687","351140.156868","351906.43677","352673.22186","353439.908324","354206.68012","354974.069953","341140.316092","354215.57967","Mapping"
"Blocked","m150","done","21","m150jolt.wav","None","720.905642491","149","349624.083417","341906.617945","342673.45745","343440.285825","344206.600662","344974.068716","345740.693036","346489.91307","350373.095687","351140.156868","351906.43677","352673.22186","353439.908324","354206.68012","354974.069953","355739.937726","354983.678438","Mapping"
"Blocked","m150","done","21","m150done.wav","space","0.0231876038015","149","349624.083417","356489.780125","342673.45745","343440.285825","344206.600662","344974.068716","345740.693036","346489.91307","350373.095687","351140.156868","351906.43677","352673.22186","353439.908324","354206.68012","354974.069953","355739.937726","355748.741433","Mapping"
"Blocked","m150","done","21","m150cling.wav","space","478.107291274","149","349624.083417","356489.780125","357256.75072","343440.285825","344206.600662","344974.068716","345740.693036","346489.91307","350373.095687","351140.156868","351906.43677","352673.22186","353439.908324","354206.68012","354974.069953","355739.937726","356498.556007","Mapping"
"Blocked","m150","done","21","m150lash.wav","None","729.360601865","149","349624.083417","356489.780125","357256.75072","358023.548177","344206.600662","344974.068716","345740.693036","346489.91307","350373.095687","351140.156868","351906.43677","352673.22186","353439.908324","354206.68012","354974.069953","355739.937726","357265.731892","Mapping"
"Blocked","m150","done","21","m150depth.wav","None","727.075503208","149","349624.083417","356489.780125","357256.75072","358023.548177","358790.036461","344974.068716","345740.693036","346489.91307","350373.095687","351140.156868","351906.43677","352673.22186","353439.908324","354206.68012","354974.069953","355739.937726","358032.546663","Mapping"
"Blocked","m150","done","21","m150done.wav","None","724.515548442","149","349624.083417","356489.780125","357256.75072","358023.548177","358790.036461","359557.145565","345740.693036","346489.91307","350373.095687","351140.156868","351906.43677","352673.22186","353439.908324","354206.68012","354974.069953","355739.937726","358799.640617","Mapping"
"Blocked","m150","done","21","m150romp.wav","space","394.041861407","149","349624.083417","356489.780125","357256.75072","358023.548177","358790.036461","359557.145565","360306.652511","346489.91307","350373.095687","351140.156868","351906.43677","352673.22186","353439.908324","354206.68012","354974.069953","355739.937726","359566.577511","Mapping"
"Blocked","m150","done","21","m150romp.wav","None","736.017719377","149","349624.083417","356489.780125","357256.75072","358023.548177","358790.036461","359557.145565","360306.652511","361073.469137","350373.095687","351140.156868","351906.43677","352673.22186","353439.908324","354206.68012","354974.069953","355739.937726","360315.710049","Mapping"
"Blocked","m150","cave","10","m150done.wav","None","734.060962219","149","364206.774418","356489.780125","357256.75072","358023.548177","358790.036461","359557.145565","360306.652511","361073.469137","350373.095687","351140.156868","351906.43677","352673.22186","353439.908324","354206.68012","354974.069953","355739.937726","361082.461439","Mapping"
"Blocked","m150","cave","10","m150jolt.wav","None","720.118487719","149","364206.774418","356489.780125","357256.75072","358023.548177","358790.036461","359557.145565","360306.652511","361073.469137","364956.46996","351140.156868","351906.43677","352673.22186","353439.908324","354206.68012","354974.069953","355739.937726","364216.380738","Mapping"
"Blocked","m150","cave","10","m150cave.wav","None","734.969931189","149","364206.774418","356489.780125","357256.75072","358023.548177","358790.036461","359557.145565","360306.652511","361073.469137","364956.46996","365723.435298","351906.43677","352673.22186","353439.908324","354206.68012","354974.069953","355739.937726","364966.061749","Mapping"
"Blocked","m150","cave","10","m150reek.wav","space","452.087892685","149","364206.774418","356489.780125","357256.75072","358023.548177","358790.036461","359557.145565","360306.652511","361073.469137","364956.46996","365723.435298","366489.833922","352673.22186","353439.908324","354206.68012","354974.069953","355739.937726","365732.417398","Mapping"
"Blocked","m150","cave","10","m150knife.wav","None","729.530956596","149","364206.774418","356489.780125","357256.75072","358023.548177","358790.036461","359557.145565","360306.652511","361073.469137","364956.46996","365723.435298","366489.833922","367256.52626","353439.908324","354206.68012","354974.069953","355739.937726","366499.037698","Mapping"
"Blocked","m150","cave","10","m150knife.wav","None","727.546992246","149","364206.774418","356489.780125","357256.75072","358023.548177","358790.036461","359557.145565","360306.652511","361073.469137","364956.46996","365723.435298","366489.833922","367256.52626","368023.321862","354206.68012","354974.069953","355739.937726","367265.566793","Mapping"
"Blocked","m150","cave","10","m150cave.wav","None","725.379997399","149","364206.774418","356489.780125","357256.75072","358023.548177","358790.036461","359557.145565","360306.652511","361073.469137","364956.46996","365723.435298","366489.833922","367256.52626","368023.321862","368790.401286","354974.069953","355739.937726","368032.329314","Mapping"
"Blocked","m150","cave","10","m150gnash.wav","space","496.454246808","149","364206.774418","356489.780125","357256.75072","358023.548177","358790.036461","359557.145565","360306.652511","361073.469137","364956.46996","365723.435298","366489.833922","367256.52626","368023.321862","368790.401286","369539.865565","355739.937726","368800.02461","Mapping"
"Blocked","m150","cave","10","m150greet.wav","None","736.488590017","149","364206.774418","356489.780125","357256.75072","358023.548177","358790.036461","359557.145565","360306.652511","361073.469137","364956.46996","365723.435298","366489.833922","367256.52626","368023.321862","368790.401286","369539.865565","370306.102801","369548.868071","Mapping"
"Blocked","m150","cave","10","m150cave.wav","None","734.972713981","149","364206.774418","371073.241276","357256.75072","358023.548177","358790.036461","359557.145565","360306.652511","361073.469137","364956.46996","365723.435298","366489.833922","367256.52626","368023.321862","368790.401286","369539.865565","370306.102801","370314.926604","Mapping"
"Blocked","m150","cave","10","m150romp.wav","space","502.093257383","149","364206.774418","371073.241276","371839.815201","358023.548177","358790.036461","359557.145565","360306.652511","361073.469137","364956.46996","365723.435298","366489.833922","367256.52626","368023.321862","368790.401286","369539.865565","370306.102801","371082.300669","Mapping"
"Blocked","m150","cave","10","m150gnash.wav","None","728.177087381","149","364206.774418","371073.241276","371839.815201","372606.187854","358790.036461","359557.145565","360306.652511","361073.469137","364956.46996","365723.435298","366489.833922","367256.52626","368023.321862","368790.401286","369539.865565","370306.102801","371849.262916","Mapping"
"Blocked","m150","cave","10","m150cave.wav","None","727.10765712","149","364206.774418","371073.241276","371839.815201","372606.187854","373373.580161","359557.145565","360306.652511","361073.469137","364956.46996","365723.435298","366489.833922","367256.52626","368023.321862","368790.401286","369539.865565","370306.102801","372614.964972","Mapping"
"Blocked","m150","cave","10","m150tile.wav","space","521.025477909","149","364206.774418","371073.241276","371839.815201","372606.187854","373373.580161","374139.60283","360306.652511","361073.469137","364956.46996","365723.435298","366489.833922","367256.52626","368023.321862","368790.401286","369539.865565","370306.102801","373383.33643","Mapping"
"Blocked","m150","cave","10","m150bluff.wav","None","724.09105394","149","364206.774418","371073.241276","371839.815201","372606.187854","373373.580161","374139.60283","374906.734813","361073.469137","364956.46996","365723.435298","366489.833922","367256.52626","368023.321862","368790.401286","369539.865565","370306.102801","374148.225361","Mapping"
"Blocked","m150","cave","10","m150romp.wav","None","720.631715376","149","364206.774418","371073.241276","371839.815201","372606.187854","373373.580161","374139.60283","374906.734813","375655.814481","364956.46996","365723.435298","366489.833922","367256.52626","368023.321862","368790.401286","369539.865565","370306.102801","374916.214372","Mapping"
"Blocked","m150","cave","9","m150tile.wav","None","736.850631889","149","378789.957931","371073.241276","371839.815201","372606.187854","373373.580161","374139.60283","374906.734813","375655.814481","364956.46996","365723.435298","366489.833922","367256.52626","368023.321862","368790.401286","369539.865565","370306.102801","375664.714341","Mapping"
"Blocked","m150","cave","9","m150greet.wav","None","719.302579761","149","378789.957931","371073.241276","371839.815201","372606.187854","373373.580161","374139.60283","374906.734813","375655.814481","379539.358521","365723.435298","366489.833922","367256.52626","368023.321862","368790.401286","369539.865565","370306.102801","378799.926293","Mapping"
"Blocked","m150","cave","9","m150cave.wav","None","735.746883787","149","378789.957931","371073.241276","371839.815201","372606.187854","373373.580161","374139.60283","374906.734813","375655.814481","379539.358521","380305.963363","366489.833922","367256.52626","368023.321862","368790.401286","369539.865565","370306.102801","379548.092973","Mapping"
"Blocked","m150","cave","9","m150depth.wav","space","469.33542937","149","378789.957931","371073.241276","371839.815201","372606.187854","373373.580161","374139.60283","374906.734813","375655.814481","379539.358521","380305.963363","381073.117298","367256.52626","368023.321862","368790.401286","369539.865565","370306.102801","380314.942681","Mapping"
"Blocked","m150","cave","9","m150cave.wav","None","729.312988929","149","378789.957931","371073.241276","371839.815201","372606.187854","373373.580161","374139.60283","374906.734813","375655.814481","379539.358521","380305.963363","381073.117298","381839.342785","368023.321862","368790.401286","369539.865565","370306.102801","381082.138353","Mapping"
"Blocked","m150","cave","9","m150lash.wav","space","576.101591811","149","378789.957931","371073.241276","371839.815201","372606.187854","373373.580161","374139.60283","374906.734813","375655.814481","379539.358521","380305.963363","381073.117298","381839.342785","382606.621315","368790.401286","369539.865565","370306.102801","381848.121758","Mapping"
"Blocked","m150","cave","9","m150done.wav","None","722.655871883","149","378789.957931","371073.241276","371839.815201","372606.187854","373373.580161","374139.60283","374906.734813","375655.814481","379539.358521","380305.963363","381073.117298","381839.342785","382606.621315","383373.375797","369539.865565","370306.102801","382616.654913","Mapping"
"Blocked","m150","cave","9","m150done.wav","None","721.168130636","149","378789.957931","371073.241276","371839.815201","372606.187854","373373.580161","374139.60283","374906.734813","375655.814481","379539.358521","380305.963363","381073.117298","381839.342785","382606.621315","383373.375797","384139.929935","370306.102801","383382.855975","Mapping"
"Blocked","m150","cave","9","m150lash.wav","None","719.527966809","149","378789.957931","371073.241276","371839.815201","372606.187854","373373.580161","374139.60283","374906.734813","375655.814481","379539.358521","380305.963363","381073.117298","381839.342785","382606.621315","383373.375797","384139.929935","384889.63197","384149.212242","Mapping"
"Blocked","m150","cave","9","m150ball.wav","None","734.206582885","149","378789.957931","385655.869205","371839.815201","372606.187854","373373.580161","374139.60283","374906.734813","375655.814481","379539.358521","380305.963363","381073.117298","381839.342785","382606.621315","383373.375797","384139.929935","384889.63197","384899.11493","Mapping"
"Blocked","m150","cave","9","m150reek.wav","None","733.265150338","149","378789.957931","385655.869205","386422.632344","372606.187854","373373.580161","374139.60283","374906.734813","375655.814481","379539.358521","380305.963363","381073.117298","381839.342785","382606.621315","383373.375797","384139.929935","384889.63197","385664.761026","Mapping"
"Blocked","m150","cave","9","m150cave.wav","None","731.206984725","149","378789.957931","385655.869205","386422.632344","387189.567383","373373.580161","374139.60283","374906.734813","375655.814481","379539.358521","380305.963363","381073.117298","381839.342785","382606.621315","383373.375797","384139.929935","384889.63197","386431.469751","Mapping"
"Blocked","m150","cave","9","m150depth.wav","space","465.145205148","149","378789.957931","385655.869205","386422.632344","387189.567383","387955.84883","374139.60283","374906.734813","375655.814481","379539.358521","380305.963363","381073.117298","381839.342785","382606.621315","383373.375797","384139.929935","384889.63197","387198.982944","Mapping"
