"Condition","Talker","Target","Trial","current_stimulus","response_response","response_time_response","subject_nr","time_Audio1","time_Audio10","time_Audio11","time_Audio12","time_Audio13","time_Audio14","time_Audio15","time_Audio16","time_Audio2","time_Audio3","time_Audio4","time_Audio5","time_Audio6","time_Audio7","time_Audio8","time_Audio9","time_response","title"
"Blocked","m160","done","22","m160dime.wav","NA","NA","174","124420.577951","NA","NA","NA","NA","NA","NA","NA","NA","NA","NA","NA","NA","NA","NA","NA","NA","Mapping"
"Blocked","m160","done","22","m160greet.wav","None","716.636630474","174","124420.577951","NA","NA","NA","NA","NA","NA","NA","125187.582762","NA","NA","NA","NA","NA","NA","NA","124435.972042","Mapping"
"Blocked","m160","done","22","m160done.wav","None","721.075443551","174","124420.577951","NA","NA","NA","NA","NA","NA","NA","125187.582762","125953.755585","NA","NA","NA","NA","NA","NA","125197.686264","Mapping"
"Blocked","m160","done","22","m160romp.wav","space","526.25275054","174","124420.577951","NA","NA","NA","NA","NA","NA","NA","125187.582762","125953.755585","126720.126897","NA","NA","NA","NA","NA","125963.762006","Mapping"
"Blocked","m160","done","22","m160done.wav","None","719.662517775","174","124420.577951","NA","NA","NA","NA","NA","NA","NA","125187.582762","125953.755585","126720.126897","127487.008038","NA","NA","NA","NA","126730.911819","Mapping"
"Blocked","m160","done","22","m160knife.wav","space","401.159959612","174","124420.577951","NA","NA","NA","NA","NA","NA","NA","125187.582762","125953.755585","126720.126897","127487.008038","128253.818687","NA","NA","NA","127496.834211","Mapping"
"Blocked","m160","done","22","m160cling.wav","None","719.154544873","174","124420.577951","NA","NA","NA","NA","NA","NA","NA","125187.582762","125953.755585","126720.126897","127487.008038","128253.818687","129020.701374","NA","NA","128263.997319","Mapping"
"Blocked","m160","done","22","m160romp.wav","None","718.705314677","174","124420.577951","NA","NA","NA","NA","NA","NA","NA","125187.582762","125953.755585","126720.126897","127487.008038","128253.818687","129020.701374","129769.493044","NA","129030.464784","Mapping"
"Blocked","m160","done","22","m160bluff.wav","None","736.15077557","174","124420.577951","NA","NA","NA","NA","NA","NA","NA","125187.582762","125953.755585","126720.126897","127487.008038","128253.818687","129020.701374","129769.493044","130536.242167","129778.863803","Mapping"
"Blocked","m160","done","22","m160done.wav","None","734.626238002","174","124420.577951","131302.755082","NA","NA","NA","NA","NA","NA","125187.582762","125953.755585","126720.126897","127487.008038","128253.818687","129020.701374","129769.493044","130536.242167","130546.200667","Mapping"
"Blocked","m160","done","22","m160depth.wav","space","401.656184113","174","124420.577951","131302.755082","132069.572842","NA","NA","NA","NA","NA","125187.582762","125953.755585","126720.126897","127487.008038","128253.818687","129020.701374","129769.493044","130536.242167","131312.280738","Mapping"
"Blocked","m160","done","22","m160ball.wav","None","733.989957254","174","124420.577951","131302.755082","132069.572842","132836.045873","NA","NA","NA","NA","125187.582762","125953.755585","126720.126897","127487.008038","128253.818687","129020.701374","129769.493044","130536.242167","132079.339344","Mapping"
"Blocked","m160","done","22","m160done.wav","None","734.747434035","174","124420.577951","131302.755082","132069.572842","132836.045873","133602.75604","NA","NA","NA","125187.582762","125953.755585","126720.126897","127487.008038","128253.818687","129020.701374","129769.493044","130536.242167","132845.404265","Mapping"
"Blocked","m160","done","22","m160cave.wav","space","437.959722709","174","124420.577951","131302.755082","132069.572842","132836.045873","133602.75604","134369.684485","NA","NA","125187.582762","125953.755585","126720.126897","127487.008038","128253.818687","129020.701374","129769.493044","130536.242167","133611.955208","Mapping"
"Blocked","m160","done","22","m160bluff.wav","None","732.851578156","174","124420.577951","131302.755082","132069.572842","132836.045873","133602.75604","134369.684485","135136.403927","NA","125187.582762","125953.755585","126720.126897","127487.008038","128253.818687","129020.701374","129769.493044","130536.242167","134379.671119","Mapping"
"Blocked","m160","done","22","m160priest.wav","None","732.218698831","174","124420.577951","131302.755082","132069.572842","132836.045873","133602.75604","134369.684485","135136.403927","135902.79008","125187.582762","125953.755585","126720.126897","127487.008038","128253.818687","129020.701374","129769.493044","130536.242167","135146.129619","Mapping"
"Blocked","m160","cave","11","m160greet.wav","None","732.964426745","174","139053.225877","131302.755082","132069.572842","132836.045873","133602.75604","134369.684485","135136.403927","135902.79008","125187.582762","125953.755585","126720.126897","127487.008038","128253.818687","129020.701374","129769.493044","130536.242167","135911.787048","Mapping"
"Blocked","m160","cave","11","m160tile.wav","None","721.609387547","174","139053.225877","131302.755082","132069.572842","132836.045873","133602.75604","134369.684485","135136.403927","135902.79008","139820.053221","125953.755585","126720.126897","127487.008038","128253.818687","129020.701374","129769.493044","130536.242167","139063.667306","Mapping"
"Blocked","m160","cave","11","m160knife.wav","None","720.156578114","174","139053.225877","131302.755082","132069.572842","132836.045873","133602.75604","134369.684485","135136.403927","135902.79008","139820.053221","140586.846866","126720.126897","127487.008038","128253.818687","129020.701374","129769.493044","130536.242167","139830.791149","Mapping"
"Blocked","m160","cave","11","m160cave.wav","None","720.993203344","174","139053.225877","131302.755082","132069.572842","132836.045873","133602.75604","134369.684485","135136.403927","135902.79008","139820.053221","140586.846866","141353.957414","127487.008038","128253.818687","129020.701374","129769.493044","130536.242167","140596.756207","Mapping"
"Blocked","m160","cave","11","m160jolt.wav","space","405.587333487","174","139053.225877","131302.755082","132069.572842","132836.045873","133602.75604","134369.684485","135136.403927","135902.79008","139820.053221","140586.846866","141353.957414","142119.966683","128253.818687","129020.701374","129769.493044","130536.242167","141364.200044","Mapping"
"Blocked","m160","cave","11","m160cave.wav","None","720.737825613","174","139053.225877","131302.755082","132069.572842","132836.045873","133602.75604","134369.684485","135136.403927","135902.79008","139820.053221","140586.846866","141353.957414","142119.966683","142886.471559","129020.701374","129769.493044","130536.242167","142129.695776","Mapping"
"Blocked","m160","cave","11","m160ball.wav","space","488.491455792","174","139053.225877","131302.755082","132069.572842","132836.045873","133602.75604","134369.684485","135136.403927","135902.79008","139820.053221","140586.846866","141353.957414","142119.966683","142886.471559","143653.742259","129769.493044","130536.242167","142897.284616","Mapping"
"Blocked","m160","cave","11","m160cad.wav","None","718.292257981","174","139053.225877","131302.755082","132069.572842","132836.045873","133602.75604","134369.684485","135136.403927","135902.79008","139820.053221","140586.846866","141353.957414","142119.966683","142886.471559","143653.742259","144420.028549","130536.242167","143664.109796","Mapping"
"Blocked","m160","cave","11","m160lash.wav","None","718.222693773","174","139053.225877","131302.755082","132069.572842","132836.045873","133602.75604","134369.684485","135136.403927","135902.79008","139820.053221","140586.846866","141353.957414","142119.966683","142886.471559","143653.742259","144420.028549","145169.686216","144430.355275","Mapping"
"Blocked","m160","cave","11","m160cave.wav","None","735.986913322","174","139053.225877","145935.795349","132069.572842","132836.045873","133602.75604","134369.684485","135136.403927","135902.79008","139820.053221","140586.846866","141353.957414","142119.966683","142886.471559","143653.742259","144420.028549","145169.686216","145178.850447","Mapping"
"Blocked","m160","cave","11","m160tile.wav","space","441.066613654","174","139053.225877","145935.795349","146702.830458","132836.045873","133602.75604","134369.684485","135136.403927","135902.79008","139820.053221","140586.846866","141353.957414","142119.966683","142886.471559","143653.742259","144420.028549","145169.686216","145944.685652","Mapping"
"Blocked","m160","cave","11","m160dime.wav","None","734.022729797","174","139053.225877","145935.795349","146702.830458","147469.517438","133602.75604","134369.684485","135136.403927","135902.79008","139820.053221","140586.846866","141353.957414","142119.966683","142886.471559","143653.742259","144420.028549","145169.686216","146712.521522","Mapping"
"Blocked","m160","cave","11","m160jolt.wav","None","734.065086814","174","139053.225877","145935.795349","146702.830458","147469.517438","148236.145674","134369.684485","135136.403927","135902.79008","139820.053221","140586.846866","141353.957414","142119.966683","142886.471559","143653.742259","144420.028549","145169.686216","147479.040311","Mapping"
"Blocked","m160","cave","11","m160ball.wav","None","733.123033075","174","139053.225877","145935.795349","146702.830458","147469.517438","148236.145674","149002.933753","135136.403927","135902.79008","139820.053221","140586.846866","141353.957414","142119.966683","142886.471559","143653.742259","144420.028549","145169.686216","148246.024407","Mapping"
"Blocked","m160","cave","11","m160cave.wav","None","732.763772598","174","139053.225877","145935.795349","146702.830458","147469.517438","148236.145674","149002.933753","149769.545294","135902.79008","139820.053221","140586.846866","141353.957414","142119.966683","142886.471559","143653.742259","144420.028549","145169.686216","149012.471467","Mapping"
"Blocked","m160","cave","11","m160tile.wav","space","574.97086795","174","139053.225877","145935.795349","146702.830458","147469.517438","148236.145674","149002.933753","149769.545294","150535.901767","139820.053221","140586.846866","141353.957414","142119.966683","142886.471559","143653.742259","144420.028549","145169.686216","149778.699323","Mapping"
"Blocked","m160","tile","13","m160bluff.wav","None","732.417188352","174","153669.738621","145935.795349","146702.830458","147469.517438","148236.145674","149002.933753","149769.545294","150535.901767","139820.053221","140586.846866","141353.957414","142119.966683","142886.471559","143653.742259","144420.028549","145169.686216","150545.464214","Mapping"
"Blocked","m160","tile","13","m160tile.wav","None","722.229590872","174","153669.738621","145935.795349","146702.830458","147469.517438","148236.145674","149002.933753","149769.545294","150535.901767","154436.484034","140586.846866","141353.957414","142119.966683","142886.471559","143653.742259","144420.028549","145169.686216","153680.005367","Mapping"
"Blocked","m160","tile","13","m160park.wav","space","522.74238714","174","153669.738621","145935.795349","146702.830458","147469.517438","148236.145674","149002.933753","149769.545294","150535.901767","154436.484034","155202.912235","141353.957414","142119.966683","142886.471559","143653.742259","144420.028549","145169.686216","154446.863938","Mapping"
"Blocked","m160","tile","13","m160jolt.wav","None","721.62144538","174","153669.738621","145935.795349","146702.830458","147469.517438","148236.145674","149002.933753","149769.545294","150535.901767","154436.484034","155202.912235","155969.731232","142119.966683","142886.471559","143653.742259","144420.028549","145169.686216","155212.875681","Mapping"
"Blocked","m160","tile","13","m160knife.wav","None","721.561156446","174","153669.738621","145935.795349","146702.830458","147469.517438","148236.145674","149002.933753","149769.545294","150535.901767","154436.484034","155202.912235","155969.731232","156736.506944","142886.471559","143653.742259","144420.028549","145169.686216","155979.268327","Mapping"
"Blocked","m160","tile","13","m160cad.wav","None","720.725149382","174","153669.738621","145935.795349","146702.830458","147469.517438","148236.145674","149002.933753","149769.545294","150535.901767","154436.484034","155202.912235","155969.731232","156736.506944","157503.083548","143653.742259","144420.028549","145169.686216","156746.220887","Mapping"
"Blocked","m160","tile","13","m160tile.wav","None","719.797008671","174","153669.738621","145935.795349","146702.830458","147469.517438","148236.145674","149002.933753","149769.545294","150535.901767","154436.484034","155202.912235","155969.731232","156736.506944","157503.083548","158269.728789","144420.028549","145169.686216","157513.371009","Mapping"
"Blocked","m160","tile","13","m160park.wav","space","489.233164582","174","153669.738621","145935.795349","146702.830458","147469.517438","148236.145674","149002.933753","149769.545294","150535.901767","154436.484034","155202.912235","155969.731232","156736.506944","157503.083548","158269.728789","159036.396291","145169.686216","158280.312748","Mapping"
"Blocked","m160","tile","13","m160tile.wav","None","718.594630249","174","153669.738621","145935.795349","146702.830458","147469.517438","148236.145674","149002.933753","149769.545294","150535.901767","154436.484034","155202.912235","155969.731232","156736.506944","157503.083548","158269.728789","159036.396291","159786.033552","159046.491136","Mapping"
"Blocked","m160","tile","13","m160cling.wav","space","477.617182536","174","153669.738621","160552.424652","146702.830458","147469.517438","148236.145674","149002.933753","149769.545294","150535.901767","154436.484034","155202.912235","155969.731232","156736.506944","157503.083548","158269.728789","159036.396291","159786.033552","159795.924652","Mapping"
"Blocked","m160","tile","13","m160romp.wav","None","734.756709309","174","153669.738621","160552.424652","161319.269619","147469.517438","148236.145674","149002.933753","149769.545294","150535.901767","154436.484034","155202.912235","155969.731232","156736.506944","157503.083548","158269.728789","159036.396291","159786.033552","160562.31637","Mapping"
"Blocked","m160","tile","13","m160tile.wav","None","734.335614135","174","153669.738621","160552.424652","161319.269619","162085.792427","148236.145674","149002.933753","149769.545294","150535.901767","154436.484034","155202.912235","155969.731232","156736.506944","157503.083548","158269.728789","159036.396291","159786.033552","161328.782599","Mapping"
"Blocked","m160","tile","13","m160cave.wav","space","538.044961868","174","153669.738621","160552.424652","161319.269619","162085.792427","162852.560101","149002.933753","149769.545294","150535.901767","154436.484034","155202.912235","155969.731232","156736.506944","157503.083548","158269.728789","159036.396291","159786.033552","162095.427221","Mapping"
"Blocked","m160","tile","13","m160greet.wav","None","734.465158079","174","153669.738621","160552.424652","161319.269619","162085.792427","162852.560101","163619.352818","149769.545294","150535.901767","154436.484034","155202.912235","155969.731232","156736.506944","157503.083548","158269.728789","159036.396291","159786.033552","162861.892214","Mapping"
"Blocked","m160","tile","13","m160cad.wav","None","732.793453382","174","153669.738621","160552.424652","161319.269619","162085.792427","162852.560101","163619.352818","164385.923548","150535.901767","154436.484034","155202.912235","155969.731232","156736.506944","157503.083548","158269.728789","159036.396291","159786.033552","163629.735505","Mapping"
"Blocked","m160","tile","13","m160cad.wav","None","732.877239585","174","153669.738621","160552.424652","161319.269619","162085.792427","162852.560101","163619.352818","164385.923548","165152.606199","154436.484034","155202.912235","155969.731232","156736.506944","157503.083548","158269.728789","159036.396291","159786.033552","164395.899052","Mapping"
"Blocked","m160","cave","7","m160dime.wav","None","732.713686535","174","168286.267133","160552.424652","161319.269619","162085.792427","162852.560101","163619.352818","164385.923548","165152.606199","154436.484034","155202.912235","155969.731232","156736.506944","157503.083548","158269.728789","159036.396291","159786.033552","165162.219351","Mapping"
"Blocked","m160","cave","7","m160depth.wav","None","721.543533495","174","168286.267133","160552.424652","161319.269619","162085.792427","162852.560101","163619.352818","164385.923548","165152.606199","169053.235461","155202.912235","155969.731232","156736.506944","157503.083548","158269.728789","159036.396291","159786.033552","168296.374345","Mapping"
"Blocked","m160","cave","7","m160tile.wav","None","720.880354987","174","168286.267133","160552.424652","161319.269619","162085.792427","162852.560101","163619.352818","164385.923548","165152.606199","169053.235461","169819.575856","155969.731232","156736.506944","157503.083548","158269.728789","159036.396291","159786.033552","169063.132744","Mapping"
"Blocked","m160","cave","7","m160lash.wav","None","720.15317739","174","168286.267133","160552.424652","161319.269619","162085.792427","162852.560101","163619.352818","164385.923548","165152.606199","169053.235461","169819.575856","170586.204402","156736.506944","157503.083548","158269.728789","159036.396291","159786.033552","169829.948958","Mapping"
"Blocked","m160","cave","7","m160cave.wav","None","719.814940821","174","168286.267133","160552.424652","161319.269619","162085.792427","162852.560101","163619.352818","164385.923548","165152.606199","169053.235461","169819.575856","170586.204402","171352.909932","157503.083548","158269.728789","159036.396291","159786.033552","170596.341913","Mapping"
"Blocked","m160","cave","7","m160bluff.wav","space","398.217549082","174","168286.267133","160552.424652","161319.269619","162085.792427","162852.560101","163619.352818","164385.923548","165152.606199","169053.235461","169819.575856","170586.204402","171352.909932","172102.884811","158269.728789","159036.396291","159786.033552","171371.142241","Mapping"
"Blocked","m160","cave","7","m160cave.wav","None","735.348468646","174","168286.267133","160552.424652","161319.269619","162085.792427","162852.560101","163619.352818","164385.923548","165152.606199","169053.235461","169819.575856","170586.204402","171352.909932","172102.884811","172868.978485","159036.396291","159786.033552","172112.611121","Mapping"
"Blocked","m160","cave","7","m160lash.wav","space","346.957401838","174","168286.267133","160552.424652","161319.269619","162085.792427","162852.560101","163619.352818","164385.923548","165152.606199","169053.235461","169819.575856","170586.204402","171352.909932","172102.884811","172868.978485","173635.711532","159786.033552","172878.409843","Mapping"
"Blocked","m160","cave","7","m160cave.wav","None","733.960894868","174","168286.267133","160552.424652","161319.269619","162085.792427","162852.560101","163619.352818","164385.923548","165152.606199","169053.235461","169819.575856","170586.204402","171352.909932","172102.884811","172868.978485","173635.711532","174402.484771","173645.470305","Mapping"
"Blocked","m160","cave","7","m160bluff.wav","space","493.503787089","174","168286.267133","175168.887001","161319.269619","162085.792427","162852.560101","163619.352818","164385.923548","165152.606199","169053.235461","169819.575856","170586.204402","171352.909932","172102.884811","172868.978485","173635.711532","174402.484771","174411.801116","Mapping"
"Blocked","m160","cave","7","m160bluff.wav","None","731.98063462","174","168286.267133","175168.887001","175935.740316","162085.792427","162852.560101","163619.352818","164385.923548","165152.606199","169053.235461","169819.575856","170586.204402","171352.909932","172102.884811","172868.978485","173635.711532","174402.484771","175179.252683","Mapping"
"Blocked","m160","cave","7","m160lash.wav","None","731.883244589","174","168286.267133","175168.887001","175935.740316","176702.438116","162852.560101","163619.352818","164385.923548","165152.606199","169053.235461","169819.575856","170586.204402","171352.909932","172102.884811","172868.978485","173635.711532","174402.484771","175945.413757","Mapping"
"Blocked","m160","cave","7","m160cling.wav","None","731.790183345","174","168286.267133","175168.887001","175935.740316","176702.438116","177469.101598","163619.352818","164385.923548","165152.606199","169053.235461","169819.575856","170586.204402","171352.909932","172102.884811","172868.978485","173635.711532","174402.484771","176712.0658","Mapping"
"Blocked","m160","cave","7","m160cave.wav","None","731.195641449","174","168286.267133","175168.887001","175935.740316","176702.438116","177469.101598","178235.708502","164385.923548","165152.606199","169053.235461","169819.575856","170586.204402","171352.909932","172102.884811","172868.978485","173635.711532","174402.484771","177478.981568","Mapping"
"Blocked","m160","cave","7","m160lash.wav","space","555.647483328","174","168286.267133","175168.887001","175935.740316","176702.438116","177469.101598","178235.708502","179002.386206","165152.606199","169053.235461","169819.575856","170586.204402","171352.909932","172102.884811","172868.978485","173635.711532","174402.484771","178245.599292","Mapping"
"Blocked","m160","cave","7","m160cling.wav","None","730.252041947","174","168286.267133","175168.887001","175935.740316","176702.438116","177469.101598","178235.708502","179002.386206","179769.056799","169053.235461","169819.575856","170586.204402","171352.909932","172102.884811","172868.978485","173635.711532","174402.484771","179012.135395","Mapping"
"Blocked","m160","cave","8","m160romp.wav","None","730.406010523","174","182901.716009","175168.887001","175935.740316","176702.438116","177469.101598","178235.708502","179002.386206","179769.056799","169053.235461","169819.575856","170586.204402","171352.909932","172102.884811","172868.978485","173635.711532","174402.484771","179778.221958","Mapping"
"Blocked","m160","cave","8","m160tile.wav","None","727.148242528","174","182901.716009","175168.887001","175935.740316","176702.438116","177469.101598","178235.708502","179002.386206","179769.056799","183668.996294","169819.575856","170586.204402","171352.909932","172102.884811","172868.978485","173635.711532","174402.484771","182910.712359","Mapping"
"Blocked","m160","cave","8","m160cling.wav","None","725.393988425","174","182901.716009","175168.887001","175935.740316","176702.438116","177469.101598","178235.708502","179002.386206","179769.056799","183668.996294","184435.620202","170586.204402","171352.909932","172102.884811","172868.978485","173635.711532","174402.484771","183678.683648","Mapping"
"Blocked","m160","cave","8","m160cave.wav","None","725.052350899","174","182901.716009","175168.887001","175935.740316","176702.438116","177469.101598","178235.708502","179002.386206","179769.056799","183668.996294","184435.620202","185202.01563","171352.909932","172102.884811","172868.978485","173635.711532","174402.484771","184445.636517","Mapping"
"Blocked","m160","cave","8","m160ball.wav","space","373.623054242","174","182901.716009","175168.887001","175935.740316","176702.438116","177469.101598","178235.708502","179002.386206","179769.056799","183668.996294","184435.620202","185202.01563","185969.396396","172102.884811","172868.978485","173635.711532","174402.484771","185211.551179","Mapping"
"Blocked","m160","cave","8","m160tile.wav","None","723.264706088","174","182901.716009","175168.887001","175935.740316","176702.438116","177469.101598","178235.708502","179002.386206","179769.056799","183668.996294","184435.620202","185202.01563","185969.396396","186736.012575","172868.978485","173635.711532","174402.484771","185979.359224","Mapping"
"Blocked","m160","cave","8","m160cave.wav","None","722.662743879","174","182901.716009","175168.887001","175935.740316","176702.438116","177469.101598","178235.708502","179002.386206","179769.056799","183668.996294","184435.620202","185202.01563","185969.396396","186736.012575","187502.413259","173635.711532","174402.484771","186746.339919","Mapping"
"Blocked","m160","cave","8","m160depth.wav","space","448.838942917","174","182901.716009","175168.887001","175935.740316","176702.438116","177469.101598","178235.708502","179002.386206","179769.056799","183668.996294","184435.620202","185202.01563","185969.396396","186736.012575","187502.413259","188269.281723","174402.484771","187512.248398","Mapping"
"Blocked","m160","cave","8","m160romp.wav","None","721.231267555","174","182901.716009","175168.887001","175935.740316","176702.438116","177469.101598","178235.708502","179002.386206","179769.056799","183668.996294","184435.620202","185202.01563","185969.396396","186736.012575","187502.413259","188269.281723","189035.873786","188279.509204","Mapping"
"Blocked","m160","cave","8","m160jolt.wav","None","720.129989088","174","182901.716009","189802.635586","175935.740316","176702.438116","177469.101598","178235.708502","179002.386206","179769.056799","183668.996294","184435.620202","185202.01563","185969.396396","186736.012575","187502.413259","188269.281723","189035.873786","189046.745896","Mapping"
"Blocked","m160","cave","8","m160greet.wav","None","720.238200156","174","182901.716009","189802.635586","190568.719985","176702.438116","177469.101598","178235.708502","179002.386206","179769.056799","183668.996294","184435.620202","185202.01563","185969.396396","186736.012575","187502.413259","188269.281723","189035.873786","189812.826584","Mapping"
"Blocked","m160","cave","8","m160cave.wav","None","721.31659952","174","182901.716009","189802.635586","190568.719985","191335.729742","177469.101598","178235.708502","179002.386206","179769.056799","183668.996294","184435.620202","185202.01563","185969.396396","186736.012575","187502.413259","188269.281723","189035.873786","190578.030455","Mapping"
"Blocked","m160","cave","8","m160reek.wav","space","407.357046381","174","182901.716009","189802.635586","190568.719985","191335.729742","192102.710128","178235.708502","179002.386206","179769.056799","183668.996294","184435.620202","185202.01563","185969.396396","186736.012575","187502.413259","188269.281723","189035.873786","191345.723487","Mapping"
"Blocked","m160","cave","8","m160knife.wav","None","718.379135942","174","182901.716009","189802.635586","190568.719985","191335.729742","192102.710128","192852.434885","179002.386206","179769.056799","183668.996294","184435.620202","185202.01563","185969.396396","186736.012575","187502.413259","188269.281723","189035.873786","192112.970072","Mapping"
"Blocked","m160","cave","8","m160cave.wav","None","735.394535586","174","182901.716009","189802.635586","190568.719985","191335.729742","192102.710128","192852.434885","193618.876071","179769.056799","183668.996294","184435.620202","185202.01563","185969.396396","186736.012575","187502.413259","188269.281723","189035.873786","192862.294449","Mapping"
"Blocked","m160","cave","8","m160park.wav","space","396.618191153","174","182901.716009","189802.635586","190568.719985","191335.729742","192102.710128","192852.434885","193618.876071","194385.325296","183668.996294","184435.620202","185202.01563","185969.396396","186736.012575","187502.413259","188269.281723","189035.873786","193628.442229","Mapping"
"Blocked","m160","ball","1","m160park.wav","None","734.400849789","174","197519.225531","189802.635586","190568.719985","191335.729742","192102.710128","192852.434885","193618.876071","194385.325296","183668.996294","184435.620202","185202.01563","185969.396396","186736.012575","187502.413259","188269.281723","189035.873786","194395.242675","Mapping"
"Blocked","m160","ball","1","m160done.wav","None","721.936802845","174","197519.225531","189802.635586","190568.719985","191335.729742","192102.710128","192852.434885","193618.876071","194385.325296","198285.821304","184435.620202","185202.01563","185969.396396","186736.012575","187502.413259","188269.281723","189035.873786","197529.59616","Mapping"
"Blocked","m160","ball","1","m160jolt.wav","None","721.638449933","174","197519.225531","189802.635586","190568.719985","191335.729742","192102.710128","192852.434885","193618.876071","194385.325296","198285.821304","199052.294953","185202.01563","185969.396396","186736.012575","187502.413259","188269.281723","189035.873786","198296.394751","Mapping"
"Blocked","m160","ball","1","m160tile.wav","None","722.36841009","174","197519.225531","189802.635586","190568.719985","191335.729742","192102.710128","192852.434885","193618.876071","194385.325296","198285.821304","199052.294953","199819.241948","185969.396396","186736.012575","187502.413259","188269.281723","189035.873786","199061.934694","Mapping"
"Blocked","m160","ball","1","m160depth.wav","None","721.234050114","174","197519.225531","189802.635586","190568.719985","191335.729742","192102.710128","192852.434885","193618.876071","194385.325296","198285.821304","199052.294953","199819.241948","200585.872349","186736.012575","187502.413259","188269.281723","189035.873786","199829.491071","Mapping"
"Blocked","m160","ball","1","m160ball.wav","None","721.976686502","174","197519.225531","189802.635586","190568.719985","191335.729742","192102.710128","192852.434885","193618.876071","194385.325296","198285.821304","199052.294953","199819.241948","200585.872349","201352.525628","187502.413259","188269.281723","189035.873786","200595.787873","Mapping"
"Blocked","m160","ball","1","m160greet.wav","space","405.887541594","174","197519.225531","189802.635586","190568.719985","191335.729742","192102.710128","192852.434885","193618.876071","194385.325296","198285.821304","199052.294953","199819.241948","200585.872349","201352.525628","202119.057402","188269.281723","189035.873786","201362.988391","Mapping"
"Blocked","m160","ball","1","m160ball.wav","None","720.978363184","174","197519.225531","189802.635586","190568.719985","191335.729742","192102.710128","192852.434885","193618.876071","194385.325296","198285.821304","199052.294953","199819.241948","200585.872349","201352.525628","202119.057402","202885.588867","189035.873786","202128.946337","Mapping"
"Blocked","m160","ball","1","m160romp.wav","space","424.639881589","174","197519.225531","189802.635586","190568.719985","191335.729742","192102.710128","192852.434885","193618.876071","194385.325296","198285.821304","199052.294953","199819.241948","200585.872349","201352.525628","202119.057402","202885.588867","203652.181857","202896.284129","Mapping"
"Blocked","m160","ball","1","m160ball.wav","None","719.961798517","174","197519.225531","204419.040428","190568.719985","191335.729742","192102.710128","192852.434885","193618.876071","194385.325296","198285.821304","199052.294953","199819.241948","200585.872349","201352.525628","202119.057402","202885.588867","203652.181857","203661.974021","Mapping"
"Blocked","m160","ball","1","m160romp.wav","space","427.204172127","174","197519.225531","204419.040428","205185.622907","191335.729742","192102.710128","192852.434885","193618.876071","194385.325296","198285.821304","199052.294953","199819.241948","200585.872349","201352.525628","202119.057402","202885.588867","203652.181857","204429.644793","Mapping"
"Blocked","m160","ball","1","m160cave.wav","None","718.60730648","174","197519.225531","204419.040428","205185.622907","205935.419084","192102.710128","192852.434885","193618.876071","194385.325296","198285.821304","199052.294953","199819.241948","200585.872349","201352.525628","202119.057402","202885.588867","203652.181857","205195.62871","Mapping"
"Blocked","m160","ball","1","m160ball.wav","None","735.006521922","174","197519.225531","204419.040428","205185.622907","205935.419084","206702.348147","192852.434885","193618.876071","194385.325296","198285.821304","199052.294953","199819.241948","200585.872349","201352.525628","202119.057402","202885.588867","203652.181857","205945.630797","Mapping"
"Blocked","m160","ball","1","m160priest.wav","space","440.359841567","174","197519.225531","204419.040428","205185.622907","205935.419084","206702.348147","207468.3299","193618.876071","194385.325296","198285.821304","199052.294953","199819.241948","200585.872349","201352.525628","202119.057402","202885.588867","203652.181857","206712.447321","Mapping"
"Blocked","m160","ball","1","m160park.wav","None","735.66444451","174","197519.225531","204419.040428","205185.622907","205935.419084","206702.348147","207468.3299","208234.910832","194385.325296","198285.821304","199052.294953","199819.241948","200585.872349","201352.525628","202119.057402","202885.588867","203652.181857","207477.768678","Mapping"
"Blocked","m160","ball","1","m160cling.wav","None","735.416177893","174","197519.225531","204419.040428","205185.622907","205935.419084","206702.348147","207468.3299","208234.910832","209001.561329","198285.821304","199052.294953","199819.241948","200585.872349","201352.525628","202119.057402","202885.588867","203652.181857","208244.435561","Mapping"
"Blocked","m160","ball","6","m160cling.wav","None","735.344140092","174","212135.589872","204419.040428","205185.622907","205935.419084","206702.348147","207468.3299","208234.910832","209001.561329","198285.821304","199052.294953","199819.241948","200585.872349","201352.525628","202119.057402","202885.588867","203652.181857","209011.086058","Mapping"
"Blocked","m160","ball","6","m160ball.wav","None","722.36099001","174","212135.589872","204419.040428","205185.622907","205935.419084","206702.348147","207468.3299","208234.910832","209001.561329","212902.323536","199052.294953","199819.241948","200585.872349","201352.525628","202119.057402","202885.588867","203652.181857","212145.970394","Mapping"
"Blocked","m160","ball","6","m160greet.wav","space","408.17573946","174","212135.589872","204419.040428","205185.622907","205935.419084","206702.348147","207468.3299","208234.910832","209001.561329","212902.323536","213668.872624","199819.241948","200585.872349","201352.525628","202119.057402","202885.588867","203652.181857","212912.551636","Mapping"
"Blocked","m160","ball","6","m160priest.wav","None","721.499630716","174","212135.589872","204419.040428","205185.622907","205935.419084","206702.348147","207468.3299","208234.910832","209001.561329","212902.323536","213668.872624","214434.860252","200585.872349","201352.525628","202119.057402","202885.588867","203652.181857","213679.033633","Mapping"
"Blocked","m160","ball","6","m160done.wav","None","725.080794888","174","212135.589872","204419.040428","205185.622907","205935.419084","206702.348147","207468.3299","208234.910832","209001.561329","212902.323536","213668.872624","214434.860252","215202.205154","201352.525628","202119.057402","202885.588867","203652.181857","214444.163302","Mapping"
"Blocked","m160","ball","6","m160depth.wav","None","722.670164192","174","212135.589872","204419.040428","205185.622907","205935.419084","206702.348147","207468.3299","208234.910832","209001.561329","212902.323536","213668.872624","214434.860252","215202.205154","215968.895534","202119.057402","202885.588867","203652.181857","215213.069224","Mapping"
"Blocked","m160","ball","6","m160ball.wav","None","723.054776667","174","212135.589872","204419.040428","205185.622907","205935.419084","206702.348147","207468.3299","208234.910832","209001.561329","212902.323536","213668.872624","214434.860252","215202.205154","215968.895534","216735.578494","202885.588867","203652.181857","215979.142493","Mapping"
"Blocked","m160","ball","6","m160dime.wav","space","350.41273199","174","212135.589872","204419.040428","205185.622907","205935.419084","206702.348147","207468.3299","208234.910832","209001.561329","212902.323536","213668.872624","214434.860252","215202.205154","215968.895534","216735.578494","217502.244759","203652.181857","216746.226761","Mapping"
"Blocked","m160","ball","6","m160cad.wav","None","722.113959724","174","212135.589872","204419.040428","205185.622907","205935.419084","206702.348147","207468.3299","208234.910832","209001.561329","212902.323536","213668.872624","214434.860252","215202.205154","215968.895534","216735.578494","217502.244759","218268.719026","217512.497592","Mapping"
"Blocked","m160","ball","6","m160knife.wav","None","722.780229989","174","212135.589872","219035.516072","205185.622907","205935.419084","206702.348147","207468.3299","208234.910832","209001.561329","212902.323536","213668.872624","214434.860252","215202.205154","215968.895534","216735.578494","217502.244759","218268.719026","218278.282711","Mapping"
"Blocked","m160","ball","6","m160park.wav","None","721.443979302","174","212135.589872","219035.516072","219802.170897","205935.419084","206702.348147","207468.3299","208234.910832","209001.561329","212902.323536","213668.872624","214434.860252","215202.205154","215968.895534","216735.578494","217502.244759","218268.719026","219046.072205","Mapping"
"Blocked","m160","ball","6","m160ball.wav","None","722.021207446","174","212135.589872","219035.516072","219802.170897","220568.91291","206702.348147","207468.3299","208234.910832","209001.561329","212902.323536","213668.872624","214434.860252","215202.205154","215968.895534","216735.578494","217502.244759","218268.719026","219811.949457","Mapping"
"Blocked","m160","ball","6","m160depth.wav","space","437.640345655","174","212135.589872","219035.516072","219802.170897","220568.91291","221335.29257","207468.3299","208234.910832","209001.561329","212902.323536","213668.872624","214434.860252","215202.205154","215968.895534","216735.578494","217502.244759","218268.719026","220579.02074","Mapping"
"Blocked","m160","ball","6","m160knife.wav","None","720.856239321","174","212135.589872","219035.516072","219802.170897","220568.91291","221335.29257","222102.242966","208234.910832","209001.561329","212902.323536","213668.872624","214434.860252","215202.205154","215968.895534","216735.578494","217502.244759","218268.719026","221345.695043","Mapping"
"Blocked","m160","ball","6","m160ball.wav","None","720.55170266","174","212135.589872","219035.516072","219802.170897","220568.91291","221335.29257","222102.242966","222868.754334","209001.561329","212902.323536","213668.872624","214434.860252","215202.205154","215968.895534","216735.578494","217502.244759","218268.719026","222112.523934","Mapping"
"Blocked","m160","ball","6","m160done.wav","space","425.077672349","174","212135.589872","219035.516072","219802.170897","220568.91291","221335.29257","222102.242966","222868.754334","223635.313006","212902.323536","213668.872624","214434.860252","215202.205154","215968.895534","216735.578494","217502.244759","218268.719026","222879.536474","Mapping"
"Blocked","m160","done","21","m160romp.wav","None","719.882340636","174","226751.856204","219035.516072","219802.170897","220568.91291","221335.29257","222102.242966","222868.754334","223635.313006","212902.323536","213668.872624","214434.860252","215202.205154","215968.895534","216735.578494","217502.244759","218268.719026","223645.561511","Mapping"
"Blocked","m160","done","21","m160cad.wav","None","722.640792606","174","226751.856204","219035.516072","219802.170897","220568.91291","221335.29257","222102.242966","222868.754334","223635.313006","227518.680148","213668.872624","214434.860252","215202.205154","215968.895534","216735.578494","217502.244759","218268.719026","226761.365165","Mapping"
"Blocked","m160","done","21","m160done.wav","None","721.431921469","174","226751.856204","219035.516072","219802.170897","220568.91291","221335.29257","222102.242966","222868.754334","223635.313006","227518.680148","228285.484304","214434.860252","215202.205154","215968.895534","216735.578494","217502.244759","218268.719026","227529.050777","Mapping"
"Blocked","m160","done","21","m160romp.wav","space","416.823650012","174","226751.856204","219035.516072","219802.170897","220568.91291","221335.29257","222102.242966","222868.754334","223635.313006","227518.680148","228285.484304","229052.144076","215202.205154","215968.895534","216735.578494","217502.244759","218268.719026","228295.718896","Mapping"
"Blocked","m160","done","21","m160tile.wav","None","720.300034853","174","226751.856204","219035.516072","219802.170897","220568.91291","221335.29257","222102.242966","222868.754334","223635.313006","227518.680148","228285.484304","229052.144076","229818.434076","215968.895534","216735.578494","217502.244759","218268.719026","229062.433083","Mapping"
"Blocked","m160","done","21","m160priest.wav","None","721.079772105","174","226751.856204","219035.516072","219802.170897","220568.91291","221335.29257","222102.242966","222868.754334","223635.313006","227518.680148","228285.484304","229052.144076","229818.434076","230585.218445","216735.578494","217502.244759","218268.719026","229828.155748","Mapping"
"Blocked","m160","done","21","m160ball.wav","None","720.230779843","174","226751.856204","219035.516072","219802.170897","220568.91291","221335.29257","222102.242966","222868.754334","223635.313006","227518.680148","228285.484304","229052.144076","229818.434076","230585.218445","231352.087219","217502.244759","218268.719026","230595.425212","Mapping"
"Blocked","m160","done","21","m160done.wav","None","719.936755253","174","226751.856204","219035.516072","219802.170897","220568.91291","221335.29257","222102.242966","222868.754334","223635.313006","227518.680148","228285.484304","229052.144076","229818.434076","230585.218445","231352.087219","232118.537989","218268.719026","231362.325521","Mapping"
"Blocked","m160","done","21","m160jaw.wav","space","367.548709502","174","226751.856204","219035.516072","219802.170897","220568.91291","221335.29257","222102.242966","222868.754334","223635.313006","227518.680148","228285.484304","229052.144076","229818.434076","230585.218445","231352.087219","232118.537989","232885.510337","232128.899343","Mapping"
"Blocked","m160","done","21","m160greet.wav","None","719.24420516","174","226751.856204","233652.262552","219802.170897","220568.91291","221335.29257","222102.242966","222868.754334","223635.313006","227518.680148","228285.484304","229052.144076","229818.434076","230585.218445","231352.087219","232118.537989","232885.510337","232895.369591","Mapping"
"Blocked","m160","done","21","m160done.wav","None","718.684909167","174","226751.856204","233652.262552","234418.49319","220568.91291","221335.29257","222102.242966","222868.754334","223635.313006","227518.680148","228285.484304","229052.144076","229818.434076","230585.218445","231352.087219","232118.537989","232885.510337","233662.260317","Mapping"
"Blocked","m160","done","21","m160cad.wav","space","419.429678703","174","226751.856204","233652.262552","234418.49319","235168.266179","221335.29257","222102.242966","222868.754334","223635.313006","227518.680148","228285.484304","229052.144076","229818.434076","230585.218445","231352.087219","232118.537989","232885.510337","234428.958735","Mapping"
"Blocked","m160","done","21","m160jolt.wav","None","735.248296056","174","226751.856204","233652.262552","234418.49319","235168.266179","235934.707056","222102.242966","222868.754334","223635.313006","227518.680148","228285.484304","229052.144076","229818.434076","230585.218445","231352.087219","232118.537989","232885.510337","235178.170573","Mapping"
"Blocked","m160","done","21","m160done.wav","None","735.379695194","174","226751.856204","233652.262552","234418.49319","235168.266179","235934.707056","236701.190908","222868.754334","223635.313006","227518.680148","228285.484304","229052.144076","229818.434076","230585.218445","231352.087219","232118.537989","232885.510337","235944.467684","Mapping"
"Blocked","m160","done","21","m160lash.wav","space","377.506590914","174","226751.856204","233652.262552","234418.49319","235168.266179","235934.707056","236701.190908","237468.215815","223635.313006","227518.680148","228285.484304","229052.144076","229818.434076","230585.218445","231352.087219","232118.537989","232885.510337","236710.881353","Mapping"
"Blocked","m160","done","21","m160romp.wav","None","734.027367318","174","226751.856204","233652.262552","234418.49319","235168.266179","235934.707056","236701.190908","237468.215815","238234.506742","227518.680148","228285.484304","229052.144076","229818.434076","230585.218445","231352.087219","232118.537989","232885.510337","237477.95882","Mapping"
"Blocked","m160","done","23","m160ball.wav","None","734.424965456","174","241368.463556","233652.262552","234418.49319","235168.266179","235934.707056","236701.190908","237468.215815","238234.506742","227518.680148","228285.484304","229052.144076","229818.434076","230585.218445","231352.087219","232118.537989","232885.510337","238244.198115","Mapping"
"Blocked","m160","done","23","m160done.wav","None","720.345174428","174","241368.463556","233652.262552","234418.49319","235168.266179","235934.707056","236701.190908","237468.215815","238234.506742","242135.173723","228285.484304","229052.144076","229818.434076","230585.218445","231352.087219","232118.537989","232885.510337","241380.601115","Mapping"
"Blocked","m160","done","23","m160bluff.wav","space","430.352492491","174","241368.463556","233652.262552","234418.49319","235168.266179","235934.707056","236701.190908","237468.215815","238234.506742","242135.173723","242901.667469","229052.144076","229818.434076","230585.218445","231352.087219","232118.537989","232885.510337","242145.987089","Mapping"
"Blocked","m160","done","23","m160tile.wav","None","721.193857491","174","241368.463556","233652.262552","234418.49319","235168.266179","235934.707056","236701.190908","237468.215815","238234.506742","242135.173723","242901.667469","243668.486775","229818.434076","230585.218445","231352.087219","232118.537989","232885.510337","242912.273379","Mapping"
"Blocked","m160","done","23","m160done.wav","None","721.646179212","174","241368.463556","233652.262552","234418.49319","235168.266179","235934.707056","236701.190908","237468.215815","238234.506742","242135.173723","242901.667469","243668.486775","244435.087185","230585.218445","231352.087219","232118.537989","232885.510337","243678.414975","Mapping"
"Blocked","m160","done","23","m160bluff.wav","space","339.185072575","174","241368.463556","233652.262552","234418.49319","235168.266179","235934.707056","236701.190908","237468.215815","238234.506742","242135.173723","242901.667469","243668.486775","244435.087185","245201.603192","231352.087219","232118.537989","232885.510337","244445.074438","Mapping"
"Blocked","m160","done","23","m160cling.wav","None","720.09628918","174","241368.463556","233652.262552","234418.49319","235168.266179","235934.707056","236701.190908","237468.215815","238234.506742","242135.173723","242901.667469","243668.486775","244435.087185","245201.603192","245968.373648","232118.537989","232885.510337","245213.163213","Mapping"
"Blocked","m160","done","23","m160tile.wav","None","721.469022334","174","241368.463556","233652.262552","234418.49319","235168.266179","235934.707056","236701.190908","237468.215815","238234.506742","242135.173723","242901.667469","243668.486775","244435.087185","245201.603192","245968.373648","246734.983025","232885.510337","245978.621844","Mapping"
"Blocked","m160","done","23","m160cling.wav","None","721.868166234","174","241368.463556","233652.262552","234418.49319","235168.266179","235934.707056","236701.190908","237468.215815","238234.506742","242135.173723","242901.667469","243668.486775","244435.087185","245201.603192","245968.373648","246734.983025","247502.011642","246744.757256","Mapping"
"Blocked","m160","done","23","m160done.wav","None","720.744627528","174","241368.463556","248268.461175","234418.49319","235168.266179","235934.707056","236701.190908","237468.215815","238234.506742","242135.173723","242901.667469","243668.486775","244435.087185","245201.603192","245968.373648","246734.983025","247502.011642","247512.493264","Mapping"
"Blocked","m160","done","23","m160romp.wav","space","482.704333961","174","241368.463556","248268.461175","249035.064987","235168.266179","235934.707056","236701.190908","237468.215815","238234.506742","242135.173723","242901.667469","243668.486775","244435.087185","245201.603192","245968.373648","246734.983025","247502.011642","248285.529753","Mapping"
"Blocked","m160","done","23","m160tile.wav","None","720.330025069","174","241368.463556","248268.461175","249035.064987","249801.811328","235934.707056","236701.190908","237468.215815","238234.506742","242135.173723","242901.667469","243668.486775","244435.087185","245201.603192","245968.373648","246734.983025","247502.011642","249045.429741","Mapping"
"Blocked","m160","done","23","m160gnash.wav","None","720.4521487","174","241368.463556","248268.461175","249035.064987","249801.811328","250568.360415","236701.190908","237468.215815","238234.506742","242135.173723","242901.667469","243668.486775","244435.087185","245201.603192","245968.373648","246734.983025","247502.011642","249811.969244","Mapping"
"Blocked","m160","done","23","m160greet.wav","None","720.623740461","174","241368.463556","248268.461175","249035.064987","249801.811328","250568.360415","251335.009057","237468.215815","238234.506742","242135.173723","242901.667469","243668.486775","244435.087185","245201.603192","245968.373648","246734.983025","247502.011642","250578.566254","Mapping"
"Blocked","m160","done","23","m160done.wav","None","719.779694919","174","241368.463556","248268.461175","249035.064987","249801.811328","250568.360415","251335.009057","252101.667902","238234.506742","242135.173723","242901.667469","243668.486775","244435.087185","245201.603192","245968.373648","246734.983025","247502.011642","251346.163752","Mapping"
"Blocked","m160","done","23","m160dime.wav","space","464.671133086","174","241368.463556","248268.461175","249035.064987","249801.811328","250568.360415","251335.009057","252101.667902","252868.321181","242135.173723","242901.667469","243668.486775","244435.087185","245201.603192","245968.373648","246734.983025","247502.011642","252111.509533","Mapping"
"Blocked","m160","tile","18","m160lash.wav","None","719.64613162","174","255984.972281","248268.461175","249035.064987","249801.811328","250568.360415","251335.009057","252101.667902","252868.321181","242135.173723","242901.667469","243668.486775","244435.087185","245201.603192","245968.373648","246734.983025","247502.011642","252878.673569","Mapping"
"Blocked","m160","tile","18","m160knife.wav","None","721.741714049","174","255984.972281","248268.461175","249035.064987","249801.811328","250568.360415","251335.009057","252101.667902","252868.321181","256751.414703","242901.667469","243668.486775","244435.087185","245201.603192","245968.373648","246734.983025","247502.011642","255995.295915","Mapping"
"Blocked","m160","tile","18","m160jaw.wav","None","722.620696062","174","255984.972281","248268.461175","249035.064987","249801.811328","250568.360415","251335.009057","252101.667902","252868.321181","256751.414703","257518.339129","243668.486775","244435.087185","245201.603192","245968.373648","246734.983025","247502.011642","256761.259427","Mapping"
"Blocked","m160","tile","18","m160tile.wav","None","722.754568793","174","255984.972281","248268.461175","249035.064987","249801.811328","250568.360415","251335.009057","252101.667902","252868.321181","256751.414703","257518.339129","258284.848333","244435.087185","245201.603192","245968.373648","246734.983025","247502.011642","257527.863238","Mapping"
"Blocked","m160","tile","18","m160ball.wav","space","441.040952224","174","255984.972281","248268.461175","249035.064987","249801.811328","250568.360415","251335.009057","252101.667902","252868.321181","256751.414703","257518.339129","258284.848333","259051.577051","245201.603192","245968.373648","246734.983025","247502.011642","258295.043969","Mapping"
"Blocked","m160","tile","18","m160jolt.wav","None","721.393893007","174","255984.972281","248268.461175","249035.064987","249801.811328","250568.360415","251335.009057","252101.667902","252868.321181","256751.414703","257518.339129","258284.848333","259051.577051","259818.348744","245968.373648","246734.983025","247502.011642","259061.956336","Mapping"
"Blocked","m160","tile","18","m160tile.wav","None","721.422337228","174","255984.972281","248268.461175","249035.064987","249801.811328","250568.360415","251335.009057","252101.667902","252868.321181","256751.414703","257518.339129","258284.848333","259051.577051","259818.348744","260584.77849","246734.983025","247502.011642","259828.798521","Mapping"
"Blocked","m160","tile","18","m160ball.wav","space","652.595841559","174","255984.972281","248268.461175","249035.064987","249801.811328","250568.360415","251335.009057","252101.667902","252868.321181","256751.414703","257518.339129","258284.848333","259051.577051","259818.348744","260584.77849","261351.496387","247502.011642","260595.431395","Mapping"
"Blocked","m160","tile","18","m160park.wav","None","721.508596791","174","255984.972281","248268.461175","249035.064987","249801.811328","250568.360415","251335.009057","252101.667902","252868.321181","256751.414703","257518.339129","258284.848333","259051.577051","259818.348744","260584.77849","261351.496387","262118.274573","261362.089312","Mapping"
"Blocked","m160","tile","18","m160depth.wav","None","721.738622291","174","255984.972281","262884.692571","249035.064987","249801.811328","250568.360415","251335.009057","252101.667902","252868.321181","256751.414703","257518.339129","258284.848333","259051.577051","259818.348744","260584.77849","261351.496387","262118.274573","262128.658806","Mapping"
"Blocked","m160","tile","18","m160jolt.wav","None","723.211527802","174","255984.972281","262884.692571","263651.290199","249801.811328","250568.360415","251335.009057","252101.667902","252868.321181","256751.414703","257518.339129","258284.848333","259051.577051","259818.348744","260584.77849","261351.496387","262118.274573","262894.096412","Mapping"
"Blocked","m160","tile","18","m160tile.wav","None","721.964628669","174","255984.972281","262884.692571","263651.290199","264418.222044","250568.360415","251335.009057","252101.667902","252868.321181","256751.414703","257518.339129","258284.848333","259051.577051","259818.348744","260584.77849","261351.496387","262118.274573","263661.801193","Mapping"
"Blocked","m160","tile","18","m160cad.wav","space","427.754811244","174","255984.972281","262884.692571","263651.290199","264418.222044","265184.838841","251335.009057","252101.667902","252868.321181","256751.414703","257518.339129","258284.848333","259051.577051","259818.348744","260584.77849","261351.496387","262118.274573","264428.210843","Mapping"
"Blocked","m160","tile","18","m160tile.wav","None","721.859818557","174","255984.972281","262884.692571","263651.290199","264418.222044","265184.838841","265951.676079","252101.667902","252868.321181","256751.414703","257518.339129","258284.848333","259051.577051","259818.348744","260584.77849","261351.496387","262118.274573","265195.143307","Mapping"
"Blocked","m160","tile","18","m160jolt.wav","space","678.115694784","174","255984.972281","262884.692571","263651.290199","264418.222044","265184.838841","265951.676079","266718.159004","252868.321181","256751.414703","257518.339129","258284.848333","259051.577051","259818.348744","260584.77849","261351.496387","262118.274573","265961.746809","Mapping"
"Blocked","m160","tile","18","m160romp.wav","None","721.866929438","174","255984.972281","262884.692571","263651.290199","264418.222044","265184.838841","265951.676079","266718.159004","267484.457351","256751.414703","257518.339129","258284.848333","259051.577051","259818.348744","260584.77849","261351.496387","262118.274573","266727.881294","Mapping"
"Blocked","m160","done","24","m160park.wav","None","723.25326642","174","270618.021823","262884.692571","263651.290199","264418.222044","265184.838841","265951.676079","266718.159004","267484.457351","256751.414703","257518.339129","258284.848333","259051.577051","259818.348744","260584.77849","261351.496387","262118.274573","267493.910969","Mapping"
"Blocked","m160","done","24","m160done.wav","None","721.676478162","174","270618.021823","262884.692571","263651.290199","264418.222044","265184.838841","265951.676079","266718.159004","267484.457351","271384.337175","257518.339129","258284.848333","259051.577051","259818.348744","260584.77849","261351.496387","262118.274573","270628.674419","Mapping"
"Blocked","m160","done","24","m160greet.wav","space","453.941553133","174","270618.021823","262884.692571","263651.290199","264418.222044","265184.838841","265951.676079","266718.159004","267484.457351","271384.337175","272150.750226","258284.848333","259051.577051","259818.348744","260584.77849","261351.496387","262118.274573","271393.922811","Mapping"
"Blocked","m160","done","24","m160done.wav","None","722.36099001","174","270618.021823","262884.692571","263651.290199","264418.222044","265184.838841","265951.676079","266718.159004","267484.457351","271384.337175","272150.750226","272918.284652","259051.577051","259818.348744","260584.77849","261351.496387","262118.274573","272160.489831","Mapping"
"Blocked","m160","done","24","m160tile.wav","space","359.943334712","174","270618.021823","262884.692571","263651.290199","264418.222044","265184.838841","265951.676079","266718.159004","267484.457351","271384.337175","272150.750226","272918.284652","273684.640506","259818.348744","260584.77849","261351.496387","262118.274573","272927.94047","Mapping"
"Blocked","m160","done","24","m160depth.wav","None","720.385985216","174","270618.021823","262884.692571","263651.290199","264418.222044","265184.838841","265951.676079","266718.159004","267484.457351","271384.337175","272150.750226","272918.284652","273684.640506","274451.407562","260584.77849","261351.496387","262118.274573","273694.733497","Mapping"
"Blocked","m160","done","24","m160depth.wav","None","720.305599971","174","270618.021823","262884.692571","263651.290199","264418.222044","265184.838841","265951.676079","266718.159004","267484.457351","271384.337175","272150.750226","272918.284652","273684.640506","274451.407562","275218.130096","261351.496387","262118.274573","274461.567024","Mapping"
"Blocked","m160","done","24","m160jaw.wav","None","720.88190075","174","270618.021823","262884.692571","263651.290199","264418.222044","265184.838841","265951.676079","266718.159004","267484.457351","271384.337175","272150.750226","272918.284652","273684.640506","274451.407562","275218.130096","275984.53449","262118.274573","275228.467025","Mapping"
"Blocked","m160","done","24","m160priest.wav","None","721.436250024","174","270618.021823","262884.692571","263651.290199","264418.222044","265184.838841","265951.676079","266718.159004","267484.457351","271384.337175","272150.750226","272918.284652","273684.640506","274451.407562","275218.130096","275984.53449","276751.848784","275994.697045","Mapping"
"Blocked","m160","done","24","m160park.wav","None","720.691140275","174","270618.021823","277518.021298","263651.290199","264418.222044","265184.838841","265951.676079","266718.159004","267484.457351","271384.337175","272150.750226","272918.284652","273684.640506","274451.407562","275218.130096","275984.53449","276751.848784","276762.049985","Mapping"
"Blocked","m160","done","24","m160done.wav","None","721.027212683","174","270618.021823","277518.021298","278283.770861","264418.222044","265184.838841","265951.676079","266718.159004","267484.457351","271384.337175","272150.750226","272918.284652","273684.640506","274451.407562","275218.130096","275984.53449","276751.848784","277528.366265","Mapping"
"Blocked","m160","done","24","m160cling.wav","space","451.124976389","174","270618.021823","277518.021298","278283.770861","279050.954065","265184.838841","265951.676079","266718.159004","267484.457351","271384.337175","272150.750226","272918.284652","273684.640506","274451.407562","275218.130096","275984.53449","276751.848784","278292.64385","Mapping"
"Blocked","m160","done","24","m160done.wav","None","725.070592249","174","270618.021823","277518.021298","278283.770861","279050.954065","279817.588794","265951.676079","266718.159004","267484.457351","271384.337175","272150.750226","272918.284652","273684.640506","274451.407562","275218.130096","275984.53449","276751.848784","279060.647293","Mapping"
"Blocked","m160","done","24","m160gnash.wav","space","412.601567572","174","270618.021823","277518.021298","278283.770861","279050.954065","279817.588794","280584.166635","266718.159004","267484.457351","271384.337175","272150.750226","272918.284652","273684.640506","274451.407562","275218.130096","275984.53449","276751.848784","279827.14444","Mapping"
"Blocked","m160","done","24","m160ball.wav","None","725.114495028","174","270618.021823","277518.021298","278283.770861","279050.954065","279817.588794","280584.166635","281350.882986","267484.457351","271384.337175","272150.750226","272918.284652","273684.640506","274451.407562","275218.130096","275984.53449","276751.848784","280593.833892","Mapping"
"Blocked","m160","done","24","m160lash.wav","None","724.672066746","174","270618.021823","277518.021298","278283.770861","279050.954065","279817.588794","280584.166635","281350.882986","282117.505348","271384.337175","272150.750226","272918.284652","273684.640506","274451.407562","275218.130096","275984.53449","276751.848784","281360.852306","Mapping"
"Blocked","m160","cave","9","m160ball.wav","None","725.205392111","174","285251.268","277518.021298","278283.770861","279050.954065","279817.588794","280584.166635","281350.882986","282117.505348","271384.337175","272150.750226","272918.284652","273684.640506","274451.407562","275218.130096","275984.53449","276751.848784","282127.045844","Mapping"
"Blocked","m160","cave","9","m160cling.wav","None","721.603512997","174","285251.268","277518.021298","278283.770861","279050.954065","279817.588794","280584.166635","281350.882986","282117.505348","286017.828528","272150.750226","272918.284652","273684.640506","274451.407562","275218.130096","275984.53449","276751.848784","285261.482187","Mapping"
"Blocked","m160","cave","9","m160reek.wav","None","721.566721331","174","285251.268","277518.021298","278283.770861","279050.954065","279817.588794","280584.166635","281350.882986","282117.505348","286017.828528","286784.44316","272918.284652","273684.640506","274451.407562","275218.130096","275984.53449","276751.848784","286028.705274","Mapping"
"Blocked","m160","cave","9","m160cave.wav","None","722.668927396","174","285251.268","277518.021298","278283.770861","279050.954065","279817.588794","280584.166635","281350.882986","282117.505348","286017.828528","286784.44316","287551.237114","273684.640506","274451.407562","275218.130096","275984.53449","276751.848784","286794.414645","Mapping"
"Blocked","m160","cave","9","m160reek.wav","space","398.335035192","174","285251.268","277518.021298","278283.770861","279050.954065","279817.588794","280584.166635","281350.882986","282117.505348","286017.828528","286784.44316","287551.237114","288317.942335","274451.407562","275218.130096","275984.53449","276751.848784","287561.278163","Mapping"
"Blocked","m160","cave","9","m160cad.wav","None","723.191122524","174","285251.268","277518.021298","278283.770861","279050.954065","279817.588794","280584.166635","281350.882986","282117.505348","286017.828528","286784.44316","287551.237114","288317.942335","289084.487712","275218.130096","275984.53449","276751.848784","288327.893723","Mapping"
"Blocked","m160","cave","9","m160park.wav","None","723.028806038","174","285251.268","277518.021298","278283.770861","279050.954065","279817.588794","280584.166635","281350.882986","282117.505348","286017.828528","286784.44316","287551.237114","288317.942335","289084.487712","289850.83831","275984.53449","276751.848784","289094.860505","Mapping"
"Blocked","m160","cave","9","m160cave.wav","None","724.678868428","174","285251.268","277518.021298","278283.770861","279050.954065","279817.588794","280584.166635","281350.882986","282117.505348","286017.828528","286784.44316","287551.237114","288317.942335","289084.487712","289850.83831","290617.424808","276751.848784","289860.166713","Mapping"
"Blocked","m160","cave","9","m160done.wav","space","388.485674281","174","285251.268","277518.021298","278283.770861","279050.954065","279817.588794","280584.166635","281350.882986","282117.505348","286017.828528","286784.44316","287551.237114","288317.942335","289084.487712","289850.83831","290617.424808","291384.873283","290627.099795","Mapping"
"Blocked","m160","cave","9","m160lash.wav","None","722.139311954","174","285251.268","292150.944697","278283.770861","279050.954065","279817.588794","280584.166635","281350.882986","282117.505348","286017.828528","286784.44316","287551.237114","288317.942335","289084.487712","289850.83831","290617.424808","291384.873283","291395.325225","Mapping"
"Blocked","m160","cave","9","m160cling.wav","None","722.880711546","174","285251.268","292150.944697","292917.380009","279050.954065","279817.588794","280584.166635","281350.882986","282117.505348","286017.828528","286784.44316","287551.237114","288317.942335","289084.487712","289850.83831","290617.424808","291384.873283","292161.431266","Mapping"
"Blocked","m160","cave","9","m160cave.wav","None","724.969183095","174","285251.268","292150.944697","292917.380009","293683.993096","279817.588794","280584.166635","281350.882986","282117.505348","286017.828528","286784.44316","287551.237114","288317.942335","289084.487712","289850.83831","290617.424808","291384.873283","292926.864544","Mapping"
"Blocked","m160","cave","9","m160jaw.wav","space","537.819883088","174","285251.268","292150.944697","292917.380009","293683.993096","294450.965752","280584.166635","281350.882986","282117.505348","286017.828528","286784.44316","287551.237114","288317.942335","289084.487712","289850.83831","290617.424808","291384.873283","293693.754342","Mapping"
"Blocked","m160","cave","9","m160priest.wav","None","722.917812644","174","285251.268","292150.944697","292917.380009","293683.993096","294450.965752","295217.325625","281350.882986","282117.505348","286017.828528","286784.44316","287551.237114","288317.942335","289084.487712","289850.83831","290617.424808","291384.873283","294461.443664","Mapping"
"Blocked","m160","cave","9","m160cave.wav","None","724.425036693","174","285251.268","292150.944697","292917.380009","293683.993096","294450.965752","295217.325625","295983.723526","282117.505348","286017.828528","286784.44316","287551.237114","288317.942335","289084.487712","289850.83831","290617.424808","291384.873283","295227.096765","Mapping"
"Blocked","m160","cave","9","m160cad.wav","space","478.549960768","174","285251.268","292150.944697","292917.380009","293683.993096","294450.965752","295217.325625","295983.723526","296751.132737","286017.828528","286784.44316","287551.237114","288317.942335","289084.487712","289850.83831","290617.424808","291384.873283","295992.944027","Mapping"
"Blocked","m160","ball","5","m160depth.wav","None","722.406129353","174","299884.330837","292150.944697","292917.380009","293683.993096","294450.965752","295217.325625","295983.723526","296751.132737","286017.828528","286784.44316","287551.237114","288317.942335","289084.487712","289850.83831","290617.424808","291384.873283","296761.554997","Mapping"
"Blocked","m160","ball","5","m160ball.wav","None","721.779433312","174","299884.330837","292150.944697","292917.380009","293683.993096","294450.965752","295217.325625","295983.723526","296751.132737","300650.925992","286784.44316","287551.237114","288317.942335","289084.487712","289850.83831","290617.424808","291384.873283","299894.233995","Mapping"
"Blocked","m160","ball","5","m160cling.wav","space","482.089077355","174","299884.330837","292150.944697","292917.380009","293683.993096","294450.965752","295217.325625","295983.723526","296751.132737","300650.925992","301417.561339","287551.237114","288317.942335","289084.487712","289850.83831","290617.424808","291384.873283","300661.37917","Mapping"
"Blocked","m160","ball","5","m160lash.wav","None","721.236523474","174","299884.330837","292150.944697","292917.380009","293683.993096","294450.965752","295217.325625","295983.723526","296751.132737","300650.925992","301417.561339","302184.195759","288317.942335","289084.487712","289850.83831","290617.424808","291384.873283","301427.65402","Mapping"
"Blocked","m160","ball","5","m160romp.wav","None","721.314744558","174","299884.330837","292150.944697","292917.380009","293683.993096","294450.965752","295217.325625","295983.723526","296751.132737","300650.925992","301417.561339","302184.195759","302951.005172","289084.487712","289850.83831","290617.424808","291384.873283","302194.631624","Mapping"
"Blocked","m160","ball","5","m160gnash.wav","None","722.482804442","174","299884.330837","292150.944697","292917.380009","293683.993096","294450.965752","295217.325625","295983.723526","296751.132737","300650.925992","301417.561339","302184.195759","302951.005172","303717.583631","289850.83831","290617.424808","291384.873283","302961.00912","Mapping"
"Blocked","m160","ball","5","m160park.wav","None","722.930797841","174","299884.330837","292150.944697","292917.380009","293683.993096","294450.965752","295217.325625","295983.723526","296751.132737","300650.925992","301417.561339","302184.195759","302951.005172","303717.583631","304484.218669","290617.424808","291384.873283","303727.666728","Mapping"
"Blocked","m160","ball","5","m160ball.wav","None","722.958623432","174","299884.330837","292150.944697","292917.380009","293683.993096","294450.965752","295217.325625","295983.723526","296751.132737","300650.925992","301417.561339","302184.195759","302951.005172","303717.583631","304484.218669","305250.245252","291384.873283","304494.786242","Mapping"
"Blocked","m160","ball","5","m160knife.wav","space","387.865161756","174","299884.330837","292150.944697","292917.380009","293683.993096","294450.965752","295217.325625","295983.723526","296751.132737","300650.925992","301417.561339","302184.195759","302951.005172","303717.583631","304484.218669","305250.245252","306017.901493","305259.510274","Mapping"
"Blocked","m160","ball","5","m160done.wav","None","722.915648483","174","299884.330837","306783.56727","292917.380009","293683.993096","294450.965752","295217.325625","295983.723526","296751.132737","300650.925992","301417.561339","302184.195759","302951.005172","303717.583631","304484.218669","305250.245252","306017.901493","306027.623474","Mapping"
"Blocked","m160","ball","5","m160depth.wav","None","724.535411689","174","299884.330837","306783.56727","307550.525704","293683.993096","294450.965752","295217.325625","295983.723526","296751.132737","300650.925992","301417.561339","302184.195759","302951.005172","303717.583631","304484.218669","305250.245252","306017.901493","306793.079631","Mapping"
"Blocked","m160","ball","5","m160tile.wav","None","724.465847481","174","299884.330837","306783.56727","307550.525704","308317.147757","294450.965752","295217.325625","295983.723526","296751.132737","300650.925992","301417.561339","302184.195759","302951.005172","303717.583631","304484.218669","305250.245252","306017.901493","307560.726596","Mapping"
"Blocked","m160","ball","5","m160ball.wav","None","725.29783519","174","299884.330837","306783.56727","307550.525704","308317.147757","309083.538548","295217.325625","295983.723526","296751.132737","300650.925992","301417.561339","302184.195759","302951.005172","303717.583631","304484.218669","305250.245252","306017.901493","308326.976094","Mapping"
"Blocked","m160","ball","5","m160lash.wav","space","586.334255058","174","299884.330837","306783.56727","307550.525704","308317.147757","309083.538548","309850.458026","295983.723526","296751.132737","300650.925992","301417.561339","302184.195759","302951.005172","303717.583631","304484.218669","305250.245252","306017.901493","309092.987837","Mapping"
"Blocked","m160","ball","5","m160ball.wav","None","724.91167672","174","299884.330837","306783.56727","307550.525704","308317.147757","309083.538548","309850.458026","310616.886845","296751.132737","300650.925992","301417.561339","302184.195759","302951.005172","303717.583631","304484.218669","305250.245252","306017.901493","309860.252663","Mapping"
"Blocked","m160","ball","5","m160done.wav","space","690.625808667","174","299884.330837","306783.56727","307550.525704","308317.147757","309083.538548","309850.458026","310616.886845","311383.557747","300650.925992","301417.561339","302184.195759","302951.005172","303717.583631","304484.218669","305250.245252","306017.901493","310620.665571","Mapping"
"Blocked","m160","ball","3","m160lash.wav","None","724.645168521","174","314517.422118","306783.56727","307550.525704","308317.147757","309083.538548","309850.458026","310616.886845","311383.557747","300650.925992","301417.561339","302184.195759","302951.005172","303717.583631","304484.218669","305250.245252","306017.901493","311393.442973","Mapping"
"Blocked","m160","ball","3","m160ball.wav","None","721.950097475","174","314517.422118","306783.56727","307550.525704","308317.147757","309083.538548","309850.458026","310616.886845","311383.557747","315283.736852","301417.561339","302184.195759","302951.005172","303717.583631","304484.218669","305250.245252","306017.901493","314527.840669","Mapping"
"Blocked","m160","ball","3","m160priest.wav","space","385.291905375","174","314517.422118","306783.56727","307550.525704","308317.147757","309083.538548","309850.458026","310616.886845","311383.557747","315283.736852","316050.549047","302184.195759","302951.005172","303717.583631","304484.218669","305250.245252","306017.901493","315293.941145","Mapping"
"Blocked","m160","ball","3","m160romp.wav","None","722.243194468","174","314517.422118","306783.56727","307550.525704","308317.147757","309083.538548","309850.458026","310616.886845","311383.557747","315283.736852","316050.549047","316817.410091","302951.005172","303717.583631","304484.218669","305250.245252","306017.901493","316060.400572","Mapping"
"Blocked","m160","ball","3","m160greet.wav","None","722.146423068","174","314517.422118","306783.56727","307550.525704","308317.147757","309083.538548","309850.458026","310616.886845","311383.557747","315283.736852","316050.549047","316817.410091","317584.035854","303717.583631","304484.218669","305250.245252","306017.901493","316827.621495","Mapping"
"Blocked","m160","ball","3","m160park.wav","None","722.586996388","174","314517.422118","306783.56727","307550.525704","308317.147757","309083.538548","309850.458026","310616.886845","311383.557747","315283.736852","316050.549047","316817.410091","317584.035854","318350.707684","304484.218669","305250.245252","306017.901493","317594.39257","Mapping"
"Blocked","m160","ball","3","m160cling.wav","None","723.390849074","174","314517.422118","306783.56727","307550.525704","308317.147757","309083.538548","309850.458026","310616.886845","311383.557747","315283.736852","316050.549047","316817.410091","317584.035854","318350.707684","319116.757765","305250.245252","306017.901493","318360.602803","Mapping"
"Blocked","m160","ball","3","m160done.wav","None","724.924043752","174","314517.422118","306783.56727","307550.525704","308317.147757","309083.538548","309850.458026","310616.886845","311383.557747","315283.736852","316050.549047","316817.410091","317584.035854","318350.707684","319116.757765","319883.601804","306017.901493","319126.233334","Mapping"
"Blocked","m160","ball","3","m160park.wav","None","730.335518951","174","314517.422118","306783.56727","307550.525704","308317.147757","309083.538548","309850.458026","310616.886845","311383.557747","315283.736852","316050.549047","316817.410091","317584.035854","318350.707684","319116.757765","319883.601804","320650.401323","319887.923441","Mapping"
"Blocked","m160","ball","3","m160ball.wav","None","724.9673279","174","314517.422118","321416.969271","307550.525704","308317.147757","309083.538548","309850.458026","310616.886845","311383.557747","315283.736852","316050.549047","316817.410091","317584.035854","318350.707684","319116.757765","319883.601804","320650.401323","320660.655703","Mapping"
"Blocked","m160","ball","3","m160jolt.wav","space","580.452525755","174","314517.422118","321416.969271","322183.585449","308317.147757","309083.538548","309850.458026","310616.886845","311383.557747","315283.736852","316050.549047","316817.410091","317584.035854","318350.707684","319116.757765","319883.601804","320650.401323","321426.675175","Mapping"
"Blocked","m160","ball","3","m160ball.wav","None","725.113876397","174","314517.422118","321416.969271","322183.585449","322950.207193","309083.538548","309850.458026","310616.886845","311383.557747","315283.736852","316050.549047","316817.410091","317584.035854","318350.707684","319116.757765","319883.601804","320650.401323","322193.936291","Mapping"
"Blocked","m160","ball","3","m160depth.wav","space","679.207388544","174","314517.422118","321416.969271","322183.585449","322950.207193","323716.965592","309850.458026","310616.886845","311383.557747","315283.736852","316050.549047","316817.410091","317584.035854","318350.707684","319116.757765","319883.601804","320650.401323","322959.893001","Mapping"
"Blocked","m160","ball","3","m160ball.wav","None","725.366781","174","314517.422118","321416.969271","322183.585449","322950.207193","323716.965592","324483.573732","310616.886845","311383.557747","315283.736852","316050.549047","316817.410091","317584.035854","318350.707684","319116.757765","319883.601804","320650.401323","323726.156102","Mapping"
"Blocked","m160","ball","3","m160cave.wav","space","401.585383108","174","314517.422118","321416.969271","322183.585449","322950.207193","323716.965592","324483.573732","325249.962049","311383.557747","315283.736852","316050.549047","316817.410091","317584.035854","318350.707684","319116.757765","319883.601804","320650.401323","324493.508116","Mapping"
"Blocked","m160","ball","3","m160gnash.wav","None","724.118335871","174","314517.422118","321416.969271","322183.585449","322950.207193","323716.965592","324483.573732","325249.962049","326016.705607","315283.736852","316050.549047","316817.410091","317584.035854","318350.707684","319116.757765","319883.601804","320650.401323","325260.186438","Mapping"
"Blocked","m160","done","19","m160jaw.wav","None","726.060877088","174","329150.605533","321416.969271","322183.585449","322950.207193","323716.965592","324483.573732","325249.962049","326016.705607","315283.736852","316050.549047","316817.410091","317584.035854","318350.707684","319116.757765","319883.601804","320650.401323","326026.144385","Mapping"
"Blocked","m160","done","19","m160jolt.wav","None","721.541369334","174","329150.605533","321416.969271","322183.585449","322950.207193","323716.965592","324483.573732","325249.962049","326016.705607","329917.083201","316050.549047","316817.410091","317584.035854","318350.707684","319116.757765","319883.601804","320650.401323","329160.809826","Mapping"
"Blocked","m160","done","19","m160park.wav","None","722.517122747","174","329150.605533","321416.969271","322183.585449","322950.207193","323716.965592","324483.573732","325249.962049","326016.705607","329917.083201","330683.872517","316817.410091","317584.035854","318350.707684","319116.757765","319883.601804","320650.401323","329926.871964","Mapping"
"Blocked","m160","done","19","m160jolt.wav","None","723.142272793","174","329150.605533","321416.969271","322183.585449","322950.207193","323716.965592","324483.573732","325249.962049","326016.705607","329917.083201","330683.872517","331449.823972","317584.035854","318350.707684","319116.757765","319883.601804","320650.401323","330693.97973","Mapping"
"Blocked","m160","done","19","m160done.wav","None","725.187150994","174","329150.605533","321416.969271","322183.585449","322950.207193","323716.965592","324483.573732","325249.962049","326016.705607","329917.083201","330683.872517","331449.823972","332216.781478","318350.707684","319116.757765","319883.601804","320650.401323","331459.056221","Mapping"
"Blocked","m160","done","19","m160romp.wav","space","556.510079186","174","329150.605533","321416.969271","322183.585449","322950.207193","323716.965592","324483.573732","325249.962049","326016.705607","329917.083201","330683.872517","331449.823972","332216.781478","332983.832047","319116.757765","319883.601804","320650.401323","332226.447808","Mapping"
"Blocked","m160","done","19","m160ball.wav","None","722.753950395","174","329150.605533","321416.969271","322183.585449","322950.207193","323716.965592","324483.573732","325249.962049","326016.705607","329917.083201","330683.872517","331449.823972","332216.781478","332983.832047","333750.112462","319883.601804","320650.401323","332994.317379","Mapping"
"Blocked","m160","done","19","m160tile.wav","None","723.657048075","174","329150.605533","321416.969271","322183.585449","322950.207193","323716.965592","324483.573732","325249.962049","326016.705607","329917.083201","330683.872517","331449.823972","332216.781478","332983.832047","333750.112462","334516.59415","320650.401323","333760.506897","Mapping"
"Blocked","m160","done","19","m160done.wav","None","725.287323119","174","329150.605533","321416.969271","322183.585449","322950.207193","323716.965592","324483.573732","325249.962049","326016.705607","329917.083201","330683.872517","331449.823972","332216.781478","332983.832047","333750.112462","334516.59415","335283.381611","334525.888543","Mapping"
"Blocked","m160","done","19","m160dime.wav","space","585.554517806","174","329150.605533","336050.044784","322183.585449","322950.207193","323716.965592","324483.573732","325249.962049","326016.705607","329917.083201","330683.872517","331449.823972","332216.781478","332983.832047","333750.112462","334516.59415","335283.381611","335293.348767","Mapping"
"Blocked","m160","done","19","m160reek.wav","None","724.630328128","174","329150.605533","336050.044784","336816.67302","322950.207193","323716.965592","324483.573732","325249.962049","326016.705607","329917.083201","330683.872517","331449.823972","332216.781478","332983.832047","333750.112462","334516.59415","335283.381611","336059.904966","Mapping"
"Blocked","m160","done","19","m160cad.wav","None","725.871044211","174","329150.605533","336050.044784","336816.67302","337583.373294","323716.965592","324483.573732","325249.962049","326016.705607","329917.083201","330683.872517","331449.823972","332216.781478","332983.832047","333750.112462","334516.59415","335283.381611","336825.894139","Mapping"
"Blocked","m160","done","19","m160done.wav","None","725.702853408","174","329150.605533","336050.044784","336816.67302","337583.373294","338350.108505","324483.573732","325249.962049","326016.705607","329917.083201","330683.872517","331449.823972","332216.781478","332983.832047","333750.112462","334516.59415","335283.381611","337593.28449","Mapping"
"Blocked","m160","done","19","m160dime.wav","space","703.118608799","174","329150.605533","336050.044784","336816.67302","337583.373294","338350.108505","339116.642752","325249.962049","326016.705607","329917.083201","330683.872517","331449.823972","332216.781478","332983.832047","333750.112462","334516.59415","335283.381611","338359.761849","Mapping"
"Blocked","m160","done","19","m160done.wav","None","725.16705445","174","329150.605533","336050.044784","336816.67302","337583.373294","338350.108505","339116.642752","339883.287993","326016.705607","329917.083201","330683.872517","331449.823972","332216.781478","332983.832047","333750.112462","334516.59415","335283.381611","339126.673908","Mapping"
"Blocked","m160","done","19","m160cling.wav","space","458.110457286","174","329150.605533","336050.044784","336816.67302","337583.373294","338350.108505","339116.642752","339883.287993","340650.06556","329917.083201","330683.872517","331449.823972","332216.781478","332983.832047","333750.112462","334516.59415","335283.381611","339892.782422","Mapping"
"Blocked","m160","ball","2","m160jaw.wav","None","724.978458369","174","343783.667133","336050.044784","336816.67302","337583.373294","338350.108505","339116.642752","339883.287993","340650.06556","329917.083201","330683.872517","331449.823972","332216.781478","332983.832047","333750.112462","334516.59415","335283.381611","340659.768064","Mapping"
"Blocked","m160","ball","2","m160done.wav","None","721.776959952","174","343783.667133","336050.044784","336816.67302","337583.373294","338350.108505","339116.642752","339883.287993","340650.06556","344550.221786","330683.872517","331449.823972","332216.781478","332983.832047","333750.112462","334516.59415","335283.381611","343793.587295","Mapping"
"Blocked","m160","ball","2","m160ball.wav","None","721.720071975","174","343783.667133","336050.044784","336816.67302","337583.373294","338350.108505","339116.642752","339883.287993","340650.06556","344550.221786","345317.055005","331449.823972","332216.781478","332983.832047","333750.112462","334516.59415","335283.381611","344560.783175","Mapping"
"Blocked","m160","ball","2","m160reek.wav","space","687.244680012","174","343783.667133","336050.044784","336816.67302","337583.373294","338350.108505","339116.642752","339883.287993","340650.06556","344550.221786","345317.055005","346083.734873","332216.781478","332983.832047","333750.112462","334516.59415","335283.381611","345327.517458","Mapping"
"Blocked","m160","ball","2","m160cad.wav","None","721.32989415","174","343783.667133","336050.044784","336816.67302","337583.373294","338350.108505","339116.642752","339883.287993","340650.06556","344550.221786","345317.055005","346083.734873","346850.277159","332983.832047","333750.112462","334516.59415","335283.381611","346094.24834","Mapping"
"Blocked","m160","ball","2","m160done.wav","None","722.576175118","174","343783.667133","336050.044784","336816.67302","337583.373294","338350.108505","339116.642752","339883.287993","340650.06556","344550.221786","345317.055005","346083.734873","346850.277159","347616.681862","333750.112462","334516.59415","335283.381611","346860.230403","Mapping"
"Blocked","m160","ball","2","m160depth.wav","None","723.409399623","174","343783.667133","336050.044784","336816.67302","337583.373294","338350.108505","339116.642752","339883.287993","340650.06556","344550.221786","345317.055005","346083.734873","346850.277159","347616.681862","348383.214873","334516.59415","335283.381611","347626.657367","Mapping"
"Blocked","m160","ball","2","m160depth.wav","None","723.799268017","174","343783.667133","336050.044784","336816.67302","337583.373294","338350.108505","339116.642752","339883.287993","340650.06556","344550.221786","345317.055005","346083.734873","346850.277159","347616.681862","348383.214873","349149.537646","335283.381611","348393.497696","Mapping"
"Blocked","m160","ball","2","m160ball.wav","None","725.530025084","174","343783.667133","336050.044784","336816.67302","337583.373294","338350.108505","339116.642752","339883.287993","340650.06556","344550.221786","345317.055005","346083.734873","346850.277159","347616.681862","348383.214873","349149.537646","349916.588832","349158.864193","Mapping"
"Blocked","m160","ball","2","m160reek.wav","space","360.518089263","174","343783.667133","350683.169146","336816.67302","337583.373294","338350.108505","339116.642752","339883.287993","340650.06556","344550.221786","345317.055005","346083.734873","346850.277159","347616.681862","348383.214873","349149.537646","349916.588832","349926.177559","Mapping"
"Blocked","m160","ball","2","m160jaw.wav","None","724.040423986","174","343783.667133","350683.169146","351449.917651","337583.373294","338350.108505","339116.642752","339883.287993","340650.06556","344550.221786","345317.055005","346083.734873","346850.277159","347616.681862","348383.214873","349149.537646","349916.588832","350693.296146","Mapping"
"Blocked","m160","ball","2","m160park.wav","None","724.870865699","174","343783.667133","350683.169146","351449.917651","352216.581443","338350.108505","339116.642752","339883.287993","340650.06556","344550.221786","345317.055005","346083.734873","346850.277159","347616.681862","348383.214873","349149.537646","349916.588832","351459.688173","Mapping"
"Blocked","m160","ball","2","m160ball.wav","None","725.176638924","174","343783.667133","350683.169146","351449.917651","352216.581443","352983.098067","339116.642752","339883.287993","340650.06556","344550.221786","345317.055005","346083.734873","346850.277159","347616.681862","348383.214873","349149.537646","349916.588832","352226.658047","Mapping"
"Blocked","m160","ball","2","m160dime.wav","space","533.794744872","174","343783.667133","350683.169146","351449.917651","352216.581443","352983.098067","353749.50679","339883.287993","340650.06556","344550.221786","345317.055005","346083.734873","346850.277159","347616.681862","348383.214873","349149.537646","349916.588832","352992.867352","Mapping"
"Blocked","m160","ball","2","m160ball.wav","None","726.543807192","174","343783.667133","350683.169146","351449.917651","352216.581443","352983.098067","353749.50679","354516.534788","340650.06556","344550.221786","345317.055005","346083.734873","346850.277159","347616.681862","348383.214873","349149.537646","349916.588832","353758.556317","Mapping"
"Blocked","m160","ball","2","m160tile.wav","space","663.713744376","174","343783.667133","350683.169146","351449.917651","352216.581443","352983.098067","353749.50679","354516.534788","355283.078929","344550.221786","345317.055005","346083.734873","346850.277159","347616.681862","348383.214873","349149.537646","349916.588832","354526.898924","Mapping"
"Blocked","m160","done","20","m160priest.wav","None","725.056679221","174","358416.818394","350683.169146","351449.917651","352216.581443","352983.098067","353749.50679","354516.534788","355283.078929","344550.221786","345317.055005","346083.734873","346850.277159","347616.681862","348383.214873","349149.537646","349916.588832","355293.102974","Mapping"
"Blocked","m160","done","20","m160romp.wav","None","722.083660541","174","358416.818394","350683.169146","351449.917651","352216.581443","352983.098067","353749.50679","354516.534788","355283.078929","359183.436736","345317.055005","346083.734873","346850.277159","347616.681862","348383.214873","349149.537646","349916.588832","358427.033199","Mapping"
"Blocked","m160","done","20","m160done.wav","None","722.6553238","174","358416.818394","350683.169146","351449.917651","352216.581443","352983.098067","353749.50679","354516.534788","355283.078929","359183.436736","359949.487436","346083.734873","346850.277159","347616.681862","348383.214873","349149.537646","349916.588832","359193.804892","Mapping"
"Blocked","m160","done","20","m160jolt.wav","space","535.491492599","174","358416.818394","350683.169146","351449.917651","352216.581443","352983.098067","353749.50679","354516.534788","355283.078929","359183.436736","359949.487436","360716.91767","346850.277159","347616.681862","348383.214873","349149.537646","349916.588832","359959.03968","Mapping"
"Blocked","m160","done","20","m160park.wav","None","722.542475211","174","358416.818394","350683.169146","351449.917651","352216.581443","352983.098067","353749.50679","354516.534788","355283.078929","359183.436736","359949.487436","360716.91767","361482.995267","347616.681862","348383.214873","349149.537646","349916.588832","360727.010351","Mapping"
"Blocked","m160","done","20","m160cad.wav","None","724.254681496","174","358416.818394","350683.169146","351449.917651","352216.581443","352983.098067","353749.50679","354516.534788","355283.078929","359183.436736","359949.487436","360716.91767","361482.995267","362249.784892","348383.214873","349149.537646","349916.588832","361492.811237","Mapping"
"Blocked","m160","done","20","m160done.wav","None","725.884338608","174","358416.818394","350683.169146","351449.917651","352216.581443","352983.098067","353749.50679","354516.534788","355283.078929","359183.436736","359949.487436","360716.91767","361482.995267","362249.784892","363016.298734","349149.537646","349916.588832","362259.51553","Mapping"
"Blocked","m160","done","20","m160greet.wav","space","444.952005288","174","358416.818394","350683.169146","351449.917651","352216.581443","352983.098067","353749.50679","354516.534788","355283.078929","359183.436736","359949.487436","360716.91767","361482.995267","362249.784892","363016.298734","363782.72848","349916.588832","363025.58107","Mapping"
"Blocked","m160","done","20","m160ball.wav","None","726.54689895","174","358416.818394","350683.169146","351449.917651","352216.581443","352983.098067","353749.50679","354516.534788","355283.078929","359183.436736","359949.487436","360716.91767","361482.995267","362249.784892","363016.298734","363782.72848","364549.843048","363791.969077","Mapping"
"Blocked","m160","done","20","m160greet.wav","None","726.307597943","174","358416.818394","365316.325972","351449.917651","352216.581443","352983.098067","353749.50679","354516.534788","355283.078929","359183.436736","359949.487436","360716.91767","361482.995267","362249.784892","363016.298734","363782.72848","364549.843048","364559.685607","Mapping"
"Blocked","m160","done","20","m160done.wav","None","726.724364562","174","358416.818394","365316.325972","366082.956682","352216.581443","352983.098067","353749.50679","354516.534788","355283.078929","359183.436736","359949.487436","360716.91767","361482.995267","362249.784892","363016.298734","363782.72848","364549.843048","365326.528101","Mapping"
"Blocked","m160","done","20","m160lash.wav","space","393.473580945","174","358416.818394","365316.325972","366082.956682","366849.654791","352983.098067","353749.50679","354516.534788","355283.078929","359183.436736","359949.487436","360716.91767","361482.995267","362249.784892","363016.298734","363782.72848","364549.843048","366093.01288","Mapping"
"Blocked","m160","done","20","m160done.wav","None","727.605820401","174","358416.818394","365316.325972","366082.956682","366849.654791","367616.273134","353749.50679","354516.534788","355283.078929","359183.436736","359949.487436","360716.91767","361482.995267","362249.784892","363016.298734","363782.72848","364549.843048","366859.007","Mapping"
"Blocked","m160","done","20","m160gnash.wav","space","460.141113261","174","358416.818394","365316.325972","366082.956682","366849.654791","367616.273134","368382.889003","354516.534788","355283.078929","359183.436736","359949.487436","360716.91767","361482.995267","362249.784892","363016.298734","363782.72848","364549.843048","367626.328096","Mapping"
"Blocked","m160","done","20","m160cling.wav","None","726.912033511","174","358416.818394","365316.325972","366082.956682","366849.654791","367616.273134","368382.889003","369149.709237","355283.078929","359183.436736","359949.487436","360716.91767","361482.995267","362249.784892","363016.298734","363782.72848","364549.843048","368392.805455","Mapping"
"Blocked","m160","done","20","m160ball.wav","None","727.115160786","174","358416.818394","365316.325972","366082.956682","366849.654791","367616.273134","368382.889003","369149.709237","369916.270074","359183.436736","359949.487436","360716.91767","361482.995267","362249.784892","363016.298734","363782.72848","364549.843048","369160.026379","Mapping"
"Blocked","m160","tile","16","m160greet.wav","None","729.345852276","174","373049.848149","365316.325972","366082.956682","366849.654791","367616.273134","368382.889003","369149.709237","369916.270074","359183.436736","359949.487436","360716.91767","361482.995267","362249.784892","363016.298734","363782.72848","364549.843048","369925.293012","Mapping"
"Blocked","m160","tile","16","m160depth.wav","None","722.186306491","174","373049.848149","365316.325972","366082.956682","366849.654791","367616.273134","368382.889003","369149.709237","369916.270074","373815.854636","359949.487436","360716.91767","361482.995267","362249.784892","363016.298734","363782.72848","364549.843048","373059.984114","Mapping"
"Blocked","m160","tile","16","m160tile.wav","None","727.426499128","174","373049.848149","365316.325972","366082.956682","366849.654791","367616.273134","368382.889003","369149.709237","369916.270074","373815.854636","374582.711043","360716.91767","361482.995267","362249.784892","363016.298734","363782.72848","364549.843048","373825.086886","Mapping"
"Blocked","m160","tile","16","m160lash.wav","space","501.833248185","174","373049.848149","365316.325972","366082.956682","366849.654791","367616.273134","368382.889003","369149.709237","369916.270074","373815.854636","374582.711043","375349.448727","361482.995267","362249.784892","363016.298734","363782.72848","364549.843048","374592.522066","Mapping"
"Blocked","m160","tile","16","m160jaw.wav","None","726.347790565","174","373049.848149","365316.325972","366082.956682","366849.654791","367616.273134","368382.889003","369149.709237","369916.270074","373815.854636","374582.711043","375349.448727","376115.929487","362249.784892","363016.298734","363782.72848","364549.843048","375359.677754","Mapping"
"Blocked","m160","tile","16","m160priest.wav","None","727.543676272","174","373049.848149","365316.325972","366082.956682","366849.654791","367616.273134","368382.889003","369149.709237","369916.270074","373815.854636","374582.711043","375349.448727","376115.929487","376882.552158","363016.298734","363782.72848","364549.843048","376125.808529","Mapping"
"Blocked","m160","tile","16","m160tile.wav","None","728.867869126","174","373049.848149","365316.325972","366082.956682","366849.654791","367616.273134","368382.889003","369149.709237","369916.270074","373815.854636","374582.711043","375349.448727","376115.929487","376882.552158","377649.2008","363782.72848","364549.843048","376891.872832","Mapping"
"Blocked","m160","tile","16","m160depth.wav","space","427.610426908","174","373049.848149","365316.325972","366082.956682","366849.654791","367616.273134","368382.889003","369149.709237","369916.270074","373815.854636","374582.711043","375349.448727","376115.929487","376882.552158","377649.2008","378416.171911","364549.843048","377658.680698","Mapping"
"Blocked","m160","tile","16","m160tile.wav","None","728.651447222","174","373049.848149","365316.325972","366082.956682","366849.654791","367616.273134","368382.889003","369149.709237","369916.270074","373815.854636","374582.711043","375349.448727","376115.929487","376882.552158","377649.2008","378416.171911","379182.734911","378425.700349","Mapping"
"Blocked","m160","tile","16","m160park.wav","space","565.311958082","174","373049.848149","379949.456209","366082.956682","366849.654791","367616.273134","368382.889003","369149.709237","369916.270074","373815.854636","374582.711043","375349.448727","376115.929487","376882.552158","377649.2008","378416.171911","379182.734911","379192.952499","Mapping"
"Blocked","m160","tile","16","m160ball.wav","None","728.798304917","174","373049.848149","379949.456209","380716.081354","366849.654791","367616.273134","368382.889003","369149.709237","369916.270074","373815.854636","374582.711043","375349.448727","376115.929487","376882.552158","377649.2008","378416.171911","379182.734911","379959.276817","Mapping"
"Blocked","m160","tile","16","m160tile.wav","None","730.018306291","174","373049.848149","379949.456209","380716.081354","381482.695059","367616.273134","368382.889003","369149.709237","369916.270074","373815.854636","374582.711043","375349.448727","376115.929487","376882.552158","377649.2008","378416.171911","379182.734911","380725.63669","Mapping"
