"Condition","Talker","Target","Trial","current_stimulus","response_response","response_time_response","subject_nr","time_Audio1","time_Audio10","time_Audio11","time_Audio12","time_Audio13","time_Audio14","time_Audio15","time_Audio16","time_Audio2","time_Audio3","time_Audio4","time_Audio5","time_Audio6","time_Audio7","time_Audio8","time_Audio9","time_response","title"
"Mixed","Both","ball","4","m160done.wav","NA","NA","132","435118.165126","NA","NA","NA","NA","NA","NA","NA","NA","NA","NA","NA","NA","NA","NA","NA","NA","Mapping"
"Mixed","Both","ball","4","m150knife.wav","None","718.226713128","132","435118.165126","NA","NA","NA","NA","NA","NA","NA","435884.960316","NA","NA","NA","NA","NA","NA","NA","435132.604177","Mapping"
"Mixed","Both","ball","4","m160park.wav","None","723.178755492","132","435118.165126","NA","NA","NA","NA","NA","NA","NA","435884.960316","436651.198065","NA","NA","NA","NA","NA","NA","435894.223483","Mapping"
"Mixed","Both","ball","4","m160lash.wav","None","722.691497067","132","435118.165126","NA","NA","NA","NA","NA","NA","NA","435884.960316","436651.198065","437418.016444","NA","NA","NA","NA","NA","436661.232622","Mapping"
"Mixed","Both","ball","4","m150ball.wav","None","722.734163166","132","435118.165126","NA","NA","NA","NA","NA","NA","NA","435884.960316","436651.198065","437418.016444","438184.878107","NA","NA","NA","NA","437427.887756","Mapping"
"Mixed","Both","ball","4","m150romp.wav","space","361.688931822","132","435118.165126","NA","NA","NA","NA","NA","NA","NA","435884.960316","436651.198065","437418.016444","438184.878107","438951.308162","NA","NA","NA","438194.816819","Mapping"
"Mixed","Both","ball","4","m160ball.wav","None","723.284802283","132","435118.165126","NA","NA","NA","NA","NA","NA","NA","435884.960316","436651.198065","437418.016444","438184.878107","438951.308162","439717.397199","NA","NA","438960.818978","Mapping"
"Mixed","Both","ball","4","m150depth.wav","space","398.016276769","132","435118.165126","NA","NA","NA","NA","NA","NA","NA","435884.960316","436651.198065","437418.016444","438184.878107","438951.308162","439717.397199","440484.007503","NA","439726.440234","Mapping"
"Mixed","Both","ball","4","m160reek.wav","None","719.914185698","132","435118.165126","NA","NA","NA","NA","NA","NA","NA","435884.960316","436651.198065","437418.016444","438184.878107","438951.308162","439717.397199","440484.007503","441251.059617","440497.338165","Mapping"
"Mixed","Both","ball","4","m150ball.wav","None","722.802799661","132","435118.165126","442000.510446","NA","NA","NA","NA","NA","NA","435884.960316","436651.198065","437418.016444","438184.878107","438951.308162","439717.397199","440484.007503","441251.059617","441261.025228","Mapping"
"Mixed","Both","ball","4","m160bluff.wav","space","378.060321673","132","435118.165126","442000.510446","442767.231435","NA","NA","NA","NA","NA","435884.960316","436651.198065","437418.016444","438184.878107","438951.308162","439717.397199","440484.007503","441251.059617","442010.355479","Mapping"
"Mixed","Both","ball","4","m160ball.wav","None","737.060984364","132","435118.165126","442000.510446","442767.231435","443533.793817","NA","NA","NA","NA","435884.960316","436651.198065","437418.016444","438184.878107","438951.308162","439717.397199","440484.007503","441251.059617","442776.333831","Mapping"
"Mixed","Both","ball","4","m160bluff.wav","space","565.728415851","132","435118.165126","442000.510446","442767.231435","443533.793817","444300.540776","NA","NA","NA","435884.960316","436651.198065","437418.016444","438184.878107","438951.308162","439717.397199","440484.007503","441251.059617","443542.69154","Mapping"
"Mixed","Both","ball","4","m150park.wav","None","730.472173891","132","435118.165126","442000.510446","442767.231435","443533.793817","444300.540776","445067.572485","NA","NA","435884.960316","436651.198065","437418.016444","438184.878107","438951.308162","439717.397199","440484.007503","441251.059617","444309.203836","Mapping"
"Mixed","Both","ball","4","m150depth.wav","None","729.00792514","132","435118.165126","442000.510446","442767.231435","443533.793817","444300.540776","445067.572485","445834.180625","NA","435884.960316","436651.198065","437418.016444","438184.878107","438951.308162","439717.397199","440484.007503","441251.059617","445077.303742","Mapping"
"Mixed","Both","ball","4","m150cling.wav","None","726.174343959","132","435118.165126","442000.510446","442767.231435","443533.793817","444300.540776","445067.572485","445834.180625","446600.764959","435884.960316","436651.198065","437418.016444","438184.878107","438951.308162","439717.397199","440484.007503","441251.059617","445843.252104","Mapping"
"Mixed","Both","done","40","m160reek.wav","None","725.72511388","132","449750.900856","442000.510446","442767.231435","443533.793817","444300.540776","445067.572485","445834.180625","446600.764959","435884.960316","436651.198065","437418.016444","438184.878107","438951.308162","439717.397199","440484.007503","441251.059617","446610.219814","Mapping"
"Mixed","Both","done","40","m160reek.wav","None","737.149098888","132","449750.900856","442000.510446","442767.231435","443533.793817","444300.540776","445067.572485","445834.180625","446600.764959","450517.142625","436651.198065","437418.016444","438184.878107","438951.308162","439717.397199","440484.007503","441251.059617","449760.20267","Mapping"
"Mixed","Both","done","40","m150park.wav","None","734.944068827","132","449750.900856","442000.510446","442767.231435","443533.793817","444300.540776","445067.572485","445834.180625","446600.764959","450517.142625","451284.103533","437418.016444","438184.878107","438951.308162","439717.397199","440484.007503","441251.059617","450525.880196","Mapping"
"Mixed","Both","done","40","m150park.wav","None","730.802681064","132","449750.900856","442000.510446","442767.231435","443533.793817","444300.540776","445067.572485","445834.180625","446600.764959","450517.142625","451284.103533","452051.219336","438184.878107","438951.308162","439717.397199","440484.007503","441251.059617","451293.219223","Mapping"
"Mixed","Both","done","40","m160priest.wav","None","727.314578136","132","449750.900856","442000.510446","442767.231435","443533.793817","444300.540776","445067.572485","445834.180625","446600.764959","450517.142625","451284.103533","452051.219336","452817.323213","438951.308162","439717.397199","440484.007503","441251.059617","452060.166837","Mapping"
"Mixed","Both","done","40","m160cad.wav","None","727.091045352","132","449750.900856","442000.510446","442767.231435","443533.793817","444300.540776","445067.572485","445834.180625","446600.764959","450517.142625","451284.103533","452051.219336","452817.323213","453584.045439","439717.397199","440484.007503","441251.059617","452827.016751","Mapping"
"Mixed","Both","done","40","m160done.wav","None","727.155662724","132","449750.900856","442000.510446","442767.231435","443533.793817","444300.540776","445067.572485","445834.180625","446600.764959","450517.142625","451284.103533","452051.219336","452817.323213","453584.045439","454350.542276","440484.007503","441251.059617","453593.35189","Mapping"
"Mixed","Both","done","40","m150dime.wav","space","364.930622862","132","449750.900856","442000.510446","442767.231435","443533.793817","444300.540776","445067.572485","445834.180625","446600.764959","450517.142625","451284.103533","452051.219336","452817.323213","453584.045439","454350.542276","455117.375804","441251.059617","454359.365488","Mapping"
"Mixed","Both","done","40","m150done.wav","None","724.796045455","132","449750.900856","442000.510446","442767.231435","443533.793817","444300.540776","445067.572485","445834.180625","446600.764959","450517.142625","451284.103533","452051.219336","452817.323213","453584.045439","454350.542276","455117.375804","455883.963229","455126.701733","Mapping"
"Mixed","Both","done","40","m160park.wav","space","414.807525114","132","449750.900856","456650.951653","442767.231435","443533.793817","444300.540776","445067.572485","445834.180625","446600.764959","450517.142625","451284.103533","452051.219336","452817.323213","453584.045439","454350.542276","455117.375804","455883.963229","455893.401389","Mapping"
"Mixed","Both","done","40","m150jaw.wav","None","720.287049655","132","449750.900856","456650.951653","457417.171471","443533.793817","444300.540776","445067.572485","445834.180625","446600.764959","450517.142625","451284.103533","452051.219336","452817.323213","453584.045439","454350.542276","455117.375804","455883.963229","456660.880472","Mapping"
"Mixed","Both","done","40","m150done.wav","None","721.662874683","132","449750.900856","456650.951653","457417.171471","458167.246214","444300.540776","445067.572485","445834.180625","446600.764959","450517.142625","451284.103533","452051.219336","452817.323213","453584.045439","454350.542276","455117.375804","455883.963229","457426.125463","Mapping"
"Mixed","Both","done","40","m150ball.wav","space","483.394410694","132","449750.900856","456650.951653","457417.171471","458167.246214","458933.951743","445067.572485","445834.180625","446600.764959","450517.142625","451284.103533","452051.219336","452817.323213","453584.045439","454350.542276","455117.375804","455883.963229","458176.801859","Mapping"
"Mixed","Both","done","40","m160done.wav","None","730.946447002","132","449750.900856","456650.951653","457417.171471","458167.246214","458933.951743","459700.498049","445834.180625","446600.764959","450517.142625","451284.103533","452051.219336","452817.323213","453584.045439","454350.542276","455117.375804","455883.963229","458943.027551","Mapping"
"Mixed","Both","done","40","m160reek.wav","space","382.123488467","132","449750.900856","456650.951653","457417.171471","458167.246214","458933.951743","459700.498049","460467.627147","446600.764959","450517.142625","451284.103533","452051.219336","452817.323213","453584.045439","454350.542276","455117.375804","455883.963229","459710.067916","Mapping"
"Mixed","Both","done","40","m150tile.wav","None","728.169753915","132","449750.900856","456650.951653","457417.171471","458167.246214","458933.951743","459700.498049","460467.627147","461234.340097","450517.142625","451284.103533","452051.219336","452817.323213","453584.045439","454350.542276","455117.375804","455883.963229","460472.165514","Mapping"
"Mixed","Both","done","39","m150jaw.wav","None","723.542962689","132","464333.428868","456650.951653","457417.171471","458167.246214","458933.951743","459700.498049","460467.627147","461234.340097","450517.142625","451284.103533","452051.219336","452817.323213","453584.045439","454350.542276","455117.375804","455883.963229","461243.636964","Mapping"
"Mixed","Both","done","39","m160cling.wav","None","736.844562343","132","464333.428868","456650.951653","457417.171471","458167.246214","458933.951743","459700.498049","460467.627147","461234.340097","465100.376172","451284.103533","452051.219336","452817.323213","453584.045439","454350.542276","455117.375804","455883.963229","464343.049749","Mapping"
"Mixed","Both","done","39","m150jolt.wav","None","735.782549251","132","464333.428868","456650.951653","457417.171471","458167.246214","458933.951743","459700.498049","460467.627147","461234.340097","465100.376172","465866.972564","452051.219336","452817.323213","453584.045439","454350.542276","455117.375804","455883.963229","465110.685584","Mapping"
"Mixed","Both","done","39","m150reek.wav","None","737.127147499","132","464333.428868","456650.951653","457417.171471","458167.246214","458933.951743","459700.498049","460467.627147","461234.340097","465100.376172","465866.972564","466633.2638","452817.323213","453584.045439","454350.542276","455117.375804","455883.963229","465875.982826","Mapping"
"Mixed","Both","done","39","m150done.wav","None","737.900082953","132","464333.428868","456650.951653","457417.171471","458167.246214","458933.951743","459700.498049","460467.627147","461234.340097","465100.376172","465866.972564","466633.2638","467400.421343","453584.045439","454350.542276","455117.375804","455883.963229","466642.007863","Mapping"
"Mixed","Both","done","39","m160lash.wav","space","505.946501158","132","464333.428868","456650.951653","457417.171471","458167.246214","458933.951743","459700.498049","460467.627147","461234.340097","465100.376172","465866.972564","466633.2638","467400.421343","468167.17263","454350.542276","455117.375804","455883.963229","467410.146106","Mapping"
"Mixed","Both","done","39","m160done.wav","None","729.650079738","132","464333.428868","456650.951653","457417.171471","458167.246214","458933.951743","459700.498049","460467.627147","461234.340097","465100.376172","465866.972564","466633.2638","467400.421343","468167.17263","468933.842914","455117.375804","455883.963229","468176.582346","Mapping"
"Mixed","Both","done","39","m150gnash.wav","space","444.955097046","132","464333.428868","456650.951653","457417.171471","458167.246214","458933.951743","459700.498049","460467.627147","461234.340097","465100.376172","465866.972564","466633.2638","467400.421343","468167.17263","468933.842914","469700.333568","455883.963229","468943.106699","Mapping"
"Mixed","Both","done","39","m160done.wav","None","726.386128226","132","464333.428868","456650.951653","457417.171471","458167.246214","458933.951743","459700.498049","460467.627147","461234.340097","465100.376172","465866.972564","466633.2638","467400.421343","468167.17263","468933.842914","469700.333568","470467.383209","469709.615594","Mapping"
"Mixed","Both","done","39","m160lash.wav","space","358.689324232","132","464333.428868","471216.842695","457417.171471","458167.246214","458933.951743","459700.498049","460467.627147","461234.340097","465100.376172","465866.972564","466633.2638","467400.421343","468167.17263","468933.842914","469700.333568","470467.383209","470477.310482","Mapping"
"Mixed","Both","done","39","m160reek.wav","None","736.375545152","132","464333.428868","471216.842695","471983.760937","458167.246214","458933.951743","459700.498049","460467.627147","461234.340097","465100.376172","465866.972564","466633.2638","467400.421343","468167.17263","468933.842914","469700.333568","470467.383209","471226.239425","Mapping"
"Mixed","Both","done","39","m150jolt.wav","None","733.008020325","132","464333.428868","471216.842695","471983.760937","472750.255919","458933.951743","459700.498049","460467.627147","461234.340097","465100.376172","465866.972564","466633.2638","467400.421343","468167.17263","468933.842914","469700.333568","470467.383209","471993.021321","Mapping"
"Mixed","Both","done","39","m150done.wav","None","729.50909636","132","464333.428868","471216.842695","471983.760937","472750.255919","473517.046781","459700.498049","460467.627147","461234.340097","465100.376172","465866.972564","466633.2638","467400.421343","468167.17263","468933.842914","469700.333568","470467.383209","472759.792396","Mapping"
"Mixed","Both","done","39","m160jaw.wav","space","525.388299604","132","464333.428868","471216.842695","471983.760937","472750.255919","473517.046781","474283.368626","460467.627147","461234.340097","465100.376172","465866.972564","466633.2638","467400.421343","468167.17263","468933.842914","469700.333568","470467.383209","473526.571818","Mapping"
"Mixed","Both","done","39","m160gnash.wav","None","726.665312541","132","464333.428868","471216.842695","471983.760937","472750.255919","473517.046781","474283.368626","475050.292432","461234.340097","465100.376172","465866.972564","466633.2638","467400.421343","468167.17263","468933.842914","469700.333568","470467.383209","474292.414134","Mapping"
"Mixed","Both","done","39","m150cling.wav","None","726.002133917","132","464333.428868","471216.842695","471983.760937","472750.255919","473517.046781","474283.368626","475050.292432","475817.157496","465100.376172","465866.972564","466633.2638","467400.421343","468167.17263","468933.842914","469700.333568","470467.383209","475059.713278","Mapping"
"Mixed","Both","cave","23","m160cling.wav","None","722.580503556","132","478916.793815","471216.842695","471983.760937","472750.255919","473517.046781","474283.368626","475050.292432","475817.157496","465100.376172","465866.972564","466633.2638","467400.421343","468167.17263","468933.842914","469700.333568","470467.383209","475826.32822","Mapping"
"Mixed","Both","cave","23","m160cave.wav","None","736.539098318","132","478916.793815","471216.842695","471983.760937","472750.255919","473517.046781","474283.368626","475050.292432","475817.157496","479700.490628","465866.972564","466633.2638","467400.421343","468167.17263","468933.842914","469700.333568","470467.383209","478926.249906","Mapping"
"Mixed","Both","cave","23","m150dime.wav","space","477.460431168","132","478916.793815","471216.842695","471983.760937","472750.255919","473517.046781","474283.368626","475050.292432","475817.157496","479700.490628","480450.174266","466633.2638","467400.421343","468167.17263","468933.842914","469700.333568","470467.383209","479710.413573","Mapping"
"Mixed","Both","cave","23","m160knife.wav","None","734.755472513","132","478916.793815","471216.842695","471983.760937","472750.255919","473517.046781","474283.368626","475050.292432","475817.157496","479700.490628","480450.174266","481216.703876","467400.421343","468167.17263","468933.842914","469700.333568","470467.383209","480459.744752","Mapping"
"Mixed","Both","cave","23","m160jolt.wav","None","735.347541166","132","478916.793815","471216.842695","471983.760937","472750.255919","473517.046781","474283.368626","475050.292432","475817.157496","479700.490628","480450.174266","481216.703876","481983.358083","468167.17263","468933.842914","469700.333568","470467.383209","481226.54829","Mapping"
"Mixed","Both","cave","23","m150reek.wav","None","735.982584883","132","478916.793815","471216.842695","471983.760937","472750.255919","473517.046781","474283.368626","475050.292432","475817.157496","479700.490628","480450.174266","481216.703876","481983.358083","482750.163167","468933.842914","469700.333568","470467.383209","481992.735953","Mapping"
"Mixed","Both","cave","23","m150priest.wav","None","732.256108662","132","478916.793815","471216.842695","471983.760937","472750.255919","473517.046781","474283.368626","475050.292432","475817.157496","479700.490628","480450.174266","481216.703876","481983.358083","482750.163167","483516.894976","469700.333568","470467.383209","482759.763952","Mapping"
"Mixed","Both","cave","23","m150depth.wav","None","732.543331571","132","478916.793815","471216.842695","471983.760937","472750.255919","473517.046781","474283.368626","475050.292432","475817.157496","479700.490628","480450.174266","481216.703876","481983.358083","482750.163167","483516.894976","484283.210328","470467.383209","483526.35014","Mapping"
"Mixed","Both","cave","23","m150cad.wav","None","730.18340522","132","478916.793815","471216.842695","471983.760937","472750.255919","473517.046781","474283.368626","475050.292432","475817.157496","479700.490628","480450.174266","481216.703876","481983.358083","482750.163167","483516.894976","484283.210328","485050.059624","484291.955319","Mapping"
"Mixed","Both","cave","23","m160priest.wav","None","729.259283631","132","478916.793815","485816.482569","471983.760937","472750.255919","473517.046781","474283.368626","475050.292432","475817.157496","479700.490628","480450.174266","481216.703876","481983.358083","482750.163167","483516.894976","484283.210328","485050.059624","485059.756872","Mapping"
"Mixed","Both","cave","23","m150cave.wav","None","728.938670014","132","478916.793815","485816.482569","486583.26632","472750.255919","473517.046781","474283.368626","475050.292432","475817.157496","479700.490628","480450.174266","481216.703876","481983.358083","482750.163167","483516.894976","484283.210328","485050.059624","485825.208082","Mapping"
"Mixed","Both","cave","23","m150greet.wav","space","483.571876655","132","478916.793815","485816.482569","486583.26632","487349.840451","473517.046781","474283.368626","475050.292432","475817.157496","479700.490628","480450.174266","481216.703876","481983.358083","482750.163167","483516.894976","484283.210328","485050.059624","486592.182903","Mapping"
"Mixed","Both","cave","23","m150cave.wav","None","728.765223292","132","478916.793815","485816.482569","486583.26632","487349.840451","488117.282124","474283.368626","475050.292432","475817.157496","479700.490628","480450.174266","481216.703876","481983.358083","482750.163167","483516.894976","484283.210328","485050.059624","487358.574621","Mapping"
"Mixed","Both","cave","23","m160jaw.wav","None","723.438461777","132","478916.793815","485816.482569","486583.26632","487349.840451","488117.282124","488883.850381","475050.292432","475817.157496","479700.490628","480450.174266","481216.703876","481983.358083","482750.163167","483516.894976","484283.210328","485050.059624","488127.249899","Mapping"
"Mixed","Both","cave","23","m160cave.wav","space","102.237709682","132","478916.793815","485816.482569","486583.26632","487349.840451","488117.282124","488883.850381","489633.039958","475817.157496","479700.490628","480450.174266","481216.703876","481983.358083","482750.163167","483516.894976","484283.210328","485050.059624","488893.525677","Mapping"
"Mixed","Both","cave","23","m160greet.wav","space","593.949832837","132","478916.793815","485816.482569","486583.26632","487349.840451","488117.282124","488883.850381","489633.039958","490399.800521","479700.490628","480450.174266","481216.703876","481983.358083","482750.163167","483516.894976","484283.210328","485050.059624","489641.767944","Mapping"
"Mixed","Both","ball","3","m160gnash.wav","None","734.725173563","132","493516.519021","485816.482569","486583.26632","487349.840451","488117.282124","488883.850381","489633.039958","490399.800521","479700.490628","480450.174266","481216.703876","481983.358083","482750.163167","483516.894976","484283.210328","485050.059624","490408.505628","Mapping"
"Mixed","Both","ball","3","m150priest.wav","None","736.356376437","132","493516.519021","485816.482569","486583.26632","487349.840451","488117.282124","488883.850381","489633.039958","490399.800521","494283.391814","480450.174266","481216.703876","481983.358083","482750.163167","483516.894976","484283.210328","485050.059624","493526.156288","Mapping"
"Mixed","Both","ball","3","m160ball.wav","None","733.5617512","132","493516.519021","485816.482569","486583.26632","487349.840451","488117.282124","488883.850381","489633.039958","490399.800521","494283.391814","495050.062407","481216.703876","481983.358083","482750.163167","483516.894976","484283.210328","485050.059624","494292.465457","Mapping"
"Mixed","Both","ball","3","m160romp.wav","space","536.001939094","132","493516.519021","485816.482569","486583.26632","487349.840451","488117.282124","488883.850381","489633.039958","490399.800521","494283.391814","495050.062407","495816.660344","481983.358083","482750.163167","483516.894976","484283.210328","485050.059624","495059.644023","Mapping"
"Mixed","Both","ball","3","m150jolt.wav","None","729.722426622","132","493516.519021","485816.482569","486583.26632","487349.840451","488117.282124","488883.850381","489633.039958","490399.800521","494283.391814","495050.062407","495816.660344","496583.238494","482750.163167","483516.894976","484283.210328","485050.059624","495826.149208","Mapping"
"Mixed","Both","ball","3","m150jaw.wav","None","726.1777448","132","493516.519021","485816.482569","486583.26632","487349.840451","488117.282124","488883.850381","489633.039958","490399.800521","494283.391814","495050.062407","495816.660344","496583.238494","497350.178069","483516.894976","484283.210328","485050.059624","496593.09342","Mapping"
"Mixed","Both","ball","3","m150knife.wav","None","722.767244675","132","493516.519021","485816.482569","486583.26632","487349.840451","488117.282124","488883.850381","489633.039958","490399.800521","494283.391814","495050.062407","495816.660344","496583.238494","497350.178069","498099.780084","484283.210328","485050.059624","497360.022483","Mapping"
"Mixed","Both","ball","3","m150ball.wav","None","737.043670611","132","493516.519021","485816.482569","486583.26632","487349.840451","488117.282124","488883.850381","489633.039958","490399.800521","494283.391814","495050.062407","495816.660344","496583.238494","497350.178069","498099.780084","498866.615777","485050.059624","498109.344696","Mapping"
"Mixed","Both","ball","3","m160jaw.wav","space","335.45612311","132","493516.519021","485816.482569","486583.26632","487349.840451","488117.282124","488883.850381","489633.039958","490399.800521","494283.391814","495050.062407","495816.660344","496583.238494","497350.178069","498099.780084","498866.615777","499633.388397","498876.12721","Mapping"
"Mixed","Both","ball","3","m160ball.wav","None","730.069010751","132","493516.519021","500399.780425","486583.26632","487349.840451","488117.282124","488883.850381","489633.039958","490399.800521","494283.391814","495050.062407","495816.660344","496583.238494","497350.178069","498099.780084","498866.615777","499633.388397","499642.777089","Mapping"
"Mixed","Both","ball","3","m160cling.wav","space","338.965868112","132","493516.519021","500399.780425","501166.534804","487349.840451","488117.282124","488883.850381","489633.039958","490399.800521","494283.391814","495050.062407","495816.660344","496583.238494","497350.178069","498099.780084","498866.615777","499633.388397","500408.622496","Mapping"
"Mixed","Both","ball","3","m160cad.wav","None","723.890783614","132","493516.519021","500399.780425","501166.534804","501916.176085","488117.282124","488883.850381","489633.039958","490399.800521","494283.391814","495050.062407","495816.660344","496583.238494","497350.178069","498099.780084","498866.615777","499633.388397","501175.616486","Mapping"
"Mixed","Both","ball","3","m150dime.wav","None","737.889880198","132","493516.519021","500399.780425","501166.534804","501916.176085","502683.311057","488883.850381","489633.039958","490399.800521","494283.391814","495050.062407","495816.660344","496583.238494","497350.178069","498099.780084","498866.615777","499633.388397","501925.024958","Mapping"
"Mixed","Both","ball","3","m160jolt.wav","None","733.045121189","132","493516.519021","500399.780425","501166.534804","501916.176085","502683.311057","503449.816552","489633.039958","490399.800521","494283.391814","495050.062407","495816.660344","496583.238494","497350.178069","498099.780084","498866.615777","499633.388397","502693.456916","Mapping"
"Mixed","Both","ball","3","m150ball.wav","None","731.074445066","132","493516.519021","500399.780425","501166.534804","501916.176085","502683.311057","503449.816552","504216.334722","490399.800521","494283.391814","495050.062407","495816.660344","496583.238494","497350.178069","498099.780084","498866.615777","499633.388397","503459.050347","Mapping"
"Mixed","Both","ball","3","m150jaw.wav","space","498.17571789","132","493516.519021","500399.780425","501166.534804","501916.176085","502683.311057","503449.816552","504216.334722","504983.039942","494283.391814","495050.062407","495816.660344","496583.238494","497350.178069","498099.780084","498866.615777","499633.388397","504225.342511","Mapping"
"Mixed","Both","tile","34","m160jaw.wav","None","724.394119228","132","508082.985744","500399.780425","501166.534804","501916.176085","502683.311057","503449.816552","504216.334722","504983.039942","494283.391814","495050.062407","495816.660344","496583.238494","497350.178069","498099.780084","498866.615777","499633.388397","504992.39648","Mapping"
"Mixed","Both","tile","34","m150gnash.wav","None","737.028830219","132","508082.985744","500399.780425","501166.534804","501916.176085","502683.311057","503449.816552","504216.334722","504983.039942","508849.764548","495050.062407","495816.660344","496583.238494","497350.178069","498099.780084","498866.615777","499633.388397","508092.352794","Mapping"
"Mixed","Both","tile","34","m150tile.wav","None","733.501153067","132","508082.985744","500399.780425","501166.534804","501916.176085","502683.311057","503449.816552","504216.334722","504983.039942","508849.764548","509616.52913","495816.660344","496583.238494","497350.178069","498099.780084","498866.615777","499633.388397","508859.566915","Mapping"
"Mixed","Both","tile","34","m150romp.wav","space","561.45717483","132","508082.985744","500399.780425","501166.534804","501916.176085","502683.311057","503449.816552","504216.334722","504983.039942","508849.764548","509616.52913","510383.124904","496583.238494","497350.178069","498099.780084","498866.615777","499633.388397","509625.955851","Mapping"
"Mixed","Both","tile","34","m160tile.wav","None","727.329727728","132","508082.985744","500399.780425","501166.534804","501916.176085","502683.311057","503449.816552","504216.334722","504983.039942","508849.764548","509616.52913","510383.124904","511149.769835","497350.178069","498099.780084","498866.615777","499633.388397","510392.507412","Mapping"
"Mixed","Both","tile","34","m160greet.wav","space","412.036397262","132","508082.985744","500399.780425","501166.534804","501916.176085","502683.311057","503449.816552","504216.334722","504983.039942","508849.764548","509616.52913","510383.124904","511149.769835","511916.984884","498099.780084","498866.615777","499633.388397","511159.373094","Mapping"
"Mixed","Both","tile","34","m150tile.wav","None","723.04148227","132","508082.985744","500399.780425","501166.534804","501916.176085","502683.311057","503449.816552","504216.334722","504983.039942","508849.764548","509616.52913","510383.124904","511149.769835","511916.984884","512683.428544","498866.615777","499633.388397","511926.926379","Mapping"
"Mixed","Both","tile","34","m150lash.wav","space","493.923645699","132","508082.985744","500399.780425","501166.534804","501916.176085","502683.311057","503449.816552","504216.334722","504983.039942","508849.764548","509616.52913","510383.124904","511149.769835","511916.984884","512683.428544","513449.991235","499633.388397","512693.427545","Mapping"
"Mixed","Both","tile","34","m150ball.wav","None","720.373000135","132","508082.985744","500399.780425","501166.534804","501916.176085","502683.311057","503449.816552","504216.334722","504983.039942","508849.764548","509616.52913","510383.124904","511149.769835","511916.984884","512683.428544","513449.991235","514199.379302","513459.879243","Mapping"
"Mixed","Both","tile","34","m160tile.wav","None","735.673410585","132","508082.985744","514966.517985","501166.534804","501916.176085","502683.311057","503449.816552","504216.334722","504983.039942","508849.764548","509616.52913","510383.124904","511149.769835","511916.984884","512683.428544","513449.991235","514199.379302","514208.324638","Mapping"
"Mixed","Both","tile","34","m150cling.wav","space","435.181174427","132","508082.985744","514966.517985","515733.078512","501916.176085","502683.311057","503449.816552","504216.334722","504983.039942","508849.764548","509616.52913","510383.124904","511149.769835","511916.984884","512683.428544","513449.991235","514199.379302","514976.158344","Mapping"
"Mixed","Both","tile","34","m160bluff.wav","None","728.023514617","132","508082.985744","514966.517985","515733.078512","516499.675213","502683.311057","503449.816552","504216.334722","504983.039942","508849.764548","509616.52913","510383.124904","511149.769835","511916.984884","512683.428544","513449.991235","514199.379302","515742.648998","Mapping"
"Mixed","Both","tile","34","m160gnash.wav","None","725.181894959","132","508082.985744","514966.517985","515733.078512","516499.675213","517266.334057","503449.816552","504216.334722","504983.039942","508849.764548","509616.52913","510383.124904","511149.769835","511916.984884","512683.428544","513449.991235","514199.379302","516509.243225","Mapping"
"Mixed","Both","tile","34","m160bluff.wav","None","723.556875484","132","508082.985744","514966.517985","515733.078512","516499.675213","517266.334057","518016.105809","504216.334722","504983.039942","508849.764548","509616.52913","510383.124904","511149.769835","511916.984884","512683.428544","513449.991235","514199.379302","517275.256205","Mapping"
"Mixed","Both","tile","34","m160gnash.wav","None","736.754592741","132","508082.985744","514966.517985","515733.078512","516499.675213","517266.334057","518016.105809","518783.078156","504983.039942","508849.764548","509616.52913","510383.124904","511149.769835","511916.984884","512683.428544","513449.991235","514199.379302","518025.632702","Mapping"
"Mixed","Both","tile","34","m150cling.wav","None","733.593596146","132","508082.985744","514966.517985","515733.078512","516499.675213","517266.334057","518016.105809","518783.078156","519549.54655","508849.764548","509616.52913","510383.124904","511149.769835","511916.984884","512683.428544","513449.991235","514199.379302","518792.57104","Mapping"
"Mixed","Both","tile","25","m150jaw.wav","None","731.081556063","132","522682.859663","514966.517985","515733.078512","516499.675213","517266.334057","518016.105809","518783.078156","519549.54655","508849.764548","509616.52913","510383.124904","511149.769835","511916.984884","512683.428544","513449.991235","514199.379302","519558.818683","Mapping"
"Mixed","Both","tile","25","m150cave.wav","None","721.58156184","132","522682.859663","514966.517985","515733.078512","516499.675213","517266.334057","518016.105809","518783.078156","519549.54655","523432.848146","509616.52913","510383.124904","511149.769835","511916.984884","512683.428544","513449.991235","514199.379302","522691.796342","Mapping"
"Mixed","Both","tile","25","m160tile.wav","None","734.381681075","132","522682.859663","514966.517985","515733.078512","516499.675213","517266.334057","518016.105809","518783.078156","519549.54655","523432.848146","524199.499262","510383.124904","511149.769835","511916.984884","512683.428544","513449.991235","514199.379302","523442.713275","Mapping"
"Mixed","Both","tile","25","m160ball.wav","space","370.187820168","132","522682.859663","514966.517985","515733.078512","516499.675213","517266.334057","518016.105809","518783.078156","519549.54655","523432.848146","524199.499262","524966.035673","511149.769835","511916.984884","512683.428544","513449.991235","514199.379302","524209.024608","Mapping"
"Mixed","Both","tile","25","m160tile.wav","None","729.048117646","132","522682.859663","514966.517985","515733.078512","516499.675213","517266.334057","518016.105809","518783.078156","519549.54655","523432.848146","524199.499262","524966.035673","525732.965663","511916.984884","512683.428544","513449.991235","514199.379302","524974.96926","Mapping"
"Mixed","Both","tile","25","m160lash.wav","space","540.761984419","132","522682.859663","514966.517985","515733.078512","516499.675213","517266.334057","518016.105809","518783.078156","519549.54655","523432.848146","524199.499262","524966.035673","525732.965663","526499.920078","512683.428544","513449.991235","514199.379302","525742.388055","Mapping"
"Mixed","Both","tile","25","m160cad.wav","None","720.856548403","132","522682.859663","514966.517985","515733.078512","516499.675213","517266.334057","518016.105809","518783.078156","519549.54655","523432.848146","524199.499262","524966.035673","525732.965663","526499.920078","527249.275064","513449.991235","514199.379302","526510.137357","Mapping"
"Mixed","Both","tile","25","m160done.wav","None","736.656893627","132","522682.859663","514966.517985","515733.078512","516499.675213","517266.334057","518016.105809","518783.078156","519549.54655","523432.848146","524199.499262","524966.035673","525732.965663","526499.920078","527249.275064","528016.28142","514199.379302","527258.602848","Mapping"
"Mixed","Both","tile","25","m150tile.wav","None","733.171882574","132","522682.859663","514966.517985","515733.078512","516499.675213","517266.334057","518016.105809","518783.078156","519549.54655","523432.848146","524199.499262","524966.035673","525732.965663","526499.920078","527249.275064","528016.28142","528782.912439","528025.914669","Mapping"
"Mixed","Both","tile","25","m150jolt.wav","space","587.202106835","132","522682.859663","529549.185125","515733.078512","516499.675213","517266.334057","518016.105809","518783.078156","519549.54655","523432.848146","524199.499262","524966.035673","525732.965663","526499.920078","527249.275064","528016.28142","528782.912439","528791.930122","Mapping"
"Mixed","Both","tile","25","m150romp.wav","None","727.636737749","132","522682.859663","529549.185125","530316.648441","516499.675213","517266.334057","518016.105809","518783.078156","519549.54655","523432.848146","524199.499262","524966.035673","525732.965663","526499.920078","527249.275064","528016.28142","528782.912439","529558.161069","Mapping"
"Mixed","Both","tile","25","m150done.wav","None","723.229460069","132","522682.859663","529549.185125","530316.648441","531082.723874","517266.334057","518016.105809","518783.078156","519549.54655","523432.848146","524199.499262","524966.035673","525732.965663","526499.920078","527249.275064","528016.28142","528782.912439","530326.375987","Mapping"
"Mixed","Both","tile","25","m150gnash.wav","None","721.648961888","132","522682.859663","529549.185125","530316.648441","531082.723874","531832.774192","518016.105809","518783.078156","519549.54655","523432.848146","524199.499262","524966.035673","525732.965663","526499.920078","527249.275064","528016.28142","528782.912439","531091.69147","Mapping"
"Mixed","Both","tile","25","m160knife.wav","None","735.187079757","132","522682.859663","529549.185125","530316.648441","531082.723874","531832.774192","532599.155707","518783.078156","519549.54655","523432.848146","524199.499262","524966.035673","525732.965663","526499.920078","527249.275064","528016.28142","528782.912439","531842.004586","Mapping"
"Mixed","Both","tile","25","m150tile.wav","None","733.03986527","132","522682.859663","529549.185125","530316.648441","531082.723874","531832.774192","532599.155707","533366.225444","519549.54655","523432.848146","524199.499262","524966.035673","525732.965663","526499.920078","527249.275064","528016.28142","528782.912439","532607.96346","Mapping"
"Mixed","Both","tile","25","m160knife.wav","space","411.504926858","132","522682.859663","529549.185125","530316.648441","531082.723874","531832.774192","532599.155707","533366.225444","534132.445261","523432.848146","524199.499262","524966.035673","525732.965663","526499.920078","527249.275064","528016.28142","528782.912439","533375.568069","Mapping"
"Mixed","Both","cave","14","m160ball.wav","None","726.451673079","132","537232.471758","529549.185125","530316.648441","531082.723874","531832.774192","532599.155707","533366.225444","534132.445261","523432.848146","524199.499262","524966.035673","525732.965663","526499.920078","527249.275064","528016.28142","528782.912439","534141.473456","Mapping"
"Mixed","Both","cave","14","m150cave.wav","None","737.355008838","132","537232.471758","529549.185125","530316.648441","531082.723874","531832.774192","532599.155707","533366.225444","534132.445261","537999.294465","524199.499262","524966.035673","525732.965663","526499.920078","527249.275064","528016.28142","528782.912439","537241.503972","Mapping"
"Mixed","Both","cave","14","m160reek.wav","space","481.866471935","132","537232.471758","529549.185125","530316.648441","531082.723874","531832.774192","532599.155707","533366.225444","534132.445261","537999.294465","538765.86674","524966.035673","525732.965663","526499.920078","527249.275064","528016.28142","528782.912439","538009.170415","Mapping"
"Mixed","Both","cave","14","m150priest.wav","None","730.989113101","132","537232.471758","529549.185125","530316.648441","531082.723874","531832.774192","532599.155707","533366.225444","534132.445261","537999.294465","538765.86674","539532.761485","525732.965663","526499.920078","527249.275064","528016.28142","528782.912439","538774.552988","Mapping"
"Mixed","Both","cave","14","m150knife.wav","None","727.316433215","132","537232.471758","529549.185125","530316.648441","531082.723874","531832.774192","532599.155707","533366.225444","534132.445261","537999.294465","538765.86674","539532.761485","540299.729504","526499.920078","527249.275064","528016.28142","528782.912439","539541.972092","Mapping"
"Mixed","Both","cave","14","m160cave.wav","None","723.289439804","132","537232.471758","529549.185125","530316.648441","531082.723874","531832.774192","532599.155707","533366.225444","534132.445261","537999.294465","538765.86674","539532.761485","540299.729504","541066.507689","527249.275064","528016.28142","528782.912439","540309.781065","Mapping"
"Mixed","Both","cave","14","m150lash.wav","space","398.632770055","132","537232.471758","529549.185125","530316.648441","531082.723874","531832.774192","532599.155707","533366.225444","534132.445261","537999.294465","538765.86674","539532.761485","540299.729504","541066.507689","541815.846288","528016.28142","528782.912439","541076.315621","Mapping"
"Mixed","Both","cave","14","m150greet.wav","None","734.332831576","132","537232.471758","529549.185125","530316.648441","531082.723874","531832.774192","532599.155707","533366.225444","534132.445261","537999.294465","538765.86674","539532.761485","540299.729504","541066.507689","541815.846288","542582.651682","528782.912439","541825.264661","Mapping"
"Mixed","Both","cave","14","m150gnash.wav","None","731.262113899","132","537232.471758","529549.185125","530316.648441","531082.723874","531832.774192","532599.155707","533366.225444","534132.445261","537999.294465","538765.86674","539532.761485","540299.729504","541066.507689","541815.846288","542582.651682","543349.270952","542592.17641","Mapping"
"Mixed","Both","cave","14","m160knife.wav","None","728.442136431","132","537232.471758","544115.723886","530316.648441","531082.723874","531832.774192","532599.155707","533366.225444","534132.445261","537999.294465","538765.86674","539532.761485","540299.729504","541066.507689","541815.846288","542582.651682","543349.270952","543358.868645","Mapping"
"Mixed","Both","cave","14","m160cave.wav","None","726.42477497","132","537232.471758","544115.723886","544883.019011","531082.723874","531832.774192","532599.155707","533366.225444","534132.445261","537999.294465","538765.86674","539532.761485","540299.729504","541066.507689","541815.846288","542582.651682","543349.270952","544124.699212","Mapping"
"Mixed","Both","cave","14","m160cling.wav","space","397.65299717","132","537232.471758","544115.723886","544883.019011","545632.501995","531832.774192","532599.155707","533366.225444","534132.445261","537999.294465","538765.86674","539532.761485","540299.729504","541066.507689","541815.846288","542582.651682","543349.270952","544893.249584","Mapping"
"Mixed","Both","cave","14","m160cling.wav","None","736.381419469","132","537232.471758","544115.723886","544883.019011","545632.501995","546398.994813","532599.155707","533366.225444","534132.445261","537999.294465","538765.86674","539532.761485","540299.729504","541066.507689","541815.846288","542582.651682","543349.270952","545641.703327","Mapping"
"Mixed","Both","cave","14","m150reek.wav","None","734.052719781","132","537232.471758","544115.723886","544883.019011","545632.501995","546398.994813","547165.929441","533366.225444","534132.445261","537999.294465","538765.86674","539532.761485","540299.729504","541066.507689","541815.846288","542582.651682","543349.270952","546407.785562","Mapping"
"Mixed","Both","cave","14","m150cave.wav","None","729.978113552","132","537232.471758","544115.723886","544883.019011","545632.501995","546398.994813","547165.929441","547932.62415","534132.445261","537999.294465","538765.86674","539532.761485","540299.729504","541066.507689","541815.846288","542582.651682","543349.270952","547175.485705","Mapping"
"Mixed","Both","cave","14","m160ball.wav","space","524.581355043","132","537232.471758","544115.723886","544883.019011","545632.501995","546398.994813","547165.929441","547932.62415","548699.526623","537999.294465","538765.86674","539532.761485","540299.729504","541066.507689","541815.846288","542582.651682","543349.270952","547942.288006","Mapping"
"Mixed","Both","tile","29","m160done.wav","None","722.469819128","132","551799.060914","544115.723886","544883.019011","545632.501995","546398.994813","547165.929441","547932.62415","548699.526623","537999.294465","538765.86674","539532.761485","540299.729504","541066.507689","541815.846288","542582.651682","543349.270952","548709.675265","Mapping"
"Mixed","Both","tile","29","m150cad.wav","None","737.402930856","132","551799.060914","544115.723886","544883.019011","545632.501995","546398.994813","547165.929441","547932.62415","548699.526623","552565.573829","538765.86674","539532.761485","540299.729504","541066.507689","541815.846288","542582.651682","543349.270952","551808.33212","Mapping"
"Mixed","Both","tile","29","m150knife.wav","None","735.108240391","132","551799.060914","544115.723886","544883.019011","545632.501995","546398.994813","547165.929441","547932.62415","548699.526623","552565.573829","553332.616668","539532.761485","540299.729504","541066.507689","541815.846288","542582.651682","543349.270952","552574.377254","Mapping"
"Mixed","Both","tile","29","m160romp.wav","None","731.331677991","132","551799.060914","544115.723886","544883.019011","545632.501995","546398.994813","547165.929441","547932.62415","548699.526623","552565.573829","553332.616668","554099.043632","540299.729504","541066.507689","541815.846288","542582.651682","543349.270952","553342.205704","Mapping"
"Mixed","Both","tile","29","m150tile.wav","None","728.878999478","132","551799.060914","544115.723886","544883.019011","545632.501995","546398.994813","547165.929441","547932.62415","548699.526623","552565.573829","553332.616668","554099.043632","554865.955999","541066.507689","541815.846288","542582.651682","543349.270952","554108.451801","Mapping"
"Mixed","Both","tile","29","m160bluff.wav","space","431.392863509","132","551799.060914","544115.723886","544883.019011","545632.501995","546398.994813","547165.929441","547932.62415","548699.526623","552565.573829","553332.616668","554099.043632","554865.955999","555632.865584","541815.846288","542582.651682","543349.270952","554875.364169","Mapping"
"Mixed","Both","tile","29","m150tile.wav","None","721.796128782","132","551799.060914","544115.723886","544883.019011","545632.501995","546398.994813","547165.929441","547932.62415","548699.526623","552565.573829","553332.616668","554099.043632","554865.955999","555632.865584","556382.074639","542582.651682","543349.270952","555642.58942","Mapping"
"Mixed","Both","tile","29","m160romp.wav","None","737.506194972","132","551799.060914","544115.723886","544883.019011","545632.501995","546398.994813","547165.929441","547932.62415","548699.526623","552565.573829","553332.616668","554099.043632","554865.955999","555632.865584","556382.074639","557148.994117","543349.270952","556390.802316","Mapping"
"Mixed","Both","tile","29","m160tile.wav","space","60.2045557462","132","551799.060914","544115.723886","544883.019011","545632.501995","546398.994813","547165.929441","547932.62415","548699.526623","552565.573829","553332.616668","554099.043632","554865.955999","555632.865584","556382.074639","557148.994117","557915.763955","557158.529358","Mapping"
"Mixed","Both","tile","29","m150dime.wav","space","541.330864886","132","551799.060914","558682.066322","544883.019011","545632.501995","546398.994813","547165.929441","547932.62415","548699.526623","552565.573829","553332.616668","554099.043632","554865.955999","555632.865584","556382.074639","557148.994117","557915.763955","557925.335987","Mapping"
"Mixed","Both","tile","29","m150cad.wav","None","727.738146787","132","551799.060914","558682.066322","559449.178107","545632.501995","546398.994813","547165.929441","547932.62415","548699.526623","552565.573829","553332.616668","554099.043632","554865.955999","555632.865584","556382.074639","557148.994117","557915.763955","558691.013204","Mapping"
"Mixed","Both","tile","29","m160greet.wav","None","729.297621292","132","551799.060914","558682.066322","559449.178107","560215.84499","546398.994813","547165.929441","547932.62415","548699.526623","552565.573829","553332.616668","554099.043632","554865.955999","555632.865584","556382.074639","557148.994117","557915.763955","559453.46728","Mapping"
"Mixed","Both","tile","29","m160bluff.wav","None","721.329894033","132","551799.060914","558682.066322","559449.178107","560215.84499","560965.46401","547165.929441","547932.62415","548699.526623","552565.573829","553332.616668","554099.043632","554865.955999","555632.865584","556382.074639","557148.994117","557915.763955","560225.664361","Mapping"
"Mixed","Both","tile","29","m150jaw.wav","None","736.701724003","132","551799.060914","558682.066322","559449.178107","560215.84499","560965.46401","561731.988055","547932.62415","548699.526623","552565.573829","553332.616668","554099.043632","554865.955999","555632.865584","556382.074639","557148.994117","557915.763955","560974.238063","Mapping"
"Mixed","Both","tile","29","m160tile.wav","None","734.178553568","132","551799.060914","558682.066322","559449.178107","560215.84499","560965.46401","561731.988055","562499.057173","548699.526623","552565.573829","553332.616668","554099.043632","554865.955999","555632.865584","556382.074639","557148.994117","557915.763955","561740.798591","Mapping"
"Mixed","Both","tile","29","m150priest.wav","space","509.999155998","132","551799.060914","558682.066322","559449.178107","560215.84499","560965.46401","561731.988055","562499.057173","563265.620792","552565.573829","553332.616668","554099.043632","554865.955999","555632.865584","556382.074639","557148.994117","557915.763955","562508.652702","Mapping"
"Mixed","Both","cave","24","m150romp.wav","None","726.819590433","132","566365.457765","558682.066322","559449.178107","560215.84499","560965.46401","561731.988055","562499.057173","563265.620792","552565.573829","553332.616668","554099.043632","554865.955999","555632.865584","556382.074639","557148.994117","557915.763955","563274.953214","Mapping"
"Mixed","Both","cave","24","m150dime.wav","None","737.741785822","132","566365.457765","558682.066322","559449.178107","560215.84499","560965.46401","561731.988055","562499.057173","563265.620792","567132.221419","553332.616668","554099.043632","554865.955999","555632.865584","556382.074639","557148.994117","557915.763955","566374.47452","Mapping"
"Mixed","Both","cave","24","m160jolt.wav","None","734.413526021","132","566365.457765","558682.066322","559449.178107","560215.84499","560965.46401","561731.988055","562499.057173","563265.620792","567132.221419","567898.947355","554099.043632","554865.955999","555632.865584","556382.074639","557148.994117","557915.763955","567141.978647","Mapping"
"Mixed","Both","cave","24","m150jolt.wav","None","731.795439264","132","566365.457765","558682.066322","559449.178107","560215.84499","560965.46401","561731.988055","562499.057173","563265.620792","567132.221419","567898.947355","568665.483148","554865.955999","555632.865584","556382.074639","557148.994117","557915.763955","567908.429417","Mapping"
"Mixed","Both","cave","24","m160cave.wav","None","729.509405559","132","566365.457765","558682.066322","559449.178107","560215.84499","560965.46401","561731.988055","562499.057173","563265.620792","567132.221419","567898.947355","568665.483148","569432.368308","555632.865584","556382.074639","557148.994117","557915.763955","568674.607186","Mapping"
"Mixed","Both","cave","24","m160cling.wav","space","432.886793045","132","566365.457765","558682.066322","559449.178107","560215.84499","560965.46401","561731.988055","562499.057173","563265.620792","567132.221419","567898.947355","568665.483148","569432.368308","570198.88586","556382.074639","557148.994117","557915.763955","569441.639513","Mapping"
"Mixed","Both","cave","24","m160gnash.wav","None","722.728288732","132","566365.457765","558682.066322","559449.178107","560215.84499","560965.46401","561731.988055","562499.057173","563265.620792","567132.221419","567898.947355","568665.483148","569432.368308","570198.88586","570948.499006","557148.994117","557915.763955","570208.152428","Mapping"
"Mixed","Both","cave","24","m150lash.wav","None","737.740549142","132","566365.457765","558682.066322","559449.178107","560215.84499","560965.46401","561731.988055","562499.057173","563265.620792","567132.221419","567898.947355","568665.483148","569432.368308","570198.88586","570948.499006","571715.276882","557915.763955","570957.131457","Mapping"
"Mixed","Both","cave","24","m150cave.wav","None","734.488036949","132","566365.457765","558682.066322","559449.178107","560215.84499","560965.46401","561731.988055","562499.057173","563265.620792","567132.221419","567898.947355","568665.483148","569432.368308","570198.88586","570948.499006","571715.276882","572481.862762","571724.301676","Mapping"
"Mixed","Both","cave","24","m160cling.wav","space","399.918007082","132","566365.457765","573248.532737","559449.178107","560215.84499","560965.46401","561731.988055","562499.057173","563265.620792","567132.221419","567898.947355","568665.483148","569432.368308","570198.88586","570948.499006","571715.276882","572481.862762","572490.585492","Mapping"
"Mixed","Both","cave","24","m150cave.wav","None","728.195106261","132","566365.457765","573248.532737","574015.231465","560215.84499","560965.46401","561731.988055","562499.057173","563265.620792","567132.221419","567898.947355","568665.483148","569432.368308","570198.88586","570948.499006","571715.276882","572481.862762","573257.360277","Mapping"
"Mixed","Both","cave","24","m160cling.wav","space","578.186588478","132","566365.457765","573248.532737","574015.231465","574782.081688","560965.46401","561731.988055","562499.057173","563265.620792","567132.221419","567898.947355","568665.483148","569432.368308","570198.88586","570948.499006","571715.276882","572481.862762","574024.31562","Mapping"
"Mixed","Both","cave","24","m160jaw.wav","None","721.580015961","132","566365.457765","573248.532737","574015.231465","574782.081688","575532.023486","561731.988055","562499.057173","563265.620792","567132.221419","567898.947355","568665.483148","569432.368308","570198.88586","570948.499006","571715.276882","572481.862762","574790.91603","Mapping"
"Mixed","Both","cave","24","m160cave.wav","None","735.079178005","132","566365.457765","573248.532737","574015.231465","574782.081688","575532.023486","576298.538565","562499.057173","563265.620792","567132.221419","567898.947355","568665.483148","569432.368308","570198.88586","570948.499006","571715.276882","572481.862762","575541.357763","Mapping"
"Mixed","Both","cave","24","m150greet.wav","space","583.164601587","132","566365.457765","573248.532737","574015.231465","574782.081688","575532.023486","576298.538565","577065.442275","563265.620792","567132.221419","567898.947355","568665.483148","569432.368308","570198.88586","570948.499006","571715.276882","572481.862762","576307.298396","Mapping"
"Mixed","Both","cave","24","m150dime.wav","None","728.531178553","132","566365.457765","573248.532737","574015.231465","574782.081688","575532.023486","576298.538565","577065.442275","577831.774632","567132.221419","567898.947355","568665.483148","569432.368308","570198.88586","570948.499006","571715.276882","572481.862762","577074.997612","Mapping"
"Mixed","Both","cave","13","m160jolt.wav","None","726.755900541","132","580948.547855","573248.532737","574015.231465","574782.081688","575532.023486","576298.538565","577065.442275","577831.774632","567132.221419","567898.947355","568665.483148","569432.368308","570198.88586","570948.499006","571715.276882","572481.862762","577840.748721","Mapping"
"Mixed","Both","cave","13","m150cave.wav","None","722.223716555","132","580948.547855","573248.532737","574015.231465","574782.081688","575532.023486","576298.538565","577065.442275","577831.774632","581698.393191","567898.947355","568665.483148","569432.368308","570198.88586","570948.499006","571715.276882","572481.862762","580957.243379","Mapping"
"Mixed","Both","cave","13","m160done.wav","space","639.201489743","132","580948.547855","573248.532737","574015.231465","574782.081688","575532.023486","576298.538565","577065.442275","577831.774632","581698.393191","582465.115416","568665.483148","569432.368308","570198.88586","570948.499006","571715.276882","572481.862762","581707.140346","Mapping"
"Mixed","Both","cave","13","m150cave.wav","None","732.543022372","132","580948.547855","573248.532737","574015.231465","574782.081688","575532.023486","576298.538565","577065.442275","577831.774632","581698.393191","582465.115416","583231.689238","569432.368308","570198.88586","570948.499006","571715.276882","572481.862762","582473.862262","Mapping"
"Mixed","Both","cave","13","m150knife.wav","space","481.68900609","132","580948.547855","573248.532737","574015.231465","574782.081688","575532.023486","576298.538565","577065.442275","577831.774632","581698.393191","582465.115416","583231.689238","583998.633141","570198.88586","570948.499006","571715.276882","572481.862762","583240.680331","Mapping"
"Mixed","Both","cave","13","m150bluff.wav","None","725.196735235","132","580948.547855","573248.532737","574015.231465","574782.081688","575532.023486","576298.538565","577065.442275","577831.774632","581698.393191","582465.115416","583231.689238","583998.633141","584765.376081","570948.499006","571715.276882","572481.862762","584008.19868","Mapping"
"Mixed","Both","cave","13","m160cave.wav","None","726.014810032","132","580948.547855","573248.532737","574015.231465","574782.081688","575532.023486","576298.538565","577065.442275","577831.774632","581698.393191","582465.115416","583231.689238","583998.633141","584765.376081","585532.170653","571715.276882","572481.862762","584774.67573","Mapping"
"Mixed","Both","cave","13","m160bluff.wav","space","363.810794079","132","580948.547855","573248.532737","574015.231465","574782.081688","575532.023486","576298.538565","577065.442275","577831.774632","581698.393191","582465.115416","583231.689238","583998.633141","584765.376081","585532.170653","586281.853363","572481.862762","585542.48934","Mapping"
"Mixed","Both","cave","13","m150depth.wav","None","736.512200208","132","580948.547855","573248.532737","574015.231465","574782.081688","575532.023486","576298.538565","577065.442275","577831.774632","581698.393191","582465.115416","583231.689238","583998.633141","584765.376081","585532.170653","586281.853363","587048.528285","586291.205263","Mapping"
"Mixed","Both","cave","13","m150dime.wav","None","733.478892595","132","580948.547855","587815.254529","574015.231465","574782.081688","575532.023486","576298.538565","577065.442275","577831.774632","581698.393191","582465.115416","583231.689238","583998.633141","584765.376081","585532.170653","586281.853363","587048.528285","587058.272526","Mapping"
"Mixed","Both","cave","13","m150priest.wav","None","730.9470654","132","580948.547855","587815.254529","588581.983247","574782.081688","575532.023486","576298.538565","577065.442275","577831.774632","581698.393191","582465.115416","583231.689238","583998.633141","584765.376081","585532.170653","586281.853363","587048.528285","587824.789151","Mapping"
"Mixed","Both","cave","13","m160jolt.wav","None","733.949455549","132","580948.547855","587815.254529","588581.983247","589348.604682","575532.023486","576298.538565","577065.442275","577831.774632","581698.393191","582465.115416","583231.689238","583998.633141","584765.376081","585532.170653","586281.853363","587048.528285","588585.744969","Mapping"
"Mixed","Both","cave","13","m160cave.wav","None","725.603917614","132","580948.547855","587815.254529","588581.983247","589348.604682","590115.728215","576298.538565","577065.442275","577831.774632","581698.393191","582465.115416","583231.689238","583998.633141","584765.376081","585532.170653","586281.853363","587048.528285","589358.073758","Mapping"
"Mixed","Both","cave","13","m160jolt.wav","space","324.748185347","132","580948.547855","587815.254529","588581.983247","589348.604682","590115.728215","590864.826895","577065.442275","577831.774632","581698.393191","582465.115416","583231.689238","583998.633141","584765.376081","585532.170653","586281.853363","587048.528285","590125.454215","Mapping"
"Mixed","Both","cave","13","m160bluff.wav","None","736.779635889","132","580948.547855","587815.254529","588581.983247","589348.604682","590115.728215","590864.826895","591631.607863","577831.774632","581698.393191","582465.115416","583231.689238","583998.633141","584765.376081","585532.170653","586281.853363","587048.528285","590873.909813","Mapping"
"Mixed","Both","cave","13","m150cling.wav","None","733.928431757","132","580948.547855","587815.254529","588581.983247","589348.604682","590115.728215","590864.826895","591631.607863","592398.302881","581698.393191","582465.115416","583231.689238","583998.633141","584765.376081","585532.170653","586281.853363","587048.528285","591640.863919","Mapping"
"Mixed","Both","done","42","m160cad.wav","None","731.503578834","132","595515.165456","587815.254529","588581.983247","589348.604682","590115.728215","590864.826895","591631.607863","592398.302881","581698.393191","582465.115416","583231.689238","583998.633141","584765.376081","585532.170653","586281.853363","587048.528285","592407.197822","Mapping"
"Mixed","Both","done","42","m150done.wav","None","736.37863691","132","595515.165456","587815.254529","588581.983247","589348.604682","590115.728215","590864.826895","591631.607863","592398.302881","596281.466895","582465.115416","583231.689238","583998.633141","584765.376081","585532.170653","586281.853363","587048.528285","595524.543636","Mapping"
"Mixed","Both","done","42","m160greet.wav","space","335.979864118","132","595515.165456","587815.254529","588581.983247","589348.604682","590115.728215","590864.826895","591631.607863","592398.302881","596281.466895","597048.561057","583231.689238","583998.633141","584765.376081","585532.170653","586281.853363","587048.528285","596290.149742","Mapping"
"Mixed","Both","done","42","m160done.wav","None","730.837926967","132","595515.165456","587815.254529","588581.983247","589348.604682","590115.728215","590864.826895","591631.607863","592398.302881","596281.466895","597048.561057","597815.17198","583998.633141","584765.376081","585532.170653","586281.853363","587048.528285","597057.455379","Mapping"
"Mixed","Both","done","42","m160cling.wav","space","377.550493577","132","595515.165456","587815.254529","588581.983247","589348.604682","590115.728215","590864.826895","591631.607863","592398.302881","596281.466895","597048.561057","597815.17198","598581.629861","584765.376081","585532.170653","586281.853363","587048.528285","597824.565927","Mapping"
"Mixed","Both","done","42","m150done.wav","None","724.375877762","132","595515.165456","587815.254529","588581.983247","589348.604682","590115.728215","590864.826895","591631.607863","592398.302881","596281.466895","597048.561057","597815.17198","598581.629861","599348.726805","585532.170653","586281.853363","587048.528285","598590.915907","Mapping"
"Mixed","Both","done","42","m160cling.wav","space","347.086945665","132","595515.165456","587815.254529","588581.983247","589348.604682","590115.728215","590864.826895","591631.607863","592398.302881","596281.466895","597048.561057","597815.17198","598581.629861","599348.726805","600098.285537","586281.853363","587048.528285","599359.006228","Mapping"
"Mixed","Both","done","42","m150tile.wav","None","734.576460789","132","595515.165456","587815.254529","588581.983247","589348.604682","590115.728215","590864.826895","591631.607863","592398.302881","596281.466895","597048.561057","597815.17198","598581.629861","599348.726805","600098.285537","600865.178117","587048.528285","600108.170143","Mapping"
"Mixed","Both","done","42","m150knife.wav","None","732.261055615","132","595515.165456","587815.254529","588581.983247","589348.604682","590115.728215","590864.826895","591631.607863","592398.302881","596281.466895","597048.561057","597815.17198","598581.629861","599348.726805","600098.285537","600865.178117","601631.470281","600874.608238","Mapping"
"Mixed","Both","done","42","m150depth.wav","None","730.540501419","132","595515.165456","602398.336581","588581.983247","589348.604682","590115.728215","590864.826895","591631.607863","592398.302881","596281.466895","597048.561057","597815.17198","598581.629861","599348.726805","600098.285537","600865.178117","601631.470281","601640.525373","Mapping"
"Mixed","Both","done","42","m150gnash.wav","None","727.422170807","132","595515.165456","602398.336581","603165.041184","589348.604682","590115.728215","590864.826895","591631.607863","592398.302881","596281.466895","597048.561057","597815.17198","598581.629861","599348.726805","600098.285537","600865.178117","601631.470281","602407.798547","Mapping"
"Mixed","Both","done","42","m150cad.wav","None","724.636511644","132","595515.165456","602398.336581","603165.041184","603932.177393","590115.728215","590864.826895","591631.607863","592398.302881","596281.466895","597048.561057","597815.17198","598581.629861","599348.726805","600098.285537","600865.178117","601631.470281","603174.604868","Mapping"
"Mixed","Both","done","42","m150cave.wav","None","721.510761068","132","595515.165456","602398.336581","603165.041184","603932.177393","604681.525267","590864.826895","591631.607863","592398.302881","596281.466895","597048.561057","597815.17198","598581.629861","599348.726805","600098.285537","600865.178117","601631.470281","603941.911123","Mapping"
"Mixed","Both","done","42","m160done.wav","None","736.297942465","132","595515.165456","602398.336581","603165.041184","603932.177393","604681.525267","605448.268207","591631.607863","592398.302881","596281.466895","597048.561057","597815.17198","598581.629861","599348.726805","600098.285537","600865.178117","601631.470281","604691.211384","Mapping"
"Mixed","Both","done","42","m160reek.wav","space","384.440130438","132","595515.165456","602398.336581","603165.041184","603932.177393","604681.525267","605448.268207","606214.910356","592398.302881","596281.466895","597048.561057","597815.17198","598581.629861","599348.726805","600098.285537","600865.178117","601631.470281","605457.529519","Mapping"
"Mixed","Both","done","42","m160lash.wav","None","730.128372204","132","595515.165456","602398.336581","603165.041184","603932.177393","604681.525267","605448.268207","606214.910356","606981.71575","596281.466895","597048.561057","597815.17198","598581.629861","599348.726805","600098.285537","600865.178117","601631.470281","606224.723235","Mapping"
"Mixed","Both","tile","32","m160dime.wav","None","728.22602361","132","610098.514325","602398.336581","603165.041184","603932.177393","604681.525267","605448.268207","606214.910356","606981.71575","596281.466895","597048.561057","597815.17198","598581.629861","599348.726805","600098.285537","600865.178117","601631.470281","606990.812272","Mapping"
"Mixed","Both","tile","32","m160tile.wav","None","722.472601687","132","610098.514325","602398.336581","603165.041184","603932.177393","604681.525267","605448.268207","606214.910356","606981.71575","610864.884092","597048.561057","597815.17198","598581.629861","599348.726805","600098.285537","600865.178117","601631.470281","610108.752318","Mapping"
"Mixed","Both","tile","32","m160romp.wav","space","576.176338131","132","610098.514325","602398.336581","603165.041184","603932.177393","604681.525267","605448.268207","606214.910356","606981.71575","610864.884092","611614.757253","597815.17198","598581.629861","599348.726805","600098.285537","600865.178117","601631.470281","610873.755845","Mapping"
"Mixed","Both","tile","32","m160tile.wav","None","734.7783515","132","610098.514325","602398.336581","603165.041184","603932.177393","604681.525267","605448.268207","606214.910356","606981.71575","610864.884092","611614.757253","612381.246361","598581.629861","599348.726805","600098.285537","600865.178117","601631.470281","611623.873872","Mapping"
"Mixed","Both","tile","32","m150jolt.wav","space","427.558176569","132","610098.514325","602398.336581","603165.041184","603932.177393","604681.525267","605448.268207","606214.910356","606981.71575","610864.884092","611614.757253","612381.246361","613148.244061","599348.726805","600098.285537","600865.178117","601631.470281","612390.34783","Mapping"
"Mixed","Both","tile","32","m150jaw.wav","None","728.317848407","132","610098.514325","602398.336581","603165.041184","603932.177393","604681.525267","605448.268207","606214.910356","606981.71575","610864.884092","611614.757253","612381.246361","613148.244061","613914.907852","600098.285537","600865.178117","601631.470281","613157.747765","Mapping"
"Mixed","Both","tile","32","m160jolt.wav","None","726.020375267","132","610098.514325","602398.336581","603165.041184","603932.177393","604681.525267","605448.268207","606214.910356","606981.71575","610864.884092","611614.757253","612381.246361","613148.244061","613914.907852","614682.014381","600865.178117","601631.470281","613924.187405","Mapping"
"Mixed","Both","tile","32","m150ball.wav","None","722.30317432","132","610098.514325","602398.336581","603165.041184","603932.177393","604681.525267","605448.268207","606214.910356","606981.71575","610864.884092","611614.757253","612381.246361","613148.244061","613914.907852","614682.014381","615448.8139","601631.470281","614692.121902","Mapping"
"Mixed","Both","tile","32","m160cave.wav","None","720.037236926","132","610098.514325","602398.336581","603165.041184","603932.177393","604681.525267","605448.268207","606214.910356","606981.71575","610864.884092","611614.757253","612381.246361","613148.244061","613914.907852","614682.014381","615448.8139","616198.10705","615458.619049","Mapping"
"Mixed","Both","tile","32","m150tile.wav","None","735.330845695","132","610098.514325","616964.817527","603165.041184","603932.177393","604681.525267","605448.268207","606214.910356","606981.71575","610864.884092","611614.757253","612381.246361","613148.244061","613914.907852","614682.014381","615448.8139","616198.10705","616207.654348","Mapping"
"Mixed","Both","tile","32","m150priest.wav","space","371.670928667","132","610098.514325","616964.817527","617731.544081","603932.177393","604681.525267","605448.268207","606214.910356","606981.71575","610864.884092","611614.757253","612381.246361","613148.244061","613914.907852","614682.014381","615448.8139","616198.10705","616974.171591","Mapping"
"Mixed","Both","tile","32","m160cave.wav","None","729.594737641","132","610098.514325","616964.817527","617731.544081","618498.205399","604681.525267","605448.268207","606214.910356","606981.71575","610864.884092","611614.757253","612381.246361","613148.244061","613914.907852","614682.014381","615448.8139","616198.10705","617740.642767","Mapping"
"Mixed","Both","tile","32","m150bluff.wav","None","726.665312541","132","610098.514325","616964.817527","617731.544081","618498.205399","619264.553214","605448.268207","606214.910356","606981.71575","610864.884092","611614.757253","612381.246361","613148.244061","613914.907852","614682.014381","615448.8139","616198.10705","618507.989524","Mapping"
"Mixed","Both","tile","32","m150tile.wav","None","731.416700874","132","610098.514325","616964.817527","617731.544081","618498.205399","619264.553214","620031.285333","606214.910356","606981.71575","610864.884092","611614.757253","612381.246361","613148.244061","613914.907852","614682.014381","615448.8139","616198.10705","619268.198996","Mapping"
"Mixed","Both","tile","32","m160dime.wav","space","473.125809454","132","610098.514325","616964.817527","617731.544081","618498.205399","619264.553214","620031.285333","620780.972371","606981.71575","610864.884092","611614.757253","612381.246361","613148.244061","613914.907852","614682.014381","615448.8139","616198.10705","620040.69443","Mapping"
"Mixed","Both","tile","32","m150ball.wav","None","736.913508154","132","610098.514325","616964.817527","617731.544081","618498.205399","619264.553214","620031.285333","620780.972371","621547.829087","610864.884092","611614.757253","612381.246361","613148.244061","613914.907852","614682.014381","615448.8139","616198.10705","620790.114342","Mapping"
"Mixed","Both","ball","1","m150cad.wav","None","734.445680166","132","624664.822134","616964.817527","617731.544081","618498.205399","619264.553214","620031.285333","620780.972371","621547.829087","610864.884092","611614.757253","612381.246361","613148.244061","613914.907852","614682.014381","615448.8139","616198.10705","621556.873668","Mapping"
"Mixed","Both","ball","1","m160ball.wav","None","737.395510776","132","624664.822134","616964.817527","617731.544081","618498.205399","619264.553214","620031.285333","620780.972371","621547.829087","625431.292691","611614.757253","612381.246361","613148.244061","613914.907852","614682.014381","615448.8139","616198.10705","624674.141261","Mapping"
"Mixed","Both","ball","1","m150jolt.wav","space","345.054434845","132","624664.822134","616964.817527","617731.544081","618498.205399","619264.553214","620031.285333","620780.972371","621547.829087","625431.292691","626198.03223","612381.246361","613148.244061","613914.907852","614682.014381","615448.8139","616198.10705","625440.623876","Mapping"
"Mixed","Both","ball","1","m150jolt.wav","None","731.415773393","132","624664.822134","616964.817527","617731.544081","618498.205399","619264.553214","620031.285333","620780.972371","621547.829087","625431.292691","626198.03223","626964.526594","613148.244061","613914.907852","614682.014381","615448.8139","616198.10705","626207.542427","Mapping"
"Mixed","Both","ball","1","m150depth.wav","None","729.908549343","132","624664.822134","616964.817527","617731.544081","618498.205399","619264.553214","620031.285333","620780.972371","621547.829087","625431.292691","626198.03223","626964.526594","627731.416083","613914.907852","614682.014381","615448.8139","616198.10705","626973.534692","Mapping"
"Mixed","Both","ball","1","m160cave.wav","None","727.198019624","132","624664.822134","616964.817527","617731.544081","618498.205399","619264.553214","620031.285333","620780.972371","621547.829087","625431.292691","626198.03223","626964.526594","627731.416083","628498.038135","614682.014381","615448.8139","616198.10705","627740.521571","Mapping"
"Mixed","Both","ball","1","m160depth.wav","None","724.71195017","132","624664.822134","616964.817527","617731.544081","618498.205399","619264.553214","620031.285333","620780.972371","621547.829087","625431.292691","626198.03223","626964.526594","627731.416083","628498.038135","629264.642874","615448.8139","616198.10705","628507.389108","Mapping"
"Mixed","Both","ball","1","m150done.wav","None","726.211444824","132","624664.822134","616964.817527","617731.544081","618498.205399","619264.553214","620031.285333","620780.972371","621547.829087","625431.292691","626198.03223","626964.526594","627731.416083","628498.038135","629264.642874","630031.804127","616198.10705","629273.936031","Mapping"
"Mixed","Both","ball","1","m150tile.wav","None","722.776210867","132","624664.822134","616964.817527","617731.544081","618498.205399","619264.553214","620031.285333","620780.972371","621547.829087","625431.292691","626198.03223","626964.526594","627731.416083","628498.038135","629264.642874","630031.804127","630797.94325","630041.834046","Mapping"
"Mixed","Both","ball","1","m160priest.wav","None","721.866620355","132","624664.822134","631547.510329","617731.544081","618498.205399","619264.553214","620031.285333","620780.972371","621547.829087","625431.292691","626198.03223","626964.526594","627731.416083","628498.038135","629264.642874","630031.804127","630797.94325","630807.125722","Mapping"
"Mixed","Both","ball","1","m150ball.wav","None","737.087882473","132","624664.822134","631547.510329","632314.589959","618498.205399","619264.553214","620031.285333","620780.972371","621547.829087","625431.292691","626198.03223","626964.526594","627731.416083","628498.038135","629264.642874","630031.804127","630797.94325","631556.187301","Mapping"
"Mixed","Both","ball","1","m160cad.wav","space","381.656017154","132","624664.822134","631547.510329","632314.589959","633081.247876","619264.553214","620031.285333","620780.972371","621547.829087","625431.292691","626198.03223","626964.526594","627731.416083","628498.038135","629264.642874","630031.804127","630797.94325","632323.941241","Mapping"
"Mixed","Both","ball","1","m150ball.wav","None","729.440768948","132","624664.822134","631547.510329","632314.589959","633081.247876","633847.927745","620031.285333","620780.972371","621547.829087","625431.292691","626198.03223","626964.526594","627731.416083","628498.038135","629264.642874","630031.804127","630797.94325","633091.07374","Mapping"
"Mixed","Both","ball","1","m160bluff.wav","space","720.104327775","132","624664.822134","631547.510329","632314.589959","633081.247876","633847.927745","634615.034892","620780.972371","621547.829087","625431.292691","626198.03223","626964.526594","627731.416083","628498.038135","629264.642874","630031.804127","630797.94325","633857.490192","Mapping"
"Mixed","Both","ball","1","m160ball.wav","None","723.341690376","132","624664.822134","631547.510329","632314.589959","633081.247876","633847.927745","634615.034892","635381.841522","621547.829087","625431.292691","626198.03223","626964.526594","627731.416083","628498.038135","629264.642874","630031.804127","630797.94325","634624.399159","Mapping"
"Mixed","Both","ball","1","m160jolt.wav","space","521.942553576","132","624664.822134","631547.510329","632314.589959","633081.247876","633847.927745","634615.034892","635381.841522","636131.295752","625431.292691","626198.03223","626964.526594","627731.416083","628498.038135","629264.642874","630031.804127","630797.94325","635391.625338","Mapping"
"Mixed","Both","cave","19","m150reek.wav","None","733.53887233","132","639264.821886","631547.510329","632314.589959","633081.247876","633847.927745","634615.034892","635381.841522","636131.295752","625431.292691","626198.03223","626964.526594","627731.416083","628498.038135","629264.642874","630031.804127","630797.94325","636141.564972","Mapping"
"Mixed","Both","cave","19","m150cave.wav","None","720.468225772","132","639264.821886","631547.510329","632314.589959","633081.247876","633847.927745","634615.034892","635381.841522","636131.295752","640014.312908","626198.03223","626964.526594","627731.416083","628498.038135","629264.642874","630031.804127","630797.94325","639274.391445","Mapping"
"Mixed","Both","cave","19","m150tile.wav","space","513.77757336","132","639264.821886","631547.510329","632314.589959","633081.247876","633847.927745","634615.034892","635381.841522","636131.295752","640014.312908","640780.882092","626964.526594","627731.416083","628498.038135","629264.642874","630031.804127","630797.94325","640023.72015","Mapping"
"Mixed","Both","cave","19","m160cave.wav","None","732.331237989","132","639264.821886","631547.510329","632314.589959","633081.247876","633847.927745","634615.034892","635381.841522","636131.295752","640014.312908","640780.882092","641547.751794","627731.416083","628498.038135","629264.642874","630031.804127","630797.94325","640790.020662","Mapping"
"Mixed","Both","cave","19","m150cad.wav","space","371.918268036","132","639264.821886","631547.510329","632314.589959","633081.247876","633847.927745","634615.034892","635381.841522","636131.295752","640014.312908","640780.882092","641547.751794","642314.42115","628498.038135","629264.642874","630031.804127","630797.94325","641557.550759","Mapping"
"Mixed","Both","cave","19","m160reek.wav","None","725.518276333","132","639264.821886","631547.510329","632314.589959","633081.247876","633847.927745","634615.034892","635381.841522","636131.295752","640014.312908","640780.882092","641547.751794","642314.42115","643081.011667","629264.642874","630031.804127","630797.94325","642323.90043","Mapping"
"Mixed","Both","cave","19","m150romp.wav","None","723.825238645","132","639264.821886","631547.510329","632314.589959","633081.247876","633847.927745","634615.034892","635381.841522","636131.295752","640014.312908","640780.882092","641547.751794","642314.42115","643081.011667","643830.921929","630031.804127","630797.94325","643089.961332","Mapping"
"Mixed","Both","cave","19","m160cave.wav","None","737.933473778","132","639264.821886","631547.510329","632314.589959","633081.247876","633847.927745","634615.034892","635381.841522","636131.295752","640014.312908","640780.882092","641547.751794","642314.42115","643081.011667","643830.921929","644597.564388","630797.94325","643840.159126","Mapping"
"Mixed","Both","cave","19","m150knife.wav","space","419.023424038","132","639264.821886","631547.510329","632314.589959","633081.247876","633847.927745","634615.034892","635381.841522","636131.295752","640014.312908","640780.882092","641547.751794","642314.42115","643081.011667","643830.921929","644597.564388","645364.514474","644606.386054","Mapping"
"Mixed","Both","cave","19","m160lash.wav","None","731.133188121","132","639264.821886","646131.208565","632314.589959","633081.247876","633847.927745","634615.034892","635381.841522","636131.295752","640014.312908","640780.882092","641547.751794","642314.42115","643081.011667","643830.921929","644597.564388","645364.514474","645374.190698","Mapping"
"Mixed","Both","cave","19","m160done.wav","None","728.985664551","132","639264.821886","646131.208565","646897.697673","633081.247876","633847.927745","634615.034892","635381.841522","636131.295752","640014.312908","640780.882092","641547.751794","642314.42115","643081.011667","643830.921929","644597.564388","645364.514474","646140.625082","Mapping"
"Mixed","Both","cave","19","m160tile.wav","None","726.709524402","132","639264.821886","646131.208565","646897.697673","647664.472767","633847.927745","634615.034892","635381.841522","636131.295752","640014.312908","640780.882092","641547.751794","642314.42115","643081.011667","643830.921929","644597.564388","645364.514474","646907.270632","Mapping"
"Mixed","Both","cave","19","m150cave.wav","None","724.129156908","132","639264.821886","646131.208565","646897.697673","647664.472767","648431.366275","634615.034892","635381.841522","636131.295752","640014.312908","640780.882092","641547.751794","642314.42115","643081.011667","643830.921929","644597.564388","645364.514474","647674.243598","Mapping"
"Mixed","Both","cave","19","m160priest.wav","None","721.344734426","132","639264.821886","646131.208565","646897.697673","647664.472767","648431.366275","649180.734864","635381.841522","636131.295752","640014.312908","640780.882092","641547.751794","642314.42115","643081.011667","643830.921929","644597.564388","645364.514474","648441.384754","Mapping"
"Mixed","Both","cave","19","m150jaw.wav","space","0.0336999073625","132","639264.821886","646131.208565","646897.697673","647664.472767","648431.366275","649180.734864","649947.593744","636131.295752","640014.312908","640780.882092","641547.751794","642314.42115","643081.011667","643830.921929","644597.564388","645364.514474","649190.422836","Mapping"
"Mixed","Both","cave","19","m160tile.wav","None","725.158706773","132","639264.821886","646131.208565","646897.697673","647664.472767","648431.366275","649180.734864","649947.593744","650714.309167","640014.312908","640780.882092","641547.751794","642314.42115","643081.011667","643830.921929","644597.564388","645364.514474","649964.830203","Mapping"
"Mixed","Both","ball","2","m160cave.wav","None","730.105184135","132","653830.659441","646131.208565","646897.697673","647664.472767","648431.366275","649180.734864","649947.593744","650714.309167","640014.312908","640780.882092","641547.751794","642314.42115","643081.011667","643830.921929","644597.564388","645364.514474","650724.24386","Mapping"
"Mixed","Both","ball","2","m150greet.wav","None","736.943498137","132","653830.659441","646131.208565","646897.697673","647664.472767","648431.366275","649180.734864","649947.593744","650714.309167","654597.369917","640780.882092","641547.751794","642314.42115","643081.011667","643830.921929","644597.564388","645364.514474","653840.271974","Mapping"
"Mixed","Both","ball","2","m150ball.wav","None","734.84235059","132","653830.659441","646131.208565","646897.697673","647664.472767","648431.366275","649180.734864","649947.593744","650714.309167","654597.369917","655364.346593","641547.751794","642314.42115","643081.011667","643830.921929","644597.564388","645364.514474","654606.686262","Mapping"
"Mixed","Both","ball","2","m160priest.wav","space","530.894691357","132","653830.659441","646131.208565","646897.697673","647664.472767","648431.366275","649180.734864","649947.593744","650714.309167","654597.369917","655364.346593","656131.068818","642314.42115","643081.011667","643830.921929","644597.564388","645364.514474","655374.380222","Mapping"
"Mixed","Both","ball","2","m160ball.wav","None","727.562226704","132","653830.659441","646131.208565","646897.697673","647664.472767","648431.366275","649180.734864","649947.593744","650714.309167","654597.369917","655364.346593","656131.068818","656897.546487","643081.011667","643830.921929","644597.564388","645364.514474","656141.304338","Mapping"
"Mixed","Both","ball","2","m160done.wav","space","326.001577429","132","653830.659441","646131.208565","646897.697673","647664.472767","648431.366275","649180.734864","649947.593744","650714.309167","654597.369917","655364.346593","656131.068818","656897.546487","657664.598292","643830.921929","644597.564388","645364.514474","656907.235077","Mapping"
"Mixed","Both","ball","2","m150priest.wav","None","721.723163617","132","653830.659441","646131.208565","646897.697673","647664.472767","648431.366275","649180.734864","649947.593744","650714.309167","654597.369917","655364.346593","656131.068818","656897.546487","657664.598292","658413.861143","644597.564388","645364.514474","657674.642742","Mapping"
"Mixed","Both","ball","2","m150ball.wav","None","737.865764648","132","653830.659441","646131.208565","646897.697673","647664.472767","648431.366275","649180.734864","649947.593744","650714.309167","654597.369917","655364.346593","656131.068818","656897.546487","657664.598292","658413.861143","659180.487834","645364.514474","658423.088755","Mapping"
"Mixed","Both","ball","2","m150jaw.wav","space","442.925368785","132","653830.659441","646131.208565","646897.697673","647664.472767","648431.366275","649180.734864","649947.593744","650714.309167","654597.369917","655364.346593","656131.068818","656897.546487","657664.598292","658413.861143","659180.487834","659947.484915","659190.28278","Mapping"
"Mixed","Both","ball","2","m160ball.wav","None","731.668987079","132","653830.659441","660714.233111","646897.697673","647664.472767","648431.366275","649180.734864","649947.593744","650714.309167","654597.369917","655364.346593","656131.068818","656897.546487","657664.598292","658413.861143","659180.487834","659947.484915","659957.089719","Mapping"
"Mixed","Both","ball","2","m160lash.wav","None","729.794154991","132","653830.659441","660714.233111","661480.522801","647664.472767","648431.366275","649180.734864","649947.593744","650714.309167","654597.369917","655364.346593","656131.068818","656897.546487","657664.598292","658413.861143","659180.487834","659947.484915","660723.705279","Mapping"
"Mixed","Both","ball","2","m160park.wav","space","31.3304722076","132","653830.659441","660714.233111","661480.522801","662247.410744","648431.366275","649180.734864","649947.593744","650714.309167","654597.369917","655364.346593","656131.068818","656897.546487","657664.598292","658413.861143","659180.487834","659947.484915","661489.858624","Mapping"
"Mixed","Both","ball","2","m150tile.wav","None","724.489653949","132","653830.659441","660714.233111","661480.522801","662247.410744","663014.318164","649180.734864","649947.593744","650714.309167","654597.369917","655364.346593","656131.068818","656897.546487","657664.598292","658413.861143","659180.487834","659947.484915","662256.496445","Mapping"
"Mixed","Both","ball","2","m160cling.wav","None","721.685444354","132","653830.659441","660714.233111","661480.522801","662247.410744","663014.318164","663764.076313","649947.593744","650714.309167","654597.369917","655364.346593","656131.068818","656897.546487","657664.598292","658413.861143","659180.487834","659947.484915","663023.864844","Mapping"
"Mixed","Both","ball","2","m150jaw.wav","None","736.226523295","132","653830.659441","660714.233111","661480.522801","662247.410744","663014.318164","663764.076313","664530.729592","650714.309167","654597.369917","655364.346593","656131.068818","656897.546487","657664.598292","658413.861143","659180.487834","659947.484915","663773.913616","Mapping"
"Mixed","Both","ball","2","m150greet.wav","None","734.026439954","132","653830.659441","660714.233111","661480.522801","662247.410744","663014.318164","663764.076313","664530.729592","665297.472223","654597.369917","655364.346593","656131.068818","656897.546487","657664.598292","658413.861143","659180.487834","659947.484915","664540.638933","Mapping"
"Mixed","Both","done","43","m150knife.wav","None","731.71443562","132","668431.015362","660714.233111","661480.522801","662247.410744","663014.318164","663764.076313","664530.729592","665297.472223","654597.369917","655364.346593","656131.068818","656897.546487","657664.598292","658413.861143","659180.487834","659947.484915","665307.529349","Mapping"
"Mixed","Both","done","43","m150gnash.wav","None","719.713531551","132","668431.015362","660714.233111","661480.522801","662247.410744","663014.318164","663764.076313","664530.729592","665297.472223","669180.591098","655364.346593","656131.068818","656897.546487","657664.598292","658413.861143","659180.487834","659947.484915","668441.50966","Mapping"
"Mixed","Both","done","43","m160done.wav","None","734.948397265","132","668431.015362","660714.233111","661480.522801","662247.410744","663014.318164","663764.076313","664530.729592","665297.472223","669180.591098","669947.153171","656131.068818","656897.546487","657664.598292","658413.861143","659180.487834","659947.484915","669190.870829","Mapping"
"Mixed","Both","done","43","m160tile.wav","space","324.669964262","132","668431.015362","660714.233111","661480.522801","662247.410744","663014.318164","663764.076313","664530.729592","665297.472223","669180.591098","669947.153171","670714.054099","656897.546487","657664.598292","658413.861143","659180.487834","659947.484915","669956.374908","Mapping"
"Mixed","Both","done","43","m160greet.wav","None","729.510951438","132","668431.015362","660714.233111","661480.522801","662247.410744","663014.318164","663764.076313","664530.729592","665297.472223","669180.591098","669947.153171","670714.054099","671480.678625","657664.598292","658413.861143","659180.487834","659947.484915","670723.963749","Mapping"
"Mixed","Both","done","43","m150done.wav","None","727.54553135","132","668431.015362","660714.233111","661480.522801","662247.410744","663014.318164","663764.076313","664530.729592","665297.472223","669180.591098","669947.153171","670714.054099","671480.678625","672247.334378","658413.861143","659180.487834","659947.484915","671490.472953","Mapping"
"Mixed","Both","done","43","m160dime.wav","space","455.733217299","132","668431.015362","660714.233111","661480.522801","662247.410744","663014.318164","663764.076313","664530.729592","665297.472223","669180.591098","669947.153171","670714.054099","671480.678625","672247.334378","673014.120293","659180.487834","659947.484915","672257.275564","Mapping"
"Mixed","Both","done","43","m160depth.wav","None","721.665657242","132","668431.015362","660714.233111","661480.522801","662247.410744","663014.318164","663764.076313","664530.729592","665297.472223","669180.591098","669947.153171","670714.054099","671480.678625","672247.334378","673014.120293","673763.629556","659947.484915","673024.046947","Mapping"
"Mixed","Both","done","43","m160done.wav","None","736.387293902","132","668431.015362","660714.233111","661480.522801","662247.410744","663014.318164","663764.076313","664530.729592","665297.472223","669180.591098","669947.153171","670714.054099","671480.678625","672247.334378","673014.120293","673763.629556","674530.595102","673773.841269","Mapping"
"Mixed","Both","done","43","m160park.wav","space","364.613410202","132","668431.015362","675297.27868","661480.522801","662247.410744","663014.318164","663764.076313","664530.729592","665297.472223","669180.591098","669947.153171","670714.054099","671480.678625","672247.334378","673014.120293","673763.629556","674530.595102","674540.360676","Mapping"
"Mixed","Both","done","43","m150done.wav","None","730.824323255","132","668431.015362","675297.27868","676063.754184","662247.410744","663014.318164","663764.076313","664530.729592","665297.472223","669180.591098","669947.153171","670714.054099","671480.678625","672247.334378","673014.120293","673763.629556","674530.595102","675306.986748","Mapping"
"Mixed","Both","done","43","m150priest.wav","None","732.728217612","132","668431.015362","675297.27868","676063.754184","676830.626668","663014.318164","663764.076313","664530.729592","665297.472223","669180.591098","669947.153171","670714.054099","671480.678625","672247.334378","673014.120293","673763.629556","674530.595102","676072.940367","Mapping"
"Mixed","Both","done","43","m160park.wav","space","296.206773259","132","668431.015362","675297.27868","676063.754184","676830.626668","677597.276238","663764.076313","664530.729592","665297.472223","669180.591098","669947.153171","670714.054099","671480.678625","672247.334378","673014.120293","673763.629556","674530.595102","676840.736354","Mapping"
"Mixed","Both","done","43","m150reek.wav","None","726.103543071","132","668431.015362","675297.27868","676063.754184","676830.626668","677597.276238","678363.916222","664530.729592","665297.472223","669180.591098","669947.153171","670714.054099","671480.678625","672247.334378","673014.120293","673763.629556","674530.595102","677606.900211","Mapping"
"Mixed","Both","done","43","m150cad.wav","None","723.734341562","132","668431.015362","675297.27868","676063.754184","676830.626668","677597.276238","678363.916222","679130.58156","665297.472223","669180.591098","669947.153171","670714.054099","671480.678625","672247.334378","673014.120293","673763.629556","674530.595102","678373.709005","Mapping"
"Mixed","Both","done","43","m150dime.wav","None","721.6263921","132","668431.015362","675297.27868","676063.754184","676830.626668","677597.276238","678363.916222","679130.58156","679880.303535","669180.591098","669947.153171","670714.054099","671480.678625","672247.334378","673014.120293","673763.629556","674530.595102","679140.417935","Mapping"
"Mixed","Both","done","37","m160dime.wav","None","735.918585793","132","682997.162709","675297.27868","676063.754184","676830.626668","677597.276238","678363.916222","679130.58156","679880.303535","669180.591098","669947.153171","670714.054099","671480.678625","672247.334378","673014.120293","673763.629556","674530.595102","679890.628097","Mapping"
"Mixed","Both","done","37","m160done.wav","None","736.958029331","132","682997.162709","675297.27868","676063.754184","676830.626668","677597.276238","678363.916222","679130.58156","679880.303535","683763.733748","669947.153171","670714.054099","671480.678625","672247.334378","673014.120293","673763.629556","674530.595102","683006.782972","Mapping"
"Mixed","Both","done","37","m160cling.wav","space","355.397546897","132","682997.162709","675297.27868","676063.754184","676830.626668","677597.276238","678363.916222","679130.58156","679880.303535","683763.733748","684530.209871","670714.054099","671480.678625","672247.334378","673014.120293","673763.629556","674530.595102","683773.452328","Mapping"
"Mixed","Both","done","37","m160greet.wav","None","732.132129837","132","682997.162709","675297.27868","676063.754184","676830.626668","677597.276238","678363.916222","679130.58156","679880.303535","683763.733748","684530.209871","685296.913545","671480.678625","672247.334378","673014.120293","673763.629556","674530.595102","684539.317832","Mapping"
"Mixed","Both","done","37","m150ball.wav","None","730.467845453","132","682997.162709","675297.27868","676063.754184","676830.626668","677597.276238","678363.916222","679130.58156","679880.303535","683763.733748","684530.209871","685296.913545","686063.598361","672247.334378","673014.120293","673763.629556","674530.595102","685305.915769","Mapping"
"Mixed","Both","done","37","m160park.wav","None","728.344128118","132","682997.162709","675297.27868","676063.754184","676830.626668","677597.276238","678363.916222","679130.58156","679880.303535","683763.733748","684530.209871","685296.913545","686063.598361","686830.203409","673014.120293","673763.629556","674530.595102","686072.696119","Mapping"
"Mixed","Both","done","37","m150romp.wav","None","726.219483418","132","682997.162709","675297.27868","676063.754184","676830.626668","677597.276238","678363.916222","679130.58156","679880.303535","683763.733748","684530.209871","685296.913545","686063.598361","686830.203409","687597.483693","673763.629556","674530.595102","686839.390828","Mapping"
"Mixed","Both","done","37","m150done.wav","None","722.467654967","132","682997.162709","675297.27868","676063.754184","676830.626668","677597.276238","678363.916222","679130.58156","679880.303535","683763.733748","684530.209871","685296.913545","686063.598361","686830.203409","687597.483693","688363.98084","674530.595102","687607.653359","Mapping"
"Mixed","Both","done","37","m160cave.wav","space","362.746925792","132","682997.162709","675297.27868","676063.754184","676830.626668","677597.276238","678363.916222","679130.58156","679880.303535","683763.733748","684530.209871","685296.913545","686063.598361","686830.203409","687597.483693","688363.98084","689113.57729","688374.044768","Mapping"
"Mixed","Both","done","37","m160done.wav","None","734.965401818","132","682997.162709","689880.120504","676063.754184","676830.626668","677597.276238","678363.916222","679130.58156","679880.303535","683763.733748","684530.209871","685296.913545","686063.598361","686830.203409","687597.483693","688363.98084","689113.57729","689122.888688","Mapping"
"Mixed","Both","done","37","m160cave.wav","space","423.534274916","132","682997.162709","689880.120504","690646.851077","676830.626668","677597.276238","678363.916222","679130.58156","679880.303535","683763.733748","684530.209871","685296.913545","686063.598361","686830.203409","687597.483693","688363.98084","689113.57729","689889.223518","Mapping"
"Mixed","Both","done","37","m150tile.wav","None","729.624727508","132","682997.162709","689880.120504","690646.851077","691413.505593","677597.276238","678363.916222","679130.58156","679880.303535","683763.733748","684530.209871","685296.913545","686063.598361","686830.203409","687597.483693","688363.98084","689113.57729","690655.912044","Mapping"
"Mixed","Both","done","37","m150jaw.wav","None","727.187816869","132","682997.162709","689880.120504","690646.851077","691413.505593","692180.059009","678363.916222","679130.58156","679880.303535","683763.733748","684530.209871","685296.913545","686063.598361","686830.203409","687597.483693","688363.98084","689113.57729","691423.117508","Mapping"
"Mixed","Both","done","37","m150done.wav","None","725.363998441","132","682997.162709","689880.120504","690646.851077","691413.505593","692180.059009","692947.334656","679130.58156","679880.303535","683763.733748","684530.209871","685296.913545","686063.598361","686830.203409","687597.483693","688363.98084","689113.57729","692189.621147","Mapping"
