"Condition","Talker","Target","Trial","current_stimulus","response_response","response_time_response","subject_nr","time_Audio1","time_Audio10","time_Audio11","time_Audio12","time_Audio13","time_Audio14","time_Audio15","time_Audio16","time_Audio2","time_Audio3","time_Audio4","time_Audio5","time_Audio6","time_Audio7","time_Audio8","time_Audio9","time_response","title"
"Mixed","Both","cave","24","m160dime.wav","NA","NA","155","133116.991191","NA","NA","NA","NA","NA","NA","NA","NA","NA","NA","NA","NA","NA","NA","NA","NA","Mapping"
"Mixed","Both","cave","24","m150dime.wav","None","717.926195823","155","133116.991191","NA","NA","NA","NA","NA","NA","NA","133883.956737","NA","NA","NA","NA","NA","NA","NA","133132.12372","Mapping"
"Mixed","Both","cave","24","m150reek.wav","None","722.987376736","155","133116.991191","NA","NA","NA","NA","NA","NA","NA","133883.956737","134649.706609","NA","NA","NA","NA","NA","NA","133893.610081","Mapping"
"Mixed","Both","cave","24","m160greet.wav","None","724.997936282","155","133116.991191","NA","NA","NA","NA","NA","NA","NA","133883.956737","134649.706609","135416.32557","NA","NA","NA","NA","NA","134659.207531","Mapping"
"Mixed","Both","cave","24","m160ball.wav","None","724.341559573","155","133116.991191","NA","NA","NA","NA","NA","NA","NA","133883.956737","134649.706609","135416.32557","136183.42808","NA","NA","NA","NA","135426.460608","Mapping"
"Mixed","Both","cave","24","m150reek.wav","None","724.315279745","155","133116.991191","NA","NA","NA","NA","NA","NA","NA","133883.956737","134649.706609","135416.32557","136183.42808","136950.561816","NA","NA","NA","136193.051125","Mapping"
"Mixed","Both","cave","24","m160greet.wav","None","719.844003092","155","133116.991191","NA","NA","NA","NA","NA","NA","NA","133883.956737","134649.706609","135416.32557","136183.42808","136950.561816","137699.644728","NA","NA","136960.669647","Mapping"
"Mixed","Both","cave","24","m150cave.wav","None","734.923045035","155","133116.991191","NA","NA","NA","NA","NA","NA","NA","133883.956737","134649.706609","135416.32557","136183.42808","136950.561816","137699.644728","138466.216385","NA","137708.808341","Mapping"
"Mixed","Both","cave","24","m150jolt.wav","space","397.240249556","155","133116.991191","NA","NA","NA","NA","NA","NA","NA","133883.956737","134649.706609","135416.32557","136183.42808","136950.561816","137699.644728","138466.216385","139233.117004","138475.528402","Mapping"
"Mixed","Both","cave","24","m160park.wav","None","733.65481256","155","133116.991191","139999.943421","NA","NA","NA","NA","NA","NA","133883.956737","134649.706609","135416.32557","136183.42808","136950.561816","137699.644728","138466.216385","139233.117004","139243.122498","Mapping"
"Mixed","Both","cave","24","m150cave.wav","None","734.416617663","155","133116.991191","139999.943421","140766.607212","NA","NA","NA","NA","NA","133883.956737","134649.706609","135416.32557","136183.42808","136950.561816","137699.644728","138466.216385","139233.117004","140009.536168","Mapping"
"Mixed","Both","cave","24","m150cad.wav","space","448.537498014","155","133116.991191","139999.943421","140766.607212","141533.477841","NA","NA","NA","NA","133883.956737","134649.706609","135416.32557","136183.42808","136950.561816","137699.644728","138466.216385","139233.117004","140776.166568","Mapping"
"Mixed","Both","cave","24","m160cave.wav","None","731.387020205","155","133116.991191","139999.943421","140766.607212","141533.477841","142300.124319","NA","NA","NA","133883.956737","134649.706609","135416.32557","136183.42808","136950.561816","137699.644728","138466.216385","139233.117004","141542.844272","Mapping"
"Mixed","Both","cave","24","m160done.wav","space","394.56620242","155","133116.991191","139999.943421","140766.607212","141533.477841","142300.124319","143067.190964","NA","NA","133883.956737","134649.706609","135416.32557","136183.42808","136950.561816","137699.644728","138466.216385","139233.117004","142310.114354","Mapping"
"Mixed","Both","cave","24","m160cave.wav","None","730.457333499","155","133116.991191","139999.943421","140766.607212","141533.477841","142300.124319","143067.190964","143833.462414","NA","133883.956737","134649.706609","135416.32557","136183.42808","136950.561816","137699.644728","138466.216385","139233.117004","143076.583057","Mapping"
"Mixed","Both","cave","24","m150gnash.wav","space","429.485877394","155","133116.991191","139999.943421","140766.607212","141533.477841","142300.124319","143067.190964","143833.462414","144600.11693","133883.956737","134649.706609","135416.32557","136183.42808","136950.561816","137699.644728","138466.216385","139233.117004","143843.192743","Mapping"
"Mixed","Both","done","37","m150tile.wav","None","727.183179231","155","147750.329502","139999.943421","140766.607212","141533.477841","142300.124319","143067.190964","143833.462414","144600.11693","133883.956737","134649.706609","135416.32557","136183.42808","136950.561816","137699.644728","138466.216385","139233.117004","144609.666392","Mapping"
"Mixed","Both","done","37","m150done.wav","None","723.333342583","155","147750.329502","139999.943421","140766.607212","141533.477841","142300.124319","143067.190964","143833.462414","144600.11693","148517.064713","134649.706609","135416.32557","136183.42808","136950.561816","137699.644728","138466.216385","139233.117004","147760.032006","Mapping"
"Mixed","Both","done","37","m160tile.wav","space","329.546568217","155","147750.329502","139999.943421","140766.607212","141533.477841","142300.124319","143067.190964","143833.462414","144600.11693","148517.064713","149283.750147","135416.32557","136183.42808","136950.561816","137699.644728","138466.216385","139233.117004","148527.061241","Mapping"
"Mixed","Both","done","37","m160ball.wav","None","723.498132429","155","147750.329502","139999.943421","140766.607212","141533.477841","142300.124319","143067.190964","143833.462414","144600.11693","148517.064713","149283.750147","150050.999205","136183.42808","136950.561816","137699.644728","138466.216385","139233.117004","149293.444611","Mapping"
"Mixed","Both","done","37","m150done.wav","None","720.110511174","155","147750.329502","139999.943421","140766.607212","141533.477841","142300.124319","143067.190964","143833.462414","144600.11693","148517.064713","149283.750147","150050.999205","150799.605679","136950.561816","137699.644728","138466.216385","139233.117004","150060.364399","Mapping"
"Mixed","Both","done","37","m160greet.wav","space","328.085411224","155","147750.329502","139999.943421","140766.607212","141533.477841","142300.124319","143067.190964","143833.462414","144600.11693","148517.064713","149283.750147","150050.999205","150799.605679","151566.634605","137699.644728","138466.216385","139233.117004","150808.465683","Mapping"
"Mixed","Both","done","37","m160done.wav","None","731.209245045","155","147750.329502","139999.943421","140766.607212","141533.477841","142300.124319","143067.190964","143833.462414","144600.11693","148517.064713","149283.750147","150050.999205","150799.605679","151566.634605","152333.162669","138466.216385","139233.117004","151575.965172","Mapping"
"Mixed","Both","done","37","m160knife.wav","space","402.274841559","155","147750.329502","139999.943421","140766.607212","141533.477841","142300.124319","143067.190964","143833.462414","144600.11693","148517.064713","149283.750147","150050.999205","150799.605679","151566.634605","152333.162669","153099.749476","139233.117004","152342.283307","Mapping"
"Mixed","Both","done","37","m150cad.wav","None","733.754366753","155","147750.329502","139999.943421","140766.607212","141533.477841","142300.124319","143067.190964","143833.462414","144600.11693","148517.064713","149283.750147","150050.999205","150799.605679","151566.634605","152333.162669","153099.749476","153866.432746","153103.301578","Mapping"
"Mixed","Both","done","37","m150reek.wav","None","724.812122528","155","147750.329502","154633.710557","140766.607212","141533.477841","142300.124319","143067.190964","143833.462414","144600.11693","148517.064713","149283.750147","150050.999205","150799.605679","151566.634605","152333.162669","153099.749476","153866.432746","153875.813708","Mapping"
"Mixed","Both","done","37","m150tile.wav","None","720.547374221","155","147750.329502","154633.710557","155400.210795","141533.477841","142300.124319","143067.190964","143833.462414","144600.11693","148517.064713","149283.750147","150050.999205","150799.605679","151566.634605","152333.162669","153099.749476","153866.432746","154643.446451","Mapping"
"Mixed","Both","done","37","m150reek.wav","None","717.189433868","155","147750.329502","154633.710557","155400.210795","156149.954412","142300.124319","143067.190964","143833.462414","144600.11693","148517.064713","149283.750147","150050.999205","150799.605679","151566.634605","152333.162669","153099.749476","153866.432746","155410.101895","Mapping"
"Mixed","Both","done","37","m160cad.wav","None","730.550394859","155","147750.329502","154633.710557","155400.210795","156149.954412","156916.342729","143067.190964","143833.462414","144600.11693","148517.064713","149283.750147","150050.999205","150799.605679","151566.634605","152333.162669","153099.749476","153866.432746","156160.044929","Mapping"
"Mixed","Both","done","37","m160done.wav","None","731.589529314","155","147750.329502","154633.710557","155400.210795","156149.954412","156916.342729","157683.310439","143833.462414","144600.11693","148517.064713","149283.750147","150050.999205","150799.605679","151566.634605","152333.162669","153099.749476","153866.432746","156925.801604","Mapping"
"Mixed","Both","done","37","m160depth.wav","space","347.668811446","155","147750.329502","154633.710557","155400.210795","156149.954412","156916.342729","157683.310439","158449.854889","144600.11693","148517.064713","149283.750147","150050.999205","150799.605679","151566.634605","152333.162669","153099.749476","153866.432746","157692.812907","Mapping"
"Mixed","Both","done","37","m150gnash.wav","None","728.010529187","155","147750.329502","154633.710557","155400.210795","156149.954412","156916.342729","157683.310439","158449.854889","159216.228675","148517.064713","149283.750147","150050.999205","150799.605679","151566.634605","152333.162669","153099.749476","153866.432746","158459.349937","Mapping"
"Mixed","Both","ball","9","m150dime.wav","None","725.253623328","155","162333.560267","154633.710557","155400.210795","156149.954412","156916.342729","157683.310439","158449.854889","159216.228675","148517.064713","149283.750147","150050.999205","150799.605679","151566.634605","152333.162669","153099.749476","153866.432746","159225.359206","Mapping"
"Mixed","Both","ball","9","m160priest.wav","space","0.032463343814","155","162333.560267","154633.710557","155400.210795","156149.954412","156916.342729","157683.310439","158449.854889","159216.228675","163100.38823","149283.750147","150050.999205","150799.605679","151566.634605","152333.162669","153099.749476","153866.432746","162343.875554","Mapping"
"Mixed","Both","ball","9","m160priest.wav","None","718.727266067","155","162333.560267","154633.710557","155400.210795","156149.954412","156916.342729","157683.310439","158449.854889","159216.228675","163100.38823","163849.654482","150050.999205","150799.605679","151566.634605","152333.162669","153099.749476","153866.432746","163110.181321","Mapping"
"Mixed","Both","ball","9","m150jaw.wav","None","733.374391682","155","162333.560267","154633.710557","155400.210795","156149.954412","156916.342729","157683.310439","158449.854889","159216.228675","163100.38823","163849.654482","164616.337752","150799.605679","151566.634605","152333.162669","153099.749476","153866.432746","163858.71514","Mapping"
"Mixed","Both","ball","9","m150ball.wav","None","732.962880866","155","162333.560267","154633.710557","155400.210795","156149.954412","156916.342729","157683.310439","158449.854889","159216.228675","163100.38823","163849.654482","164616.337752","165382.634553","151566.634605","152333.162669","153099.749476","153866.432746","164625.984295","Mapping"
"Mixed","Both","ball","9","m160bluff.wav","space","376.355844666","155","162333.560267","154633.710557","155400.210795","156149.954412","156916.342729","157683.310439","158449.854889","159216.228675","163100.38823","163849.654482","164616.337752","165382.634553","166149.469318","152333.162669","153099.749476","153866.432746","165391.9914","Mapping"
"Mixed","Both","ball","9","m160tile.wav","None","733.481365955","155","162333.560267","154633.710557","155400.210795","156149.954412","156916.342729","157683.310439","158449.854889","159216.228675","163100.38823","163849.654482","164616.337752","165382.634553","166149.469318","166916.114868","153099.749476","153866.432746","166158.667868","Mapping"
"Mixed","Both","ball","9","m160ball.wav","None","736.147374613","155","162333.560267","154633.710557","155400.210795","156149.954412","156916.342729","157683.310439","158449.854889","159216.228675","163100.38823","163849.654482","164616.337752","165382.634553","166149.469318","166916.114868","167683.139466","153866.432746","166919.516711","Mapping"
"Mixed","Both","ball","9","m150gnash.wav","space","452.465246548","155","162333.560267","154633.710557","155400.210795","156149.954412","156916.342729","157683.310439","158449.854889","159216.228675","163100.38823","163849.654482","164616.337752","165382.634553","166149.469318","166916.114868","167683.139466","168450.072239","167691.857559","Mapping"
"Mixed","Both","ball","9","m160bluff.wav","None","722.09231765","155","162333.560267","169200.398031","155400.210795","156149.954412","156916.342729","157683.310439","158449.854889","159216.228675","163100.38823","163849.654482","164616.337752","165382.634553","166149.469318","166916.114868","167683.139466","168450.072239","168459.840905","Mapping"
"Mixed","Both","ball","9","m160ball.wav","None","735.661971266","155","162333.560267","169200.398031","169966.085141","156149.954412","156916.342729","157683.310439","158449.854889","159216.228675","163100.38823","163849.654482","164616.337752","165382.634553","166149.469318","166916.114868","167683.139466","168450.072239","169209.679748","Mapping"
"Mixed","Both","ball","9","m160bluff.wav","space","465.424281312","155","162333.560267","169200.398031","169966.085141","170732.830864","156916.342729","157683.310439","158449.854889","159216.228675","163100.38823","163849.654482","164616.337752","165382.634553","166149.469318","166916.114868","167683.139466","168450.072239","169974.859194","Mapping"
"Mixed","Both","ball","9","m150dime.wav","None","729.393465212","155","162333.560267","169200.398031","169966.085141","170732.830864","171499.430965","157683.310439","158449.854889","159216.228675","163100.38823","163849.654482","164616.337752","165382.634553","166149.469318","166916.114868","167683.139466","168450.072239","170742.25511","Mapping"
"Mixed","Both","ball","9","m150reek.wav","None","726.856382098","155","162333.560267","169200.398031","169966.085141","170732.830864","171499.430965","172266.549552","158449.854889","159216.228675","163100.38823","163849.654482","164616.337752","165382.634553","166149.469318","166916.114868","167683.139466","168450.072239","171508.24552","Mapping"
"Mixed","Both","ball","9","m150ball.wav","None","722.066037823","155","162333.560267","169200.398031","169966.085141","170732.830864","171499.430965","172266.549552","173016.234735","159216.228675","163100.38823","163849.654482","164616.337752","165382.634553","166149.469318","166916.114868","167683.139466","168450.072239","172276.322856","Mapping"
"Mixed","Both","ball","9","m150depth.wav","space","351.137127029","155","162333.560267","169200.398031","169966.085141","170732.830864","171499.430965","172266.549552","173016.234735","173782.79217","163100.38823","163849.654482","164616.337752","165382.634553","166149.469318","166916.114868","167683.139466","168450.072239","173025.136168","Mapping"
"Mixed","Both","ball","8","m150jolt.wav","None","736.184166395","155","176916.468873","169200.398031","169966.085141","170732.830864","171499.430965","172266.549552","173016.234735","173782.79217","163100.38823","163849.654482","164616.337752","165382.634553","166149.469318","166916.114868","167683.139466","168450.072239","173791.9833","Mapping"
"Mixed","Both","ball","8","m150ball.wav","None","719.405594165","155","176916.468873","169200.398031","169966.085141","170732.830864","171499.430965","172266.549552","173016.234735","173782.79217","177665.973189","163849.654482","164616.337752","165382.634553","166149.469318","166916.114868","167683.139466","168450.072239","176926.567428","Mapping"
"Mixed","Both","ball","8","m160cad.wav","space","349.245290388","155","176916.468873","169200.398031","169966.085141","170732.830864","171499.430965","172266.549552","173016.234735","173782.79217","177665.973189","178432.907817","164616.337752","165382.634553","166149.469318","166916.114868","167683.139466","168450.072239","177674.918525","Mapping"
"Mixed","Both","ball","8","m150romp.wav","None","730.328717153","155","176916.468873","169200.398031","169966.085141","170732.830864","171499.430965","172266.549552","173016.234735","173782.79217","177665.973189","178432.907817","179199.329525","165382.634553","166149.469318","166916.114868","167683.139466","168450.072239","178441.944978","Mapping"
"Mixed","Both","ball","8","m150lash.wav","None","730.644693132","155","176916.468873","169200.398031","169966.085141","170732.830864","171499.430965","172266.549552","173016.234735","173782.79217","177665.973189","178432.907817","179199.329525","179966.188096","166149.469318","166916.114868","167683.139466","168450.072239","179208.468404","Mapping"
"Mixed","Both","ball","8","m150ball.wav","None","730.562761892","155","176916.468873","169200.398031","169966.085141","170732.830864","171499.430965","172266.549552","173016.234735","173782.79217","177665.973189","178432.907817","179199.329525","179966.188096","180732.941857","166916.114868","167683.139466","168450.072239","179975.52732","Mapping"
"Mixed","Both","ball","8","m150reek.wav","space","385.74175362","155","176916.468873","169200.398031","169966.085141","170732.830864","171499.430965","172266.549552","173016.234735","173782.79217","177665.973189","178432.907817","179199.329525","179966.188096","180732.941857","181499.967382","167683.139466","168450.072239","180742.407533","Mapping"
"Mixed","Both","ball","8","m160cave.wav","None","723.534305813","155","176916.468873","169200.398031","169966.085141","170732.830864","171499.430965","172266.549552","173016.234735","173782.79217","177665.973189","178432.907817","179199.329525","179966.188096","180732.941857","181499.967382","182266.672912","168450.072239","181509.911969","Mapping"
"Mixed","Both","ball","8","m150jaw.wav","None","720.184403821","155","176916.468873","169200.398031","169966.085141","170732.830864","171499.430965","172266.549552","173016.234735","173782.79217","177665.973189","178432.907817","179199.329525","179966.188096","180732.941857","181499.967382","182266.672912","183016.014912","182276.68459","Mapping"
"Mixed","Both","ball","8","m160cad.wav","None","735.261281487","155","176916.468873","183782.788151","169966.085141","170732.830864","171499.430965","172266.549552","173016.234735","173782.79217","177665.973189","178432.907817","179199.329525","179966.188096","180732.941857","181499.967382","182266.672912","183016.014912","183024.996112","Mapping"
"Mixed","Both","ball","8","m160ball.wav","None","731.914471369","155","176916.468873","183782.788151","184549.209859","170732.830864","171499.430965","172266.549552","173016.234735","173782.79217","177665.973189","178432.907817","179199.329525","179966.188096","180732.941857","181499.967382","182266.672912","183016.014912","183792.136032","Mapping"
"Mixed","Both","ball","8","m160cave.wav","space","626.043037628","155","176916.468873","183782.788151","184549.209859","185316.10986","171499.430965","172266.549552","173016.234735","173782.79217","177665.973189","178432.907817","179199.329525","179966.188096","180732.941857","181499.967382","182266.672912","183016.014912","184558.005555","Mapping"
"Mixed","Both","ball","8","m160dime.wav","None","724.937956431","155","176916.468873","183782.788151","184549.209859","185316.10986","186083.251325","172266.549552","173016.234735","173782.79217","177665.973189","178432.907817","179199.329525","179966.188096","180732.941857","181499.967382","182266.672912","183016.014912","185325.532869","Mapping"
"Mixed","Both","ball","8","m160ball.wav","None","721.087192418","155","176916.468873","183782.788151","184549.209859","185316.10986","186083.251325","186832.593016","173016.234735","173782.79217","177665.973189","178432.907817","179199.329525","179966.188096","180732.941857","181499.967382","182266.672912","183016.014912","186092.90436","Mapping"
"Mixed","Both","ball","8","m150dime.wav","space","358.059536433","155","176916.468873","183782.788151","184549.209859","185316.10986","186083.251325","186832.593016","187599.480649","173782.79217","177665.973189","178432.907817","179199.329525","179966.188096","180732.941857","181499.967382","182266.672912","183016.014912","186841.938732","Mapping"
"Mixed","Both","ball","8","m160bluff.wav","None","731.106290128","155","176916.468873","183782.788151","184549.209859","185316.10986","186083.251325","186832.593016","187599.480649","188365.952134","177665.973189","178432.907817","179199.329525","179966.188096","180732.941857","181499.967382","182266.672912","183016.014912","187609.244369","Mapping"
"Mixed","Both","tile","29","m150jaw.wav","None","728.610017919","155","191499.860408","183782.788151","184549.209859","185316.10986","186083.251325","186832.593016","187599.480649","188365.952134","177665.973189","178432.907817","179199.329525","179966.188096","180732.941857","181499.967382","182266.672912","183016.014912","188375.339589","Mapping"
"Mixed","Both","tile","29","m160lash.wav","None","719.535138109","155","191499.860408","183782.788151","184549.209859","185316.10986","186083.251325","186832.593016","187599.480649","188365.952134","192266.378269","178432.907817","179199.329525","179966.188096","180732.941857","181499.967382","182266.672912","183016.014912","191509.662465","Mapping"
"Mixed","Both","tile","29","m160done.wav","None","720.650638454","155","191499.860408","183782.788151","184549.209859","185316.10986","186083.251325","186832.593016","187599.480649","188365.952134","192266.378269","193032.313028","179199.329525","179966.188096","180732.941857","181499.967382","182266.672912","183016.014912","192276.25762","Mapping"
"Mixed","Both","tile","29","m150done.wav","None","722.243194468","155","191499.860408","183782.788151","184549.209859","185316.10986","186083.251325","186832.593016","187599.480649","188365.952134","192266.378269","193032.313028","193782.58286","179966.188096","180732.941857","181499.967382","182266.672912","183016.014912","193041.10254","Mapping"
"Mixed","Both","tile","29","m160cling.wav","None","735.052898177","155","191499.860408","183782.788151","184549.209859","185316.10986","186083.251325","186832.593016","187599.480649","188365.952134","192266.378269","193032.313028","193782.58286","194549.111542","180732.941857","181499.967382","182266.672912","183016.014912","193791.910025","Mapping"
"Mixed","Both","tile","29","m150tile.wav","None","735.512640094","155","191499.860408","183782.788151","184549.209859","185316.10986","186083.251325","186832.593016","187599.480649","188365.952134","192266.378269","193032.313028","193782.58286","194549.111542","195315.891892","181499.967382","182266.672912","183016.014912","194558.459113","Mapping"
"Mixed","Both","tile","29","m160greet.wav","space","490.233652177","155","191499.860408","183782.788151","184549.209859","185316.10986","186083.251325","186832.593016","187599.480649","188365.952134","192266.378269","193032.313028","193782.58286","194549.111542","195315.891892","196082.480554","182266.672912","183016.014912","195325.690239","Mapping"
"Mixed","Both","tile","29","m160tile.wav","None","729.064194718","155","191499.860408","183782.788151","184549.209859","185316.10986","186083.251325","186832.593016","187599.480649","188365.952134","192266.378269","193032.313028","193782.58286","194549.111542","195315.891892","196082.480554","196849.367569","183016.014912","196091.522661","Mapping"
"Mixed","Both","tile","29","m150dime.wav","space","612.862015842","155","191499.860408","183782.788151","184549.209859","185316.10986","186083.251325","186832.593016","187599.480649","188365.952134","192266.378269","193032.313028","193782.58286","194549.111542","195315.891892","196082.480554","196849.367569","197616.303743","196859.001436","Mapping"
"Mixed","Both","tile","29","m160tile.wav","None","722.001111135","155","191499.860408","198382.305592","184549.209859","185316.10986","186083.251325","186832.593016","187599.480649","188365.952134","192266.378269","193032.313028","193782.58286","194549.111542","195315.891892","196082.480554","196849.367569","197616.303743","197626.073028","Mapping"
"Mixed","Both","tile","29","m160lash.wav","space","416.358961142","155","191499.860408","198382.305592","199132.657046","185316.10986","186083.251325","186832.593016","187599.480649","188365.952134","192266.378269","193032.313028","193782.58286","194549.111542","195315.891892","196082.480554","196849.367569","197616.303743","198391.507542","Mapping"
"Mixed","Both","tile","29","m150done.wav","None","732.533128816","155","191499.860408","198382.305592","199132.657046","199899.124821","186083.251325","186832.593016","187599.480649","188365.952134","192266.378269","193032.313028","193782.58286","194549.111542","195315.891892","196082.480554","196849.367569","197616.303743","199142.308845","Mapping"
"Mixed","Both","tile","29","m160ball.wav","None","730.233182199","155","191499.860408","198382.305592","199132.657046","199899.124821","200665.794486","186832.593016","187599.480649","188365.952134","192266.378269","193032.313028","193782.58286","194549.111542","195315.891892","196082.480554","196849.367569","197616.303743","199908.15858","Mapping"
"Mixed","Both","tile","29","m150priest.wav","None","727.378886426","155","191499.860408","198382.305592","199132.657046","199899.124821","200665.794486","201432.471263","187599.480649","188365.952134","192266.378269","193032.313028","193782.58286","194549.111542","195315.891892","196082.480554","196849.367569","197616.303743","200674.746624","Mapping"
"Mixed","Both","tile","29","m150tile.wav","None","727.547386312","155","191499.860408","198382.305592","199132.657046","199899.124821","200665.794486","201432.471263","202199.453813","188365.952134","192266.378269","193032.313028","193782.58286","194549.111542","195315.891892","196082.480554","196849.367569","197616.303743","201441.673523","Mapping"
"Mixed","Both","tile","29","m150jolt.wav","space","493.510279921","155","191499.860408","198382.305592","199132.657046","199899.124821","200665.794486","201432.471263","202199.453813","202966.439764","192266.378269","193032.313028","193782.58286","194549.111542","195315.891892","196082.480554","196849.367569","197616.303743","202210.28913","Mapping"
"Mixed","Both","cave","21","m150knife.wav","None","719.586460968","155","206083.051289","198382.305592","199132.657046","199899.124821","200665.794486","201432.471263","202199.453813","202966.439764","192266.378269","193032.313028","193782.58286","194549.111542","195315.891892","196082.480554","196849.367569","197616.303743","202976.299018","Mapping"
"Mixed","Both","cave","21","m150cave.wav","None","723.333651782","155","206083.051289","198382.305592","199132.657046","199899.124821","200665.794486","201432.471263","202199.453813","202966.439764","206849.443007","193032.313028","193782.58286","194549.111542","195315.891892","196082.480554","196849.367569","197616.303743","206092.69845","Mapping"
"Mixed","Both","cave","21","m150cling.wav","space","364.457895514","155","206083.051289","198382.305592","199132.657046","199899.124821","200665.794486","201432.471263","202199.453813","202966.439764","206849.443007","207616.154721","193782.58286","194549.111542","195315.891892","196082.480554","196849.367569","197616.303743","206859.294533","Mapping"
"Mixed","Both","cave","21","m150done.wav","None","720.475645969","155","206083.051289","198382.305592","199132.657046","199899.124821","200665.794486","201432.471263","202199.453813","202966.439764","206849.443007","207616.154721","208365.498267","194549.111542","195315.891892","196082.480554","196849.367569","197616.303743","207625.620706","Mapping"
"Mixed","Both","cave","21","m160cave.wav","None","735.058463295","155","206083.051289","198382.305592","199132.657046","199899.124821","200665.794486","201432.471263","202199.453813","202966.439764","206849.443007","207616.154721","208365.498267","209132.436914","195315.891892","196082.480554","196849.367569","197616.303743","208374.613648","Mapping"
"Mixed","Both","cave","21","m160bluff.wav","space","377.781446674","155","206083.051289","198382.305592","199132.657046","199899.124821","200665.794486","201432.471263","202199.453813","202966.439764","206849.443007","207616.154721","208365.498267","209132.436914","209899.207061","196082.480554","196849.367569","197616.303743","209141.905681","Mapping"
"Mixed","Both","cave","21","m160dime.wav","None","727.727944031","155","206083.051289","198382.305592","199132.657046","199899.124821","200665.794486","201432.471263","202199.453813","202966.439764","206849.443007","207616.154721","208365.498267","209132.436914","209899.207061","210665.626914","196849.367569","197616.303743","209908.464354","Mapping"
"Mixed","Both","cave","21","m160reek.wav","None","724.798518931","155","206083.051289","198382.305592","199132.657046","199899.124821","200665.794486","201432.471263","202199.453813","202966.439764","206849.443007","207616.154721","208365.498267","209132.436914","209899.207061","210665.626914","211432.485176","197616.303743","210674.921307","Mapping"
"Mixed","Both","cave","21","m160gnash.wav","None","725.672554225","155","206083.051289","198382.305592","199132.657046","199899.124821","200665.794486","201432.471263","202199.453813","202966.439764","206849.443007","207616.154721","208365.498267","209132.436914","209899.207061","210665.626914","211432.485176","212199.07322","211441.573659","Mapping"
"Mixed","Both","cave","21","m150cave.wav","None","724.986496847","155","206083.051289","212966.026398","199132.657046","199899.124821","200665.794486","201432.471263","202199.453813","202966.439764","206849.443007","207616.154721","208365.498267","209132.436914","209899.207061","210665.626914","211432.485176","212199.07322","212209.089844","Mapping"
"Mixed","Both","cave","21","m150priest.wav","space","431.798500009","155","206083.051289","212966.026398","213715.642945","199899.124821","200665.794486","201432.471263","202199.453813","202966.439764","206849.443007","207616.154721","208365.498267","209132.436914","209899.207061","210665.626914","211432.485176","212199.07322","212975.84546","Mapping"
"Mixed","Both","cave","21","m150tile.wav","None","735.736482195","155","206083.051289","212966.026398","213715.642945","214482.456686","200665.794486","201432.471263","202199.453813","202966.439764","206849.443007","207616.154721","208365.498267","209132.436914","209899.207061","210665.626914","211432.485176","212199.07322","213724.99268","Mapping"
"Mixed","Both","cave","21","m160cave.wav","None","732.775521348","155","206083.051289","212966.026398","213715.642945","214482.456686","215249.015667","201432.471263","202199.453813","202966.439764","206849.443007","207616.154721","208365.498267","209132.436914","209899.207061","210665.626914","211432.485176","212199.07322","214491.586289","Mapping"
"Mixed","Both","cave","21","m160priest.wav","space","517.078934936","155","206083.051289","212966.026398","213715.642945","214482.456686","215249.015667","216015.366574","202199.453813","202966.439764","206849.443007","207616.154721","208365.498267","209132.436914","209899.207061","210665.626914","211432.485176","212199.07322","215258.526791","Mapping"
"Mixed","Both","cave","21","m150done.wav","None","726.754972944","155","206083.051289","212966.026398","213715.642945","214482.456686","215249.015667","216015.366574","216782.725389","202966.439764","206849.443007","207616.154721","208365.498267","209132.436914","209899.207061","210665.626914","211432.485176","212199.07322","216024.15454","Mapping"
"Mixed","Both","cave","21","m160jaw.wav","None","722.118597361","155","206083.051289","212966.026398","213715.642945","214482.456686","215249.015667","216015.366574","216782.725389","217549.553042","206849.443007","207616.154721","208365.498267","209132.436914","209899.207061","210665.626914","211432.485176","212199.07322","216792.631019","Mapping"
"Mixed","Both","ball","12","m150park.wav","None","722.344912821","155","220665.835297","212966.026398","213715.642945","214482.456686","215249.015667","216015.366574","216782.725389","217549.553042","206849.443007","207616.154721","208365.498267","209132.436914","209899.207061","210665.626914","211432.485176","212199.07322","217559.412915","Mapping"
"Mixed","Both","ball","12","m160cling.wav","None","723.454538849","155","220665.835297","212966.026398","213715.642945","214482.456686","215249.015667","216015.366574","216782.725389","217549.553042","221432.734679","207616.154721","208365.498267","209132.436914","209899.207061","210665.626914","211432.485176","212199.07322","220675.461435","Mapping"
"Mixed","Both","ball","12","m160bluff.wav","None","720.326314797","155","220665.835297","212966.026398","213715.642945","214482.456686","215249.015667","216015.366574","216782.725389","217549.553042","221432.734679","222182.215499","208365.498267","209132.436914","209899.207061","210665.626914","211432.485176","212199.07322","221442.356488","Mapping"
"Mixed","Both","ball","12","m150cad.wav","None","734.772477183","155","220665.835297","212966.026398","213715.642945","214482.456686","215249.015667","216015.366574","216782.725389","217549.553042","221432.734679","222182.215499","222948.942671","209132.436914","209899.207061","210665.626914","211432.485176","212199.07322","222191.717966","Mapping"
"Mixed","Both","ball","12","m150bluff.wav","None","731.732986053","155","220665.835297","212966.026398","213715.642945","214482.456686","215249.015667","216015.366574","216782.725389","217549.553042","221432.734679","222182.215499","222948.942671","223715.263897","209899.207061","210665.626914","211432.485176","212199.07322","222958.353314","Mapping"
"Mixed","Both","ball","12","m150knife.wav","None","733.635334647","155","220665.835297","212966.026398","213715.642945","214482.456686","215249.015667","216015.366574","216782.725389","217549.553042","221432.734679","222182.215499","222948.942671","223715.263897","224482.03188","210665.626914","211432.485176","212199.07322","223724.18419","Mapping"
"Mixed","Both","ball","12","m150cling.wav","None","730.304601369","155","220665.835297","212966.026398","213715.642945","214482.456686","215249.015667","216015.366574","216782.725389","217549.553042","221432.734679","222182.215499","222948.942671","223715.263897","224482.03188","225248.611267","211432.485176","212199.07322","224491.14417","Mapping"
"Mixed","Both","ball","12","m160ball.wav","None","727.812039433","155","220665.835297","212966.026398","213715.642945","214482.456686","215249.015667","216015.366574","216782.725389","217549.553042","221432.734679","222182.215499","222948.942671","223715.263897","224482.03188","225248.611267","226015.657507","212199.07322","225257.41902","Mapping"
"Mixed","Both","ball","12","m160cad.wav","space","301.915055607","155","220665.835297","212966.026398","213715.642945","214482.456686","215249.015667","216015.366574","216782.725389","217549.553042","221432.734679","222182.215499","222948.942671","223715.263897","224482.03188","225248.611267","226015.657507","226782.238749","226025.531602","Mapping"
"Mixed","Both","ball","12","m160done.wav","None","720.085158828","155","220665.835297","227531.98082","213715.642945","214482.456686","215249.015667","216015.366574","216782.725389","217549.553042","221432.734679","222182.215499","222948.942671","223715.263897","224482.03188","225248.611267","226015.657507","226782.238749","226791.91219","Mapping"
"Mixed","Both","ball","12","m160ball.wav","None","734.718990163","155","220665.835297","227531.98082","228298.576284","214482.456686","215249.015667","216015.366574","216782.725389","217549.553042","221432.734679","222182.215499","222948.942671","223715.263897","224482.03188","225248.611267","226015.657507","226782.238749","227540.919354","Mapping"
"Mixed","Both","ball","12","m160tile.wav","space","611.600276199","155","220665.835297","227531.98082","228298.576284","229065.51895","215249.015667","216015.366574","216782.725389","217549.553042","221432.734679","222182.215499","222948.942671","223715.263897","224482.03188","225248.611267","226015.657507","226782.238749","228307.816881","Mapping"
"Mixed","Both","ball","12","m150ball.wav","None","727.752368781","155","220665.835297","227531.98082","228298.576284","229065.51895","229831.944059","216015.366574","216782.725389","217549.553042","221432.734679","222182.215499","222948.942671","223715.263897","224482.03188","225248.611267","226015.657507","226782.238749","229074.620419","Mapping"
"Mixed","Both","ball","12","m150greet.wav","space","581.986648031","155","220665.835297","227531.98082","228298.576284","229065.51895","229831.944059","230599.24073","216782.725389","217549.553042","221432.734679","222182.215499","222948.942671","223715.263897","224482.03188","225248.611267","226015.657507","226782.238749","229841.41561","Mapping"
"Mixed","Both","ball","12","m150ball.wav","None","723.486692994","155","220665.835297","227531.98082","228298.576284","229065.51895","229831.944059","230599.24073","231365.847015","217549.553042","221432.734679","222182.215499","222948.942671","223715.263897","224482.03188","225248.611267","226015.657507","226782.238749","230609.092874","Mapping"
"Mixed","Both","ball","12","m160bluff.wav","space","384.017798468","155","220665.835297","227531.98082","228298.576284","229065.51895","229831.944059","230599.24073","231365.847015","232115.22828","221432.734679","222182.215499","222948.942671","223715.263897","224482.03188","225248.611267","226015.657507","226782.238749","231375.354739","Mapping"
"Mixed","Both","done","38","m150greet.wav","None","734.539669007","155","235249.102854","227531.98082","228298.576284","229065.51895","229831.944059","230599.24073","231365.847015","232115.22828","221432.734679","222182.215499","222948.942671","223715.263897","224482.03188","225248.611267","226015.657507","226782.238749","232124.74126","Mapping"
"Mixed","Both","done","38","m160done.wav","None","719.196592458","155","235249.102854","227531.98082","228298.576284","229065.51895","229831.944059","230599.24073","231365.847015","232115.22828","235998.370034","222182.215499","222948.942671","223715.263897","224482.03188","225248.611267","226015.657507","226782.238749","235258.982514","Mapping"
"Mixed","Both","done","38","m160jaw.wav","space","319.610947627","155","235249.102854","227531.98082","228298.576284","229065.51895","229831.944059","230599.24073","231365.847015","232115.22828","235998.370034","236765.293222","222948.942671","223715.263897","224482.03188","225248.611267","226015.657507","226782.238749","236007.68205","Mapping"
"Mixed","Both","done","38","m160gnash.wav","None","730.714566424","155","235249.102854","227531.98082","228298.576284","229065.51895","229831.944059","230599.24073","231365.847015","232115.22828","235998.370034","236765.293222","237532.071408","223715.263897","224482.03188","225248.611267","226015.657507","226782.238749","236774.234539","Mapping"
"Mixed","Both","done","38","m150done.wav","None","727.267892915","155","235249.102854","227531.98082","228298.576284","229065.51895","229831.944059","230599.24073","231365.847015","232115.22828","235998.370034","236765.293222","237532.071408","238299.034171","224482.03188","225248.611267","226015.657507","226782.238749","237541.420525","Mapping"
"Mixed","Both","done","38","m150ball.wav","space","320.857846993","155","235249.102854","227531.98082","228298.576284","229065.51895","229831.944059","230599.24073","231365.847015","232115.22828","235998.370034","236765.293222","237532.071408","238299.034171","239065.609538","225248.611267","226015.657507","226782.238749","238310.421055","Mapping"
"Mixed","Both","done","38","m160park.wav","None","720.338063315","155","235249.102854","227531.98082","228298.576284","229065.51895","229831.944059","230599.24073","231365.847015","232115.22828","235998.370034","236765.293222","237532.071408","238299.034171","239065.609538","239815.118802","226015.657507","226782.238749","239075.007814","Mapping"
"Mixed","Both","done","38","m150bluff.wav","None","733.976044576","155","235249.102854","227531.98082","228298.576284","229065.51895","229831.944059","230599.24073","231365.847015","232115.22828","235998.370034","236765.293222","237532.071408","238299.034171","239065.609538","239815.118802","240582.148655","226782.238749","239825.097707","Mapping"
"Mixed","Both","done","38","m150park.wav","None","731.185747893","155","235249.102854","227531.98082","228298.576284","229065.51895","229831.944059","230599.24073","231365.847015","232115.22828","235998.370034","236765.293222","237532.071408","238299.034171","239065.609538","239815.118802","240582.148655","241348.60901","240591.588051","Mapping"
"Mixed","Both","done","38","m160knife.wav","None","727.987032034","155","235249.102854","242114.980941","228298.576284","229065.51895","229831.944059","230599.24073","231365.847015","232115.22828","235998.370034","236765.293222","237532.071408","238299.034171","239065.609538","239815.118802","240582.148655","241348.60901","241358.529172","Mapping"
"Mixed","Both","done","38","m160park.wav","None","724.704220891","155","235249.102854","242114.980941","242882.256897","229065.51895","229831.944059","230599.24073","231365.847015","232115.22828","235998.370034","236765.293222","237532.071408","238299.034171","239065.609538","239815.118802","240582.148655","241348.60901","242125.692589","Mapping"
"Mixed","Both","done","38","m150dime.wav","None","722.486823797","155","235249.102854","242114.980941","242882.256897","243649.10743","229831.944059","230599.24073","231365.847015","232115.22828","235998.370034","236765.293222","237532.071408","238299.034171","239065.609538","239815.118802","240582.148655","241348.60901","242891.828311","Mapping"
"Mixed","Both","done","38","m150done.wav","space","380.330278305","155","235249.102854","242114.980941","242882.256897","243649.10743","244398.657813","230599.24073","231365.847015","232115.22828","235998.370034","236765.293222","237532.071408","238299.034171","239065.609538","239815.118802","240582.148655","241348.60901","243658.81117","Mapping"
"Mixed","Both","done","38","m160cling.wav","space","566.76755019","155","235249.102854","242114.980941","242882.256897","243649.10743","244398.657813","245165.317276","231365.847015","232115.22828","235998.370034","236765.293222","237532.071408","238299.034171","239065.609538","239815.118802","240582.148655","241348.60901","244408.438847","Mapping"
"Mixed","Both","done","38","m160done.wav","None","729.802811751","155","235249.102854","242114.980941","242882.256897","243649.10743","244398.657813","245165.317276","245931.902846","232115.22828","235998.370034","236765.293222","237532.071408","238299.034171","239065.609538","239815.118802","240582.148655","241348.60901","245174.765948","Mapping"
"Mixed","Both","done","38","m150romp.wav","space","607.231954462","155","235249.102854","242114.980941","242882.256897","243649.10743","244398.657813","245165.317276","245931.902846","246698.83902","235998.370034","236765.293222","237532.071408","238299.034171","239065.609538","239815.118802","240582.148655","241348.60901","245943.969605","Mapping"
"Mixed","Both","ball","2","m160jaw.wav","None","722.745293286","155","249815.568959","242114.980941","242882.256897","243649.10743","244398.657813","245165.317276","245931.902846","246698.83902","235998.370034","236765.293222","237532.071408","238299.034171","239065.609538","239815.118802","240582.148655","241348.60901","246708.650044","Mapping"
"Mixed","Both","ball","2","m160jaw.wav","None","719.536683988","155","249815.568959","242114.980941","242882.256897","243649.10743","244398.657813","245165.317276","245931.902846","246698.83902","250565.047305","236765.293222","237532.071408","238299.034171","239065.609538","239815.118802","240582.148655","241348.60901","249825.2424","Mapping"
"Mixed","Both","ball","2","m150reek.wav","None","734.479689272","155","249815.568959","242114.980941","242882.256897","243649.10743","244398.657813","245165.317276","245931.902846","246698.83902","250565.047305","251331.771386","237532.071408","238299.034171","239065.609538","239815.118802","240582.148655","241348.60901","250573.986458","Mapping"
"Mixed","Both","ball","2","m160ball.wav","None","731.644871528","155","249815.568959","242114.980941","242882.256897","243649.10743","244398.657813","245165.317276","245931.902846","246698.83902","250565.047305","251331.771386","252098.469804","238299.034171","239065.609538","239815.118802","240582.148655","241348.60901","251340.899443","Mapping"
"Mixed","Both","ball","2","m150dime.wav","space","618.888129364","155","249815.568959","242114.980941","242882.256897","243649.10743","244398.657813","245165.317276","245931.902846","246698.83902","250565.047305","251331.771386","252098.469804","252864.855648","239065.609538","239815.118802","240582.148655","241348.60901","252108.170144","Mapping"
"Mixed","Both","ball","2","m160dime.wav","None","725.468190154","155","249815.568959","242114.980941","242882.256897","243649.10743","244398.657813","245165.317276","245931.902846","246698.83902","250565.047305","251331.771386","252098.469804","252864.855648","253632.228994","239815.118802","240582.148655","241348.60901","252873.827573","Mapping"
"Mixed","Both","ball","2","m150dime.wav","None","721.389564686","155","249815.568959","242114.980941","242882.256897","243649.10743","244398.657813","245165.317276","245931.902846","246698.83902","250565.047305","251331.771386","252098.469804","252864.855648","253632.228994","254381.715688","240582.148655","241348.60901","253641.874919","Mapping"
"Mixed","Both","ball","2","m160ball.wav","None","736.212301184","155","249815.568959","242114.980941","242882.256897","243649.10743","244398.657813","245165.317276","245931.902846","246698.83902","250565.047305","251331.771386","252098.469804","252864.855648","253632.228994","254381.715688","255148.402976","241348.60901","254390.977618","Mapping"
"Mixed","Both","ball","2","m150cad.wav","space","313.158173813","155","249815.568959","242114.980941","242882.256897","243649.10743","244398.657813","245165.317276","245931.902846","246698.83902","250565.047305","251331.771386","252098.469804","252864.855648","253632.228994","254381.715688","255148.402976","255914.948045","255157.909154","Mapping"
"Mixed","Both","ball","2","m160cave.wav","None","729.751798091","155","249815.568959","256681.376245","242882.256897","243649.10743","244398.657813","245165.317276","245931.902846","246698.83902","250565.047305","251331.771386","252098.469804","252864.855648","253632.228994","254381.715688","255148.402976","255914.948045","255924.469063","Mapping"
"Mixed","Both","ball","2","m160priest.wav","None","730.659224209","155","249815.568959","256681.376245","257448.153195","243649.10743","244398.657813","245165.317276","245931.902846","246698.83902","250565.047305","251331.771386","252098.469804","252864.855648","253632.228994","254381.715688","255148.402976","255914.948045","256690.102686","Mapping"
"Mixed","Both","ball","2","m150ball.wav","None","727.7937982","155","249815.568959","256681.376245","257448.153195","258215.399161","244398.657813","245165.317276","245931.902846","246698.83902","250565.047305","251331.771386","252098.469804","252864.855648","253632.228994","254381.715688","255148.402976","255914.948045","257457.02","Mapping"
"Mixed","Both","ball","2","m160tile.wav","space","397.688243072","155","249815.568959","256681.376245","257448.153195","258215.399161","258982.069136","245165.317276","245931.902846","246698.83902","250565.047305","251331.771386","252098.469804","252864.855648","253632.228994","254381.715688","255148.402976","255914.948045","258225.296753","Mapping"
"Mixed","Both","ball","2","m150cad.wav","None","719.716623309","155","249815.568959","256681.376245","257448.153195","258215.399161","258982.069136","259731.544081","245931.902846","246698.83902","250565.047305","251331.771386","252098.469804","252864.855648","253632.228994","254381.715688","255148.402976","255914.948045","258992.318568","Mapping"
"Mixed","Both","ball","2","m150ball.wav","None","734.989826567","155","249815.568959","256681.376245","257448.153195","258215.399161","258982.069136","259731.544081","260498.35844","246698.83902","250565.047305","251331.771386","252098.469804","252864.855648","253632.228994","254381.715688","255148.402976","255914.948045","259740.908348","Mapping"
"Mixed","Both","ball","2","m150cad.wav","space","467.078362941","155","249815.568959","256681.376245","257448.153195","258215.399161","258982.069136","259731.544081","260498.35844","261264.909692","250565.047305","251331.771386","252098.469804","252864.855648","253632.228994","254381.715688","255148.402976","255914.948045","260507.864618","Mapping"
"Mixed","Both","cave","23","m160priest.wav","None","728.358350112","155","264398.603089","256681.376245","257448.153195","258215.399161","258982.069136","259731.544081","260498.35844","261264.909692","250565.047305","251331.771386","252098.469804","252864.855648","253632.228994","254381.715688","255148.402976","255914.948045","261274.30333","Mapping"
"Mixed","Both","cave","23","m150romp.wav","None","719.284397783","155","264398.603089","256681.376245","257448.153195","258215.399161","258982.069136","259731.544081","260498.35844","261264.909692","265148.22953","251331.771386","252098.469804","252864.855648","253632.228994","254381.715688","255148.402976","255914.948045","264408.384123","Mapping"
"Mixed","Both","cave","23","m160cave.wav","None","734.101260081","155","264398.603089","256681.376245","257448.153195","258215.399161","258982.069136","259731.544081","260498.35844","261264.909692","265148.22953","265914.905688","252098.469804","252864.855648","253632.228994","254381.715688","255148.402976","255914.948045","265157.771262","Mapping"
"Mixed","Both","cave","23","m150tile.wav","space","394.607013324","155","264398.603089","256681.376245","257448.153195","258215.399161","258982.069136","259731.544081","260498.35844","261264.909692","265148.22953","265914.905688","266681.411182","252864.855648","253632.228994","254381.715688","255148.402976","255914.948045","265924.292215","Mapping"
"Mixed","Both","cave","23","m150park.wav","None","727.705992642","155","264398.603089","256681.376245","257448.153195","258215.399161","258982.069136","259731.544081","260498.35844","261264.909692","265148.22953","265914.905688","266681.411182","267448.232962","253632.228994","254381.715688","255148.402976","255914.948045","266690.899737","Mapping"
"Mixed","Both","cave","23","m160cave.wav","None","724.725553882","155","264398.603089","256681.376245","257448.153195","258215.399161","258982.069136","259731.544081","260498.35844","261264.909692","265148.22953","265914.905688","266681.411182","267448.232962","268215.277037","254381.715688","255148.402976","255914.948045","267457.738212","Mapping"
"Mixed","Both","cave","23","m160reek.wav","space","581.768680247","155","264398.603089","256681.376245","257448.153195","258215.399161","258982.069136","259731.544081","260498.35844","261264.909692","265148.22953","265914.905688","266681.411182","267448.232962","268215.277037","268964.630167","255148.402976","255914.948045","268225.084969","Mapping"
"Mixed","Both","cave","23","m160cling.wav","None","735.54448504","155","264398.603089","256681.376245","257448.153195","258215.399161","258982.069136","259731.544081","260498.35844","261264.909692","265148.22953","265914.905688","266681.411182","267448.232962","268215.277037","268964.630167","269731.52924","255914.948045","268973.744003","Mapping"
"Mixed","Both","cave","23","m150cave.wav","None","732.548896689","155","264398.603089","256681.376245","257448.153195","258215.399161","258982.069136","259731.544081","260498.35844","261264.909692","265148.22953","265914.905688","266681.411182","267448.232962","268215.277037","268964.630167","269731.52924","270498.172008","269740.854551","Mapping"
"Mixed","Both","cave","23","m150dime.wav","space","386.66402013","155","264398.603089","271264.677502","257448.153195","258215.399161","258982.069136","259731.544081","260498.35844","261264.909692","265148.22953","265914.905688","266681.411182","267448.232962","268215.277037","268964.630167","269731.52924","270498.172008","270508.134527","Mapping"
"Mixed","Both","cave","23","m160reek.wav","None","725.937516545","155","264398.603089","271264.677502","272031.97912","258215.399161","258982.069136","259731.544081","260498.35844","261264.909692","265148.22953","265914.905688","266681.411182","267448.232962","268215.277037","268964.630167","269731.52924","270498.172008","271274.192955","Mapping"
"Mixed","Both","cave","23","m150cave.wav","None","721.857654396","155","264398.603089","271264.677502","272031.97912","272798.747721","258982.069136","259731.544081","260498.35844","261264.909692","265148.22953","265914.905688","266681.411182","267448.232962","268215.277037","268964.630167","269731.52924","270498.172008","272042.18805","Mapping"
"Mixed","Both","cave","23","m150lash.wav","space","478.121136315","155","264398.603089","271264.677502","272031.97912","272798.747721","273548.141353","259731.544081","260498.35844","261264.909692","265148.22953","265914.905688","266681.411182","267448.232962","268215.277037","268964.630167","269731.52924","270498.172008","272808.649332","Mapping"
"Mixed","Both","cave","23","m150park.wav","None","733.573809033","155","264398.603089","271264.677502","272031.97912","272798.747721","273548.141353","274314.691059","260498.35844","261264.909692","265148.22953","265914.905688","266681.411182","267448.232962","268215.277037","268964.630167","269731.52924","270498.172008","273557.674429","Mapping"
"Mixed","Both","cave","23","m160reek.wav","None","731.188839534","155","264398.603089","271264.677502","272031.97912","272798.747721","273548.141353","274314.691059","275081.506964","261264.909692","265148.22953","265914.905688","266681.411182","267448.232962","268215.277037","268964.630167","269731.52924","270498.172008","274323.961646","Mapping"
"Mixed","Both","cave","23","m160cling.wav","None","728.172227391","155","264398.603089","271264.677502","272031.97912","272798.747721","273548.141353","274314.691059","275081.506964","275847.875185","265148.22953","265914.905688","266681.411182","267448.232962","268215.277037","268964.630167","269731.52924","270498.172008","275091.006649","Mapping"
"Mixed","Both","done","48","m150jolt.wav","None","726.019447669","155","278965.13103","271264.677502","272031.97912","272798.747721","273548.141353","274314.691059","275081.506964","275847.875185","265148.22953","265914.905688","266681.411182","267448.232962","268215.277037","268964.630167","269731.52924","270498.172008","275857.07188","Mapping"
"Mixed","Both","done","48","m160gnash.wav","None","719.405284966","155","278965.13103","271264.677502","272031.97912","272798.747721","273548.141353","274314.691059","275081.506964","275847.875185","279714.574439","265914.905688","266681.411182","267448.232962","268215.277037","268964.630167","269731.52924","270498.172008","278974.890421","Mapping"
"Mixed","Both","done","48","m160done.wav","None","734.492365504","155","278965.13103","271264.677502","272031.97912","272798.747721","273548.141353","274314.691059","275081.506964","275847.875185","279714.574439","280481.461763","266681.411182","267448.232962","268215.277037","268964.630167","269731.52924","270498.172008","279723.915208","Mapping"
"Mixed","Both","done","48","m160cad.wav","space","299.783918192","155","278965.13103","271264.677502","272031.97912","272798.747721","273548.141353","274314.691059","275081.506964","275847.875185","279714.574439","280481.461763","281248.068976","267448.232962","268215.277037","268964.630167","269731.52924","270498.172008","280490.866532","Mapping"
"Mixed","Both","done","48","m160done.wav","None","727.680331212","155","278965.13103","271264.677502","272031.97912","272798.747721","273548.141353","274314.691059","275081.506964","275847.875185","279714.574439","280481.461763","281248.068976","282014.369796","268215.277037","268964.630167","269731.52924","270498.172008","281257.734378","Mapping"
"Mixed","Both","done","48","m160knife.wav","space","335.047394852","155","278965.13103","271264.677502","272031.97912","272798.747721","273548.141353","274314.691059","275081.506964","275847.875185","279714.574439","280481.461763","281248.068976","282014.369796","282781.603087","268964.630167","269731.52924","270498.172008","282023.587515","Mapping"
"Mixed","Both","done","48","m150done.wav","None","721.304851002","155","278965.13103","271264.677502","272031.97912","272798.747721","273548.141353","274314.691059","275081.506964","275847.875185","279714.574439","280481.461763","281248.068976","282014.369796","282781.603087","283531.139248","269731.52924","270498.172008","282791.15193","Mapping"
"Mixed","Both","done","48","m160cad.wav","space","338.016703492","155","278965.13103","271264.677502","272031.97912","272798.747721","273548.141353","274314.691059","275081.506964","275847.875185","279714.574439","280481.461763","281248.068976","282014.369796","282781.603087","283531.139248","284298.005239","270498.172008","283540.570915","Mapping"
"Mixed","Both","done","48","m150tile.wav","None","731.773178792","155","278965.13103","271264.677502","272031.97912","272798.747721","273548.141353","274314.691059","275081.506964","275847.875185","279714.574439","280481.461763","281248.068976","282014.369796","282781.603087","283531.139248","284298.005239","285064.373151","284307.698467","Mapping"
"Mixed","Both","done","48","m150done.wav","None","729.959563119","155","278965.13103","285831.12753","272031.97912","272798.747721","273548.141353","274314.691059","275081.506964","275847.875185","279714.574439","280481.461763","281248.068976","282014.369796","282781.603087","283531.139248","284298.005239","285064.373151","285073.529962","Mapping"
"Mixed","Both","done","48","m150reek.wav","space","318.220591405","155","278965.13103","285831.12753","286598.269923","272798.747721","273548.141353","274314.691059","275081.506964","275847.875185","279714.574439","280481.461763","281248.068976","282014.369796","282781.603087","283531.139248","284298.005239","285064.373151","285840.314022","Mapping"
"Mixed","Both","done","48","m160gnash.wav","None","722.494553076","155","278965.13103","285831.12753","286598.269923","287364.849001","273548.141353","274314.691059","275081.506964","275847.875185","279714.574439","280481.461763","281248.068976","282014.369796","282781.603087","283531.139248","284298.005239","285064.373151","286608.15855","Mapping"
"Mixed","Both","done","48","m160knife.wav","None","719.899036107","155","278965.13103","285831.12753","286598.269923","287364.849001","288114.167195","274314.691059","275081.506964","275847.875185","279714.574439","280481.461763","281248.068976","282014.369796","282781.603087","283531.139248","284298.005239","285064.373151","287374.881702","Mapping"
"Mixed","Both","done","48","m150ball.wav","None","735.737718991","155","278965.13103","285831.12753","286598.269923","287364.849001","288114.167195","288881.374205","275081.506964","275847.875185","279714.574439","280481.461763","281248.068976","282014.369796","282781.603087","283531.139248","284298.005239","285064.373151","288123.089033","Mapping"
"Mixed","Both","done","48","m150gnash.wav","None","732.496027835","155","278965.13103","285831.12753","286598.269923","287364.849001","288114.167195","288881.374205","289647.92422","275847.875185","279714.574439","280481.461763","281248.068976","282014.369796","282781.603087","283531.139248","284298.005239","285064.373151","288890.424351","Mapping"
"Mixed","Both","done","48","m150cave.wav","None","729.53197523","155","278965.13103","285831.12753","286598.269923","287364.849001","288114.167195","288881.374205","289647.92422","290414.417966","279714.574439","280481.461763","281248.068976","282014.369796","282781.603087","283531.139248","284298.005239","285064.373151","289657.702162","Mapping"
"Mixed","Both","tile","36","m150romp.wav","None","727.658379939","155","293548.303979","285831.12753","286598.269923","287364.849001","288114.167195","288881.374205","289647.92422","290414.417966","279714.574439","280481.461763","281248.068976","282014.369796","282781.603087","283531.139248","284298.005239","285064.373151","290423.746059","Mapping"
"Mixed","Both","tile","36","m150tile.wav","space","0.0340092228726","155","293548.303979","285831.12753","286598.269923","287364.849001","288114.167195","288881.374205","289647.92422","290414.417966","294297.824063","280481.461763","281248.068976","282014.369796","282781.603087","283531.139248","284298.005239","285064.373151","293557.904764","Mapping"
"Mixed","Both","tile","36","m160gnash.wav","None","733.242683462","155","293548.303979","285831.12753","286598.269923","287364.849001","288114.167195","288881.374205","289647.92422","290414.417966","294297.824063","295064.649243","281248.068976","282014.369796","282781.603087","283531.139248","284298.005239","285064.373151","294307.320038","Mapping"
"Mixed","Both","tile","36","m150tile.wav","space","260.447999462","155","293548.303979","285831.12753","286598.269923","287364.849001","288114.167195","288881.374205","289647.92422","290414.417966","294297.824063","295064.649243","295831.005407","282014.369796","282781.603087","283531.139248","284298.005239","285064.373151","295073.975791","Mapping"
"Mixed","Both","tile","36","m150depth.wav","space","614.256082219","155","293548.303979","285831.12753","286598.269923","287364.849001","288114.167195","288881.374205","289647.92422","290414.417966","294297.824063","295064.649243","295831.005407","296597.865524","282781.603087","283531.139248","284298.005239","285064.373151","295840.147686","Mapping"
"Mixed","Both","tile","36","m160priest.wav","None","729.245370836","155","293548.303979","285831.12753","286598.269923","287364.849001","288114.167195","288881.374205","289647.92422","290414.417966","294297.824063","295064.649243","295831.005407","296597.865524","297364.656076","283531.139248","284298.005239","285064.373151","296601.592309","Mapping"
"Mixed","Both","tile","36","m150done.wav","None","720.472863293","155","293548.303979","285831.12753","286598.269923","287364.849001","288114.167195","288881.374205","289647.92422","290414.417966","294297.824063","295064.649243","295831.005407","296597.865524","297364.656076","298114.22501","284298.005239","285064.373151","297374.562944","Mapping"
"Mixed","Both","tile","36","m160tile.wav","None","735.410921858","155","293548.303979","285831.12753","286598.269923","287364.849001","288114.167195","288881.374205","289647.92422","290414.417966","294297.824063","295064.649243","295831.005407","296597.865524","297364.656076","298114.22501","298880.984027","285064.373151","298123.829505","Mapping"
"Mixed","Both","tile","36","m160cad.wav","space","420.260120532","155","293548.303979","285831.12753","286598.269923","287364.849001","288114.167195","288881.374205","289647.92422","290414.417966","294297.824063","295064.649243","295831.005407","296597.865524","297364.656076","298114.22501","298880.984027","299647.768396","298890.089824","Mapping"
"Mixed","Both","tile","36","m150reek.wav","None","729.274433106","155","293548.303979","300414.276055","286598.269923","287364.849001","288114.167195","288881.374205","289647.92422","290414.417966","294297.824063","295064.649243","295831.005407","296597.865524","297364.656076","298114.22501","298880.984027","299647.768396","299657.265608","Mapping"
"Mixed","Both","tile","36","m150priest.wav","None","727.494208375","155","293548.303979","300414.276055","301181.564069","287364.849001","288114.167195","288881.374205","289647.92422","290414.417966","294297.824063","295064.649243","295831.005407","296597.865524","297364.656076","298114.22501","298880.984027","299647.768396","300423.245506","Mapping"
"Mixed","Both","tile","36","m160tile.wav","None","723.112283042","155","293548.303979","300414.276055","301181.564069","301947.706593","288114.167195","288881.374205","289647.92422","290414.417966","294297.824063","295064.649243","295831.005407","296597.865524","297364.656076","298114.22501","298880.984027","299647.768396","301191.791859","Mapping"
"Mixed","Both","tile","36","m160gnash.wav","space","408.698243788","155","293548.303979","300414.276055","301181.564069","301947.706593","302697.278927","288881.374205","289647.92422","290414.417966","294297.824063","295064.649243","295831.005407","296597.865524","297364.656076","298114.22501","298880.984027","299647.768396","301957.633866","Mapping"
"Mixed","Both","tile","36","m150bluff.wav","None","735.654860269","155","293548.303979","300414.276055","301181.564069","301947.706593","302697.278927","303464.203971","289647.92422","290414.417966","294297.824063","295064.649243","295831.005407","296597.865524","297364.656076","298114.22501","298880.984027","299647.768396","302706.709357","Mapping"
"Mixed","Both","tile","36","m160park.wav","None","733.392014517","155","293548.303979","300414.276055","301181.564069","301947.706593","302697.278927","303464.203971","304230.923723","290414.417966","294297.824063","295064.649243","295831.005407","296597.865524","297364.656076","298114.22501","298880.984027","299647.768396","303473.198775","Mapping"
"Mixed","Both","tile","36","m160jaw.wav","None","730.597698595","155","293548.303979","300414.276055","301181.564069","301947.706593","302697.278927","303464.203971","304230.923723","304997.703764","294297.824063","295064.649243","295831.005407","296597.865524","297364.656076","298114.22501","298880.984027","299647.768396","304240.191836","Mapping"
"Mixed","Both","tile","26","m150bluff.wav","None","727.428354206","155","308131.488368","300414.276055","301181.564069","301947.706593","302697.278927","303464.203971","304230.923723","304997.703764","294297.824063","295064.649243","295831.005407","296597.865524","297364.656076","298114.22501","298880.984027","299647.768396","305007.563637","Mapping"
"Mixed","Both","tile","26","m150cling.wav","None","720.148539636","155","308131.488368","300414.276055","301181.564069","301947.706593","302697.278927","303464.203971","304230.923723","304997.703764","308880.790175","295064.649243","295831.005407","296597.865524","297364.656076","298114.22501","298880.984027","299647.768396","308141.126563","Mapping"
"Mixed","Both","tile","26","m160park.wav","None","735.367019079","155","308131.488368","300414.276055","301181.564069","301947.706593","302697.278927","303464.203971","304230.923723","304997.703764","308880.790175","309647.31793","295831.005407","296597.865524","297364.656076","298114.22501","298880.984027","299647.768396","308890.223078","Mapping"
"Mixed","Both","tile","26","m160tile.wav","None","733.754675835","155","308131.488368","300414.276055","301181.564069","301947.706593","302697.278927","303464.203971","304230.923723","304997.703764","308880.790175","309647.31793","310414.121777","296597.865524","297364.656076","298114.22501","298880.984027","299647.768396","309656.345506","Mapping"
"Mixed","Both","tile","26","m160cave.wav","space","398.599997628","155","308131.488368","300414.276055","301181.564069","301947.706593","302697.278927","303464.203971","304230.923723","304997.703764","308880.790175","309647.31793","310414.121777","311180.96458","297364.656076","298114.22501","298880.984027","299647.768396","310423.588071","Mapping"
"Mixed","Both","tile","26","m160tile.wav","None","727.37270291","155","308131.488368","300414.276055","301181.564069","301947.706593","302697.278927","303464.203971","304230.923723","304997.703764","308880.790175","309647.31793","310414.121777","311180.96458","311947.880039","298114.22501","298880.984027","299647.768396","311189.824584","Mapping"
"Mixed","Both","tile","26","m150knife.wav","space","640.2396966","155","308131.488368","300414.276055","301181.564069","301947.706593","302697.278927","303464.203971","304230.923723","304997.703764","308880.790175","309647.31793","310414.121777","311180.96458","311947.880039","312714.442112","298880.984027","299647.768396","311957.909958","Mapping"
"Mixed","Both","tile","26","m160jolt.wav","None","720.569325727","155","308131.488368","300414.276055","301181.564069","301947.706593","302697.278927","303464.203971","304230.923723","304997.703764","308880.790175","309647.31793","310414.121777","311180.96458","311947.880039","312714.442112","313481.292645","299647.768396","312723.967459","Mapping"
"Mixed","Both","tile","26","m150tile.wav","None","722.049033153","155","308131.488368","300414.276055","301181.564069","301947.706593","302697.278927","303464.203971","304230.923723","304997.703764","308880.790175","309647.31793","310414.121777","311180.96458","311947.880039","312714.442112","313481.292645","314247.870486","313491.095939","Mapping"
"Mixed","Both","tile","26","m150ball.wav","space","468.205302721","155","308131.488368","314997.555978","301181.564069","301947.706593","302697.278927","303464.203971","304230.923723","304997.703764","308880.790175","309647.31793","310414.121777","311180.96458","311947.880039","312714.442112","313481.292645","314247.870486","314257.921119","Mapping"
"Mixed","Both","tile","26","m150reek.wav","None","733.263398171","155","308131.488368","314997.555978","315763.934402","301947.706593","302697.278927","303464.203971","304230.923723","304997.703764","308880.790175","309647.31793","310414.121777","311180.96458","311947.880039","312714.442112","313481.292645","314247.870486","315007.246424","Mapping"
"Mixed","Both","tile","26","m160reek.wav","None","731.89994006","155","308131.488368","314997.555978","315763.934402","316530.959","302697.278927","303464.203971","304230.923723","304997.703764","308880.790175","309647.31793","310414.121777","311180.96458","311947.880039","312714.442112","313481.292645","314247.870486","315772.986712","Mapping"
"Mixed","Both","tile","26","m160done.wav","None","729.544342263","155","308131.488368","314997.555978","315763.934402","316530.959","317297.460165","303464.203971","304230.923723","304997.703764","308880.790175","309647.31793","310414.121777","311180.96458","311947.880039","312714.442112","313481.292645","314247.870486","316539.74913","Mapping"
"Mixed","Both","tile","26","m150tile.wav","None","726.64985375","155","308131.488368","314997.555978","315763.934402","316530.959","317297.460165","318063.974626","304230.923723","304997.703764","308880.790175","309647.31793","310414.121777","311180.96458","311947.880039","312714.442112","313481.292645","314247.870486","317307.055076","Mapping"
"Mixed","Both","tile","26","m150ball.wav","space","541.087235673","155","308131.488368","314997.555978","315763.934402","316530.959","317297.460165","318063.974626","318830.866897","304997.703764","308880.790175","309647.31793","310414.121777","311180.96458","311947.880039","312714.442112","313481.292645","314247.870486","318072.987361","Mapping"
"Mixed","Both","tile","26","m160gnash.wav","None","720.854693442","155","308131.488368","314997.555978","315763.934402","316530.959","317297.460165","318063.974626","318830.866897","319580.374923","308880.790175","309647.31793","310414.121777","311180.96458","311947.880039","312714.442112","313481.292645","314247.870486","318840.491179","Mapping"
"Mixed","Both","ball","5","m160romp.wav","None","736.494268058","155","322731.173381","314997.555978","315763.934402","316530.959","317297.460165","318063.974626","318830.866897","319580.374923","308880.790175","309647.31793","310414.121777","311180.96458","311947.880039","312714.442112","313481.292645","314247.870486","319589.163508","Mapping"
"Mixed","Both","ball","5","m150cling.wav","None","723.356530652","155","322731.173381","314997.555978","315763.934402","316530.959","317297.460165","318063.974626","318830.866897","319580.374923","323497.702991","309647.31793","310414.121777","311180.96458","311947.880039","312714.442112","313481.292645","314247.870486","322740.918859","Mapping"
"Mixed","Both","ball","5","m160cave.wav","None","721.042052959","155","322731.173381","314997.555978","315763.934402","316530.959","317297.460165","318063.974626","318830.866897","319580.374923","323497.702991","324247.589756","310414.121777","311180.96458","311947.880039","312714.442112","313481.292645","314247.870486","323507.541531","Mapping"
"Mixed","Both","ball","5","m150tile.wav","None","735.940227984","155","322731.173381","314997.555978","315763.934402","316530.959","317297.460165","318063.974626","318830.866897","319580.374923","323497.702991","324247.589756","325013.757941","311180.96458","311947.880039","312714.442112","313481.292645","314247.870486","324256.905173","Mapping"
"Mixed","Both","ball","5","m160ball.wav","None","734.321082942","155","322731.173381","314997.555978","315763.934402","316530.959","317297.460165","318063.974626","318830.866897","319580.374923","323497.702991","324247.589756","325013.757941","325780.746674","311947.880039","312714.442112","313481.292645","314247.870486","325022.723991","Mapping"
"Mixed","Both","ball","5","m150cling.wav","space","344.123511342","155","322731.173381","314997.555978","315763.934402","316530.959","317297.460165","318063.974626","318830.866897","319580.374923","323497.702991","324247.589756","325013.757941","325780.746674","326547.3341","312714.442112","313481.292645","314247.870486","325797.882033","Mapping"
"Mixed","Both","ball","5","m150reek.wav","None","726.800112403","155","322731.173381","314997.555978","315763.934402","316530.959","317297.460165","318063.974626","318830.866897","319580.374923","323497.702991","324247.589756","325013.757941","325780.746674","326547.3341","327313.774358","313481.292645","314247.870486","326557.635473","Mapping"
"Mixed","Both","ball","5","m150ball.wav","None","725.161489449","155","322731.173381","314997.555978","315763.934402","316530.959","317297.460165","318063.974626","318830.866897","319580.374923","323497.702991","324247.589756","325013.757941","325780.746674","326547.3341","327313.774358","328081.466153","314247.870486","327323.594347","Mapping"
"Mixed","Both","ball","5","m150cad.wav","space","514.619763708","155","322731.173381","314997.555978","315763.934402","316530.959","317297.460165","318063.974626","318830.866897","319580.374923","323497.702991","324247.589756","325013.757941","325780.746674","326547.3341","327313.774358","328081.466153","328830.88823","328091.325408","Mapping"
"Mixed","Both","ball","5","m160cave.wav","None","735.195118352","155","322731.173381","329597.320759","315763.934402","316530.959","317297.460165","318063.974626","318830.866897","319580.374923","323497.702991","324247.589756","325013.757941","325780.746674","326547.3341","327313.774358","328081.466153","328830.88823","328840.851985","Mapping"
"Mixed","Both","ball","5","m160ball.wav","None","733.821148402","155","322731.173381","329597.320759","330363.833055","316530.959","317297.460165","318063.974626","318830.866897","319580.374923","323497.702991","324247.589756","325013.757941","325780.746674","326547.3341","327313.774358","328081.466153","328830.88823","329606.948133","Mapping"
"Mixed","Both","ball","5","m160tile.wav","space","671.377244056","155","322731.173381","329597.320759","330363.833055","331130.758098","317297.460165","318063.974626","318830.866897","319580.374923","323497.702991","324247.589756","325013.757941","325780.746674","326547.3341","327313.774358","328081.466153","328830.88823","330374.516258","Mapping"
"Mixed","Both","ball","5","m150ball.wav","None","727.689606487","155","322731.173381","329597.320759","330363.833055","331130.758098","331897.276887","318063.974626","318830.866897","319580.374923","323497.702991","324247.589756","325013.757941","325780.746674","326547.3341","327313.774358","328081.466153","328830.88823","331140.413607","Mapping"
"Mixed","Both","ball","5","m160gnash.wav","space","482.964040362","155","322731.173381","329597.320759","330363.833055","331130.758098","331897.276887","332664.079188","318830.866897","319580.374923","323497.702991","324247.589756","325013.757941","325780.746674","326547.3341","327313.774358","328081.466153","328830.88823","331906.907971","Mapping"
"Mixed","Both","ball","5","m150tile.wav","None","721.735530533","155","322731.173381","329597.320759","330363.833055","331130.758098","331897.276887","332664.079188","333430.794302","319580.374923","323497.702991","324247.589756","325013.757941","325780.746674","326547.3341","327313.774358","328081.466153","328830.88823","332674.524637","Mapping"
"Mixed","Both","ball","5","m160cling.wav","None","720.062898472","155","322731.173381","329597.320759","330363.833055","331130.758098","331897.276887","332664.079188","333430.794302","334180.75867","323497.702991","324247.589756","325013.757941","325780.746674","326547.3341","327313.774358","328081.466153","328830.88823","333440.58121","Mapping"
"Mixed","Both","tile","25","m150gnash.wav","None","734.30129583","155","337313.908849","329597.320759","330363.833055","331130.758098","331897.276887","332664.079188","333430.794302","334180.75867","323497.702991","324247.589756","325013.757941","325780.746674","326547.3341","327313.774358","328081.466153","328830.88823","334190.620089","Mapping"
"Mixed","Both","tile","25","m150dime.wav","None","719.650150859","155","337313.908849","329597.320759","330363.833055","331130.758098","331897.276887","332664.079188","333430.794302","334180.75867","338063.391523","324247.589756","325013.757941","325780.746674","326547.3341","327313.774358","328081.466153","328830.88823","337323.993491","Mapping"
"Mixed","Both","tile","25","m160tile.wav","None","735.406902502","155","337313.908849","329597.320759","330363.833055","331130.758098","331897.276887","332664.079188","333430.794302","334180.75867","338063.391523","338830.515056","325013.757941","325780.746674","326547.3341","327313.774358","328081.466153","328830.88823","338072.676641","Mapping"
"Mixed","Both","tile","25","m160romp.wav","space","446.04771852","155","337313.908849","329597.320759","330363.833055","331130.758098","331897.276887","332664.079188","333430.794302","334180.75867","338063.391523","338830.515056","339597.160606","325780.746674","326547.3341","327313.774358","328081.466153","328830.88823","338839.72721","Mapping"
"Mixed","Both","tile","25","m160cave.wav","None","729.405213846","155","337313.908849","329597.320759","330363.833055","331130.758098","331897.276887","332664.079188","333430.794302","334180.75867","338063.391523","338830.515056","339597.160606","340363.702274","326547.3341","327313.774358","328081.466153","328830.88823","339606.809314","Mapping"
"Mixed","Both","tile","25","m150tile.wav","None","727.705065161","155","337313.908849","329597.320759","330363.833055","331130.758098","331897.276887","332664.079188","333430.794302","334180.75867","338063.391523","338830.515056","339597.160606","340363.702274","341130.560227","327313.774358","328081.466153","328830.88823","340372.960803","Mapping"
"Mixed","Both","tile","25","m160romp.wav","space","465.189927141","155","337313.908849","329597.320759","330363.833055","331130.758098","331897.276887","332664.079188","333430.794302","334180.75867","338063.391523","338830.515056","339597.160606","340363.702274","341130.560227","341897.471667","328081.466153","328830.88823","341140.537277","Mapping"
"Mixed","Both","tile","25","m150tile.wav","None","719.458153704","155","337313.908849","329597.320759","330363.833055","331130.758098","331897.276887","332664.079188","333430.794302","334180.75867","338063.391523","338830.515056","339597.160606","340363.702274","341130.560227","341897.471667","342647.220231","328830.88823","341908.596989","Mapping"
"Mixed","Both","tile","25","m160cad.wav","space","716.757208342","155","337313.908849","329597.320759","330363.833055","331130.758098","331897.276887","332664.079188","333430.794302","334180.75867","338063.391523","338830.515056","339597.160606","340363.702274","341130.560227","341897.471667","342647.220231","343413.651523","342656.970038","Mapping"
"Mixed","Both","tile","25","m150romp.wav","None","732.91155789","155","337313.908849","344180.501746","330363.833055","331130.758098","331897.276887","332664.079188","333430.794302","334180.75867","338063.391523","338830.515056","339597.160606","340363.702274","341130.560227","341897.471667","342647.220231","343413.651523","343422.714963","Mapping"
"Mixed","Both","tile","25","m150jolt.wav","None","729.728919221","155","337313.908849","344180.501746","344946.771341","331130.758098","331897.276887","332664.079188","333430.794302","334180.75867","338063.391523","338830.515056","339597.160606","340363.702274","341130.560227","341897.471667","342647.220231","343413.651523","344190.327919","Mapping"
"Mixed","Both","tile","25","m160romp.wav","None","727.982085315","155","337313.908849","344180.501746","344946.771341","345713.567459","331897.276887","332664.079188","333430.794302","334180.75867","338063.391523","338830.515056","339597.160606","340363.702274","341130.560227","341897.471667","342647.220231","343413.651523","344956.566287","Mapping"
"Mixed","Both","tile","25","m160tile.wav","None","726.319346577","155","337313.908849","344180.501746","344946.771341","345713.567459","346480.649872","332664.079188","333430.794302","334180.75867","338063.391523","338830.515056","339597.160606","340363.702274","341130.560227","341897.471667","342647.220231","343413.651523","345722.735709","Mapping"
"Mixed","Both","tile","25","m150ball.wav","space","475.088446983","155","337313.908849","344180.501746","344946.771341","345713.567459","346480.649872","347247.384773","333430.794302","334180.75867","338063.391523","338830.515056","339597.160606","340363.702274","341130.560227","341897.471667","342647.220231","343413.651523","346490.559213","Mapping"
"Mixed","Both","tile","25","m160cling.wav","None","719.067666796","155","337313.908849","344180.501746","344946.771341","345713.567459","346480.649872","347247.384773","347996.618253","334180.75867","338063.391523","338830.515056","339597.160606","340363.702274","341130.560227","341897.471667","342647.220231","343413.651523","347257.615964","Mapping"
"Mixed","Both","tile","25","m150lash.wav","None","735.557779553","155","337313.908849","344180.501746","344946.771341","345713.567459","346480.649872","347247.384773","347996.618253","348763.417154","338063.391523","338830.515056","339597.160606","340363.702274","341130.560227","341897.471667","342647.220231","343413.651523","348005.682003","Mapping"
"Mixed","Both","ball","7","m160jolt.wav","None","733.317812788","155","351897.291418","344180.501746","344946.771341","345713.567459","346480.649872","347247.384773","347996.618253","348763.417154","338063.391523","338830.515056","339597.160606","340363.702274","341130.560227","341897.471667","342647.220231","343413.651523","348772.536554","Mapping"
"Mixed","Both","ball","7","m150tile.wav","None","720.071864431","155","351897.291418","344180.501746","344946.771341","345713.567459","346480.649872","347247.384773","347996.618253","348763.417154","352646.510367","338830.515056","339597.160606","340363.702274","341130.560227","341897.471667","342647.220231","343413.651523","351906.779355","Mapping"
"Mixed","Both","ball","7","m150ball.wav","None","735.932498588","155","351897.291418","344180.501746","344946.771341","345713.567459","346480.649872","347247.384773","347996.618253","348763.417154","352646.510367","353413.634209","339597.160606","340363.702274","341130.560227","341897.471667","342647.220231","343413.651523","352655.595759","Mapping"
"Mixed","Both","ball","7","m160priest.wav","space","294.249391533","155","351897.291418","344180.501746","344946.771341","345713.567459","346480.649872","347247.384773","347996.618253","348763.417154","352646.510367","353413.634209","354180.411158","340363.702274","341130.560227","341897.471667","342647.220231","343413.651523","353423.298375","Mapping"
"Mixed","Both","ball","7","m160ball.wav","None","728.827367304","155","351897.291418","344180.501746","344946.771341","345713.567459","346480.649872","347247.384773","347996.618253","348763.417154","352646.510367","353413.634209","354180.411158","354946.708578","341130.560227","341897.471667","342647.220231","343413.651523","354190.110261","Mapping"
"Mixed","Both","ball","7","m160depth.wav","space","480.392329628","155","351897.291418","344180.501746","344946.771341","345713.567459","346480.649872","347247.384773","347996.618253","348763.417154","352646.510367","353413.634209","354180.411158","354946.708578","355713.896729","341897.471667","342647.220231","343413.651523","354957.135477","Mapping"
"Mixed","Both","ball","7","m160cling.wav","None","722.446631175","155","351897.291418","344180.501746","344946.771341","345713.567459","346480.649872","347247.384773","347996.618253","348763.417154","352646.510367","353413.634209","354180.411158","354946.708578","355713.896729","356480.588037","342647.220231","343413.651523","355723.990647","Mapping"
"Mixed","Both","ball","7","m160priest.wav","None","720.5854028","155","351897.291418","344180.501746","344946.771341","345713.567459","346480.649872","347247.384773","347996.618253","348763.417154","352646.510367","353413.634209","354180.411158","354946.708578","355713.896729","356480.588037","357230.05989","343413.651523","356490.399679","Mapping"
"Mixed","Both","ball","7","m150reek.wav","None","735.829543672","155","351897.291418","344180.501746","344946.771341","345713.567459","346480.649872","347247.384773","347996.618253","348763.417154","352646.510367","353413.634209","354180.411158","354946.708578","355713.896729","356480.588037","357230.05989","357996.577442","357239.532986","Mapping"
"Mixed","Both","ball","7","m150dime.wav","None","733.857012587","155","351897.291418","358763.441888","344946.771341","345713.567459","346480.649872","347247.384773","347996.618253","348763.417154","352646.510367","353413.634209","354180.411158","354946.708578","355713.896729","356480.588037","357230.05989","357996.577442","358005.936144","Mapping"
"Mixed","Both","ball","7","m150depth.wav","None","732.505921391","155","351897.291418","358763.441888","359530.283454","345713.567459","346480.649872","347247.384773","347996.618253","348763.417154","352646.510367","353413.634209","354180.411158","354946.708578","355713.896729","356480.588037","357230.05989","357996.577442","358772.776164","Mapping"
"Mixed","Both","ball","7","m150ball.wav","None","729.527337593","155","351897.291418","358763.441888","359530.283454","360296.540372","346480.649872","347247.384773","347996.618253","348763.417154","352646.510367","353413.634209","354180.411158","354946.708578","355713.896729","356480.588037","357230.05989","357996.577442","359540.23948","Mapping"
"Mixed","Both","ball","7","m160knife.wav","space","306.179804029","155","351897.291418","358763.441888","359530.283454","360296.540372","361063.368335","347247.384773","347996.618253","348763.417154","352646.510367","353413.634209","354180.411158","354946.708578","355713.896729","356480.588037","357230.05989","357996.577442","360307.279846","Mapping"
"Mixed","Both","ball","7","m160ball.wav","None","723.85986615","155","351897.291418","358763.441888","359530.283454","360296.540372","361063.368335","361830.623577","347996.618253","348763.417154","352646.510367","353413.634209","354180.411158","354946.708578","355713.896729","356480.588037","357230.05989","357996.577442","361073.404437","Mapping"
"Mixed","Both","ball","7","m150gnash.wav","space","356.991339708","155","351897.291418","358763.441888","359530.283454","360296.540372","361063.368335","361830.623577","362580.007933","348763.417154","352646.510367","353413.634209","354180.411158","354946.708578","355713.896729","356480.588037","357230.05989","357996.577442","361840.432745","Mapping"
"Mixed","Both","ball","7","m150cling.wav","None","735.092472518","155","351897.291418","358763.441888","359530.283454","360296.540372","361063.368335","361830.623577","362580.007933","363346.779008","352646.510367","353413.634209","354180.411158","354946.708578","355713.896729","356480.588037","357230.05989","357996.577442","362589.719094","Mapping"
"Mixed","Both","tile","30","m150knife.wav","None","733.058106503","155","366480.556501","358763.441888","359530.283454","360296.540372","361063.368335","361830.623577","362580.007933","363346.779008","352646.510367","353413.634209","354180.411158","354946.708578","355713.896729","356480.588037","357230.05989","357996.577442","363356.310538","Mapping"
"Mixed","Both","tile","30","m160done.wav","None","719.850186608","155","366480.556501","358763.441888","359530.283454","360296.540372","361063.368335","361830.623577","362580.007933","363346.779008","367229.850579","353413.634209","354180.411158","354946.708578","355713.896729","356480.588037","357230.05989","357996.577442","366490.629395","Mapping"
"Mixed","Both","tile","30","m150tile.wav","None","735.254479689","155","366480.556501","358763.441888","359530.283454","360296.540372","361063.368335","361830.623577","362580.007933","363346.779008","367229.850579","367996.786135","354180.411158","354946.708578","355713.896729","356480.588037","357230.05989","357996.577442","367239.752809","Mapping"
"Mixed","Both","tile","30","m160ball.wav","space","406.561850454","155","366480.556501","358763.441888","359530.283454","360296.540372","361063.368335","361830.623577","362580.007933","363346.779008","367229.850579","367996.786135","368763.240924","354946.708578","355713.896729","356480.588037","357230.05989","357996.577442","368006.854082","Mapping"
"Mixed","Both","tile","30","m160park.wav","None","729.987079627","155","366480.556501","358763.441888","359530.283454","360296.540372","361063.368335","361830.623577","362580.007933","363346.779008","367229.850579","367996.786135","368763.240924","369530.024366","355713.896729","356480.588037","357230.05989","357996.577442","368773.458821","Mapping"
"Mixed","Both","tile","30","m150park.wav","None","727.990742074","155","366480.556501","358763.441888","359530.283454","360296.540372","361063.368335","361830.623577","362580.007933","363346.779008","367229.850579","367996.786135","368763.240924","369530.024366","370296.704234","356480.588037","357230.05989","357996.577442","369540.035116","Mapping"
"Mixed","Both","tile","30","m150lash.wav","None","722.35016874","155","366480.556501","358763.441888","359530.283454","360296.540372","361063.368335","361830.623577","362580.007933","363346.779008","367229.850579","367996.786135","368763.240924","369530.024366","370296.704234","371063.186541","357230.05989","357996.577442","370310.404978","Mapping"
"Mixed","Both","tile","30","m150tile.wav","None","724.388553994","155","366480.556501","358763.441888","359530.283454","360296.540372","361063.368335","361830.623577","362580.007933","363346.779008","367229.850579","367996.786135","368763.240924","369530.024366","370296.704234","371063.186541","371830.279775","357996.577442","371072.974376","Mapping"
"Mixed","Both","tile","30","m150bluff.wav","space","384.201757261","155","366480.556501","358763.441888","359530.283454","360296.540372","361063.368335","361830.623577","362580.007933","363346.779008","367229.850579","367996.786135","368763.240924","369530.024366","370296.704234","371063.186541","371830.279775","372580.300412","371845.079014","Mapping"
"Mixed","Both","tile","30","m160priest.wav","None","735.757196904","155","366480.556501","373346.33287","359530.283454","360296.540372","361063.368335","361830.623577","362580.007933","363346.779008","367229.850579","367996.786135","368763.240924","369530.024366","370296.704234","371063.186541","371830.279775","372580.300412","372589.574709","Mapping"
"Mixed","Both","tile","30","m160tile.wav","None","735.089689842","155","366480.556501","373346.33287","374113.180311","360296.540372","361063.368335","361830.623577","362580.007933","363346.779008","367229.850579","367996.786135","368763.240924","369530.024366","370296.704234","371063.186541","371830.279775","372580.300412","373355.173705","Mapping"
"Mixed","Both","tile","30","m160gnash.wav","space","560.157715809","155","366480.556501","373346.33287","374113.180311","374880.05434","361063.368335","361830.623577","362580.007933","363346.779008","367229.850579","367996.786135","368763.240924","369530.024366","370296.704234","371063.186541","371830.279775","372580.300412","374133.084634","Mapping"
"Mixed","Both","tile","30","m160tile.wav","None","727.833063225","155","366480.556501","373346.33287","374113.180311","374880.05434","375646.564472","361830.623577","362580.007933","363346.779008","367229.850579","367996.786135","368763.240924","369530.024366","370296.704234","371063.186541","371830.279775","372580.300412","374890.150113","Mapping"
"Mixed","Both","tile","30","m160bluff.wav","space","466.162589146","155","366480.556501","373346.33287","374113.180311","374880.05434","375646.564472","376413.265055","362580.007933","363346.779008","367229.850579","367996.786135","368763.240924","369530.024366","370296.704234","371063.186541","371830.279775","372580.300412","375667.066738","Mapping"
"Mixed","Both","tile","30","m150knife.wav","None","722.972845542","155","366480.556501","373346.33287","374113.180311","374880.05434","375646.564472","376413.265055","377180.120535","363346.779008","367229.850579","367996.786135","368763.240924","369530.024366","370296.704234","371063.186541","371830.279775","372580.300412","376422.638597","Mapping"
"Mixed","Both","tile","30","m150knife.wav","None","719.749395736","155","366480.556501","373346.33287","374113.180311","374880.05434","375646.564472","376413.265055","377180.120535","377930.012246","367229.850579","367996.786135","368763.240924","369530.024366","370296.704234","371063.186541","371830.279775","372580.300412","377190.621017","Mapping"
"Mixed","Both","cave","15","m150cad.wav","None","733.645228203","155","381063.363388","373346.33287","374113.180311","374880.05434","375646.564472","376413.265055","377180.120535","377930.012246","367229.850579","367996.786135","368763.240924","369530.024366","370296.704234","371063.186541","371830.279775","372580.300412","377941.567012","Mapping"
"Mixed","Both","cave","15","m160cave.wav","None","718.160240678","155","381063.363388","373346.33287","374113.180311","374880.05434","375646.564472","376413.265055","377180.120535","377930.012246","381812.715591","367996.786135","368763.240924","369530.024366","370296.704234","371063.186541","371830.279775","372580.300412","381074.761403","Mapping"
"Mixed","Both","cave","15","m160cad.wav","space","389.458645252","155","381063.363388","373346.33287","374113.180311","374880.05434","375646.564472","376413.265055","377180.120535","377930.012246","381812.715591","382579.92322","368763.240924","369530.024366","370296.704234","371063.186541","371830.279775","372580.300412","381823.704568","Mapping"
"Mixed","Both","cave","15","m160cave.wav","None","731.153593631","155","381063.363388","373346.33287","374113.180311","374880.05434","375646.564472","376413.265055","377180.120535","377930.012246","381812.715591","382579.92322","383346.498278","369530.024366","370296.704234","371063.186541","371830.279775","372580.300412","382589.438364","Mapping"
"Mixed","Both","cave","15","m160cling.wav","space","320.72830305","155","381063.363388","373346.33287","374113.180311","374880.05434","375646.564472","376413.265055","377180.120535","377930.012246","381812.715591","382579.92322","383346.498278","384112.967599","370296.704234","371063.186541","371830.279775","372580.300412","383356.42215","Mapping"
"Mixed","Both","cave","15","m150cave.wav","None","725.936589064","155","381063.363388","373346.33287","374113.180311","374880.05434","375646.564472","376413.265055","377180.120535","377930.012246","381812.715591","382579.92322","383346.498278","384112.967599","384879.922014","371063.186541","371830.279775","372580.300412","384123.71542","Mapping"
"Mixed","Both","cave","15","m160priest.wav","space","451.888327603","155","381063.363388","373346.33287","374113.180311","374880.05434","375646.564472","376413.265055","377180.120535","377930.012246","381812.715591","382579.92322","383346.498278","384112.967599","384879.922014","385646.810575","371830.279775","372580.300412","384889.195693","Mapping"
"Mixed","Both","cave","15","m160ball.wav","None","718.70438708","155","381063.363388","373346.33287","374113.180311","374880.05434","375646.564472","376413.265055","377180.120535","377930.012246","381812.715591","382579.92322","383346.498278","384112.967599","384879.922014","385646.810575","386396.527603","372580.300412","385658.466441","Mapping"
"Mixed","Both","cave","15","m150park.wav","None","735.382787068","155","381063.363388","373346.33287","374113.180311","374880.05434","375646.564472","376413.265055","377180.120535","377930.012246","381812.715591","382579.92322","383346.498278","384112.967599","384879.922014","385646.810575","386396.527603","387162.933853","386406.345119","Mapping"
"Mixed","Both","cave","15","m150cave.wav","None","733.67429059","155","381063.363388","387929.872191","374113.180311","374880.05434","375646.564472","376413.265055","377180.120535","377930.012246","381812.715591","382579.92322","383346.498278","384112.967599","384879.922014","385646.810575","386396.527603","387162.933853","387172.644704","Mapping"
"Mixed","Both","cave","15","m160jolt.wav","space","464.805623749","155","381063.363388","387929.872191","388696.384796","374880.05434","375646.564472","376413.265055","377180.120535","377930.012246","381812.715591","382579.92322","383346.498278","384112.967599","384879.922014","385646.810575","386396.527603","387162.933853","387940.253022","Mapping"
"Mixed","Both","cave","15","m160jaw.wav","None","727.721451432","155","381063.363388","387929.872191","388696.384796","389462.871739","375646.564472","376413.265055","377180.120535","377930.012246","381812.715591","382579.92322","383346.498278","384112.967599","384879.922014","385646.810575","386396.527603","387162.933853","388706.291045","Mapping"
"Mixed","Both","cave","15","m150tile.wav","None","725.851566065","155","381063.363388","387929.872191","388696.384796","389462.871739","390230.129454","376413.265055","377180.120535","377930.012246","381812.715591","382579.92322","383346.498278","384112.967599","384879.922014","385646.810575","386396.527603","387162.933853","389472.833331","Mapping"
"Mixed","Both","cave","15","m150bluff.wav","None","722.434573341","155","381063.363388","387929.872191","388696.384796","389462.871739","390230.129454","390996.573732","377180.120535","377930.012246","381812.715591","382579.92322","383346.498278","384112.967599","384879.922014","385646.810575","386396.527603","387162.933853","390240.901082","Mapping"
