"Condition","Talker","Target","Trial","current_stimulus","response_response","response_time_response","subject_nr","time_Audio1","time_Audio10","time_Audio11","time_Audio12","time_Audio13","time_Audio14","time_Audio15","time_Audio16","time_Audio2","time_Audio3","time_Audio4","time_Audio5","time_Audio6","time_Audio7","time_Audio8","time_Audio9","time_response","title"
"Mixed","Both","done","39","m150lash.wav","NA","NA","144","105603.917917","NA","NA","NA","NA","NA","NA","NA","NA","NA","NA","NA","NA","NA","NA","NA","NA","Mapping"
"Mixed","Both","done","39","m150greet.wav","None","714.864444104","144","105603.917917","NA","NA","NA","NA","NA","NA","NA","106353.396881","NA","NA","NA","NA","NA","NA","NA","105618.939762","Mapping"
"Mixed","Both","done","39","m160done.wav","None","735.348468646","144","105603.917917","NA","NA","NA","NA","NA","NA","NA","106353.396881","107120.068093","NA","NA","NA","NA","NA","NA","106362.596358","Mapping"
"Mixed","Both","done","39","m150greet.wav","space","466.430024826","144","105603.917917","NA","NA","NA","NA","NA","NA","NA","106353.396881","107120.068093","107886.678706","NA","NA","NA","NA","NA","107130.392036","Mapping"
"Mixed","Both","done","39","m160park.wav","None","729.786116397","144","105603.917917","NA","NA","NA","NA","NA","NA","NA","106353.396881","107120.068093","107886.678706","108653.200586","NA","NA","NA","NA","107896.149947","Mapping"
"Mixed","Both","done","39","m150lash.wav","None","727.326636086","144","105603.917917","NA","NA","NA","NA","NA","NA","NA","106353.396881","107120.068093","107886.678706","108653.200586","109419.972898","NA","NA","NA","108662.650804","Mapping"
"Mixed","Both","done","39","m160gnash.wav","None","725.418722257","144","105603.917917","NA","NA","NA","NA","NA","NA","NA","106353.396881","107120.068093","107886.678706","108653.200586","109419.972898","110186.806735","NA","NA","109428.871858","Mapping"
"Mixed","Both","done","39","m150done.wav","None","723.008709843","144","105603.917917","NA","NA","NA","NA","NA","NA","NA","106353.396881","107120.068093","107886.678706","108653.200586","109419.972898","110186.806735","110953.792067","NA","110196.025072","Mapping"
"Mixed","Both","done","39","m160tile.wav","space","432.774562971","144","105603.917917","NA","NA","NA","NA","NA","NA","NA","106353.396881","107120.068093","107886.678706","108653.200586","109419.972898","110186.806735","110953.792067","111703.154164","110963.984612","Mapping"
"Mixed","Both","done","39","m150done.wav","None","735.09649164","144","105603.917917","112470.071787","NA","NA","NA","NA","NA","NA","106353.396881","107120.068093","107886.678706","108653.200586","109419.972898","110186.806735","110953.792067","111703.154164","111712.214822","Mapping"
"Mixed","Both","done","39","m150jolt.wav","space","661.158419913","144","105603.917917","112470.071787","113237.321773","NA","NA","NA","NA","NA","106353.396881","107120.068093","107886.678706","108653.200586","109419.972898","110186.806735","110953.792067","111703.154164","112479.593733","Mapping"
"Mixed","Both","done","39","m150greet.wav","None","728.44615567","144","105603.917917","112470.071787","113237.321773","114003.546537","NA","NA","NA","NA","106353.396881","107120.068093","107886.678706","108653.200586","109419.972898","110186.806735","110953.792067","111703.154164","113247.125376","Mapping"
"Mixed","Both","done","39","m160done.wav","None","727.117325179","144","105603.917917","112470.071787","113237.321773","114003.546537","114769.973192","NA","NA","NA","106353.396881","107120.068093","107886.678706","108653.200586","109419.972898","110186.806735","110953.792067","111703.154164","114012.576277","Mapping"
"Mixed","Both","done","39","m160romp.wav","space","497.472655959","144","105603.917917","112470.071787","113237.321773","114003.546537","114769.973192","115537.315002","NA","NA","106353.396881","107120.068093","107886.678706","108653.200586","109419.972898","110186.806735","110953.792067","111703.154164","114779.2209","Mapping"
"Mixed","Both","done","39","m160gnash.wav","None","721.351227141","144","105603.917917","112470.071787","113237.321773","114003.546537","114769.973192","115537.315002","116303.821733","NA","106353.396881","107120.068093","107886.678706","108653.200586","109419.972898","110186.806735","110953.792067","111703.154164","115546.698437","Mapping"
"Mixed","Both","done","39","m160greet.wav","None","719.175568549","144","105603.917917","112470.071787","113237.321773","114003.546537","114769.973192","115537.315002","116303.821733","117053.413545","106353.396881","107120.068093","107886.678706","108653.200586","109419.972898","110186.806735","110953.792067","111703.154164","116313.655017","Mapping"
"Mixed","Both","done","40","m160lash.wav","None","734.142071102","144","120237.357019","112470.071787","113237.321773","114003.546537","114769.973192","115537.315002","116303.821733","117053.413545","106353.396881","107120.068093","107886.678706","108653.200586","109419.972898","110186.806735","110953.792067","111703.154164","117062.795126","Mapping"
"Mixed","Both","done","40","m160tile.wav","None","720.727622858","144","120237.357019","112470.071787","113237.321773","114003.546537","114769.973192","115537.315002","116303.821733","117053.413545","121003.731114","107120.068093","107886.678706","108653.200586","109419.972898","110186.806735","110953.792067","111703.154164","120247.272543","Mapping"
"Mixed","Both","done","40","m160done.wav","None","724.406795227","144","120237.357019","112470.071787","113237.321773","114003.546537","114769.973192","115537.315002","116303.821733","117053.413545","121003.731114","121753.424954","107886.678706","108653.200586","109419.972898","110186.806735","110953.792067","111703.154164","121008.2735","Mapping"
"Mixed","Both","done","40","m150cling.wav","space","418.278932571","144","120237.357019","112470.071787","113237.321773","114003.546537","114769.973192","115537.315002","116303.821733","117053.413545","121003.731114","121753.424954","122520.799537","108653.200586","109419.972898","110186.806735","110953.792067","111703.154164","121762.316184","Mapping"
"Mixed","Both","done","40","m150done.wav","None","730.846583843","144","120237.357019","112470.071787","113237.321773","114003.546537","114769.973192","115537.315002","116303.821733","117053.413545","121003.731114","121753.424954","122520.799537","123286.830758","109419.972898","110186.806735","110953.792067","111703.154164","122530.126084","Mapping"
"Mixed","Both","done","40","m160ball.wav","space","556.449790252","144","120237.357019","112470.071787","113237.321773","114003.546537","114769.973192","115537.315002","116303.821733","117053.413545","121003.731114","121753.424954","122520.799537","123286.830758","124053.122613","110186.806735","110953.792067","111703.154164","123296.116185","Mapping"
"Mixed","Both","done","40","m150lash.wav","None","727.399910218","144","120237.357019","112470.071787","113237.321773","114003.546537","114769.973192","115537.315002","116303.821733","117053.413545","121003.731114","121753.424954","122520.799537","123286.830758","124053.122613","124820.030033","110953.792067","111703.154164","124062.358263","Mapping"
"Mixed","Both","done","40","m160done.wav","None","724.55210716","144","120237.357019","112470.071787","113237.321773","114003.546537","114769.973192","115537.315002","116303.821733","117053.413545","121003.731114","121753.424954","122520.799537","123286.830758","124053.122613","124820.030033","125586.792142","111703.154164","124829.45057","Mapping"
"Mixed","Both","done","40","m150romp.wav","space","408.813256654","144","120237.357019","112470.071787","113237.321773","114003.546537","114769.973192","115537.315002","116303.821733","117053.413545","121003.731114","121753.424954","122520.799537","123286.830758","124053.122613","124820.030033","125586.792142","126353.792315","125595.737787","Mapping"
"Mixed","Both","done","40","m150jaw.wav","None","718.948016409","144","120237.357019","127103.160286","113237.321773","114003.546537","114769.973192","115537.315002","116303.821733","117053.413545","121003.731114","121753.424954","122520.799537","123286.830758","124053.122613","124820.030033","125586.792142","126353.792315","126363.529446","Mapping"
"Mixed","Both","done","40","m150reek.wav","None","734.222765546","144","120237.357019","127103.160286","127870.456029","114003.546537","114769.973192","115537.315002","116303.821733","117053.413545","121003.731114","121753.424954","122520.799537","123286.830758","124053.122613","124820.030033","125586.792142","126353.792315","127112.69398","Mapping"
"Mixed","Both","done","40","m160priest.wav","None","723.570169997","144","120237.357019","127103.160286","127870.456029","128636.389551","114769.973192","115537.315002","116303.821733","117053.413545","121003.731114","121753.424954","122520.799537","123286.830758","124053.122613","124820.030033","125586.792142","126353.792315","127887.723715","Mapping"
"Mixed","Both","done","40","m160dime.wav","None","730.151560274","144","120237.357019","127103.160286","127870.456029","128636.389551","129403.306247","115537.315002","116303.821733","117053.413545","121003.731114","121753.424954","122520.799537","123286.830758","124053.122613","124820.030033","125586.792142","126353.792315","128645.39363","Mapping"
"Mixed","Both","done","40","m150done.wav","None","727.386306622","144","120237.357019","127103.160286","127870.456029","128636.389551","129403.306247","130169.961072","116303.821733","117053.413545","121003.731114","121753.424954","122520.799537","123286.830758","124053.122613","124820.030033","125586.792142","126353.792315","129412.344335","Mapping"
"Mixed","Both","done","40","m160lash.wav","space","464.632486226","144","120237.357019","127103.160286","127870.456029","128636.389551","129403.306247","130169.961072","130937.10903","117053.413545","121003.731114","121753.424954","122520.799537","123286.830758","124053.122613","124820.030033","125586.792142","126353.792315","130179.865775","Mapping"
"Mixed","Both","done","40","m150lash.wav","None","721.050709835","144","120237.357019","127103.160286","127870.456029","128636.389551","129403.306247","130169.961072","130937.10903","131703.650388","121003.731114","121753.424954","122520.799537","123286.830758","124053.122613","124820.030033","125586.792142","126353.792315","130947.110505","Mapping"
"Mixed","Both","done","45","m150gnash.wav","None","718.641315587","144","134820.192041","127103.160286","127870.456029","128636.389551","129403.306247","130169.961072","130937.10903","131703.650388","121003.731114","121753.424954","122520.799537","123286.830758","124053.122613","124820.030033","125586.792142","126353.792315","131713.956091","Mapping"
"Mixed","Both","done","45","m150park.wav","None","718.842897215","144","134820.192041","127103.160286","127870.456029","128636.389551","129403.306247","130169.961072","130937.10903","131703.650388","135569.583199","121753.424954","122520.799537","123286.830758","124053.122613","124820.030033","125586.792142","126353.792315","134831.28861","Mapping"
"Mixed","Both","done","45","m150tile.wav","None","735.466882354","144","134820.192041","127103.160286","127870.456029","128636.389551","129403.306247","130169.961072","130937.10903","131703.650388","135569.583199","136336.686327","122520.799537","123286.830758","124053.122613","124820.030033","125586.792142","126353.792315","135578.905418","Mapping"
"Mixed","Both","done","45","m160park.wav","None","732.385652722","144","134820.192041","127103.160286","127870.456029","128636.389551","129403.306247","130169.961072","130937.10903","131703.650388","135569.583199","136336.686327","137102.964578","123286.830758","124053.122613","124820.030033","125586.792142","126353.792315","136346.326686","Mapping"
"Mixed","Both","done","45","m160done.wav","None","730.722295819","144","134820.192041","127103.160286","127870.456029","128636.389551","129403.306247","130169.961072","130937.10903","131703.650388","135569.583199","136336.686327","137102.964578","137870.434696","124053.122613","124820.030033","125586.792142","126353.792315","137112.347396","Mapping"
"Mixed","Both","done","45","m160knife.wav","space","540.301624103","144","134820.192041","127103.160286","127870.456029","128636.389551","129403.306247","130169.961072","130937.10903","131703.650388","135569.583199","136336.686327","137102.964578","137870.434696","138636.674609","124820.030033","125586.792142","126353.792315","137880.052486","Mapping"
"Mixed","Both","done","45","m160dime.wav","None","724.9187876","144","134820.192041","127103.160286","127870.456029","128636.389551","129403.306247","130169.961072","130937.10903","131703.650388","135569.583199","136336.686327","137102.964578","137870.434696","138636.674609","139403.602126","125586.792142","126353.792315","138646.577148","Mapping"
"Mixed","Both","done","45","m160greet.wav","None","722.171775298","144","134820.192041","127103.160286","127870.456029","128636.389551","129403.306247","130169.961072","130937.10903","131703.650388","135569.583199","136336.686327","137102.964578","137870.434696","138636.674609","139403.602126","140170.207175","126353.792315","139414.234626","Mapping"
"Mixed","Both","done","45","m150done.wav","None","720.718965866","144","134820.192041","127103.160286","127870.456029","128636.389551","129403.306247","130169.961072","130937.10903","131703.650388","135569.583199","136336.686327","137102.964578","137870.434696","138636.674609","139403.602126","140170.207175","140920.257802","140180.054371","Mapping"
"Mixed","Both","done","45","m160ball.wav","space","458.362434409","144","134820.192041","141686.592323","127870.456029","128636.389551","129403.306247","130169.961072","130937.10903","131703.650388","135569.583199","136336.686327","137102.964578","137870.434696","138636.674609","139403.602126","140170.207175","140920.257802","140929.934953","Mapping"
"Mixed","Both","done","45","m150depth.wav","None","732.95051395","144","134820.192041","141686.592323","142452.921278","128636.389551","129403.306247","130169.961072","130937.10903","131703.650388","135569.583199","136336.686327","137102.964578","137870.434696","138636.674609","139403.602126","140170.207175","140920.257802","141696.284005","Mapping"
"Mixed","Both","done","45","m150cave.wav","None","731.319311075","144","134820.192041","141686.592323","142452.921278","143219.470366","129403.306247","130169.961072","130937.10903","131703.650388","135569.583199","136336.686327","137102.964578","137870.434696","138636.674609","139403.602126","140170.207175","140920.257802","142462.344598","Mapping"
"Mixed","Both","done","45","m160done.wav","None","729.460555944","144","134820.192041","141686.592323","142452.921278","143219.470366","143986.352434","130169.961072","130937.10903","131703.650388","135569.583199","136336.686327","137102.964578","137870.434696","138636.674609","139403.602126","140170.207175","140920.257802","143228.851019","Mapping"
"Mixed","Both","done","45","m150cad.wav","space","376.668419689","144","134820.192041","141686.592323","142452.921278","143219.470366","143986.352434","144753.05209","130937.10903","131703.650388","135569.583199","136336.686327","137102.964578","137870.434696","138636.674609","139403.602126","140170.207175","140920.257802","143995.602307","Mapping"
"Mixed","Both","done","45","m150done.wav","None","724.812122644","144","134820.192041","141686.592323","142452.921278","143219.470366","143986.352434","144753.05209","145520.009906","131703.650388","135569.583199","136336.686327","137102.964578","137870.434696","138636.674609","139403.602126","140170.207175","140920.257802","144762.236108","Mapping"
"Mixed","Both","done","45","m160jolt.wav","space","657.051659655","144","134820.192041","141686.592323","142452.921278","143219.470366","143986.352434","144753.05209","145520.009906","146286.873424","135569.583199","136336.686327","137102.964578","137870.434696","138636.674609","139403.602126","140170.207175","140920.257802","145531.151924","Mapping"
"Mixed","Both","cave","17","m150tile.wav","None","718.832076062","144","149402.973575","141686.592323","142452.921278","143219.470366","143986.352434","144753.05209","145520.009906","146286.873424","135569.583199","136336.686327","137102.964578","137870.434696","138636.674609","139403.602126","140170.207175","140920.257802","146296.959921","Mapping"
"Mixed","Both","cave","17","m160ball.wav","None","723.597068107","144","149402.973575","141686.592323","142452.921278","143219.470366","143986.352434","144753.05209","145520.009906","146286.873424","150170.03651","136336.686327","137102.964578","137870.434696","138636.674609","139403.602126","140170.207175","140920.257802","149412.176762","Mapping"
"Mixed","Both","cave","17","m150cave.wav","None","719.747540774","144","149402.973575","141686.592323","142452.921278","143219.470366","143986.352434","144753.05209","145520.009906","146286.873424","150170.03651","150919.729732","137102.964578","137870.434696","138636.674609","139403.602126","140170.207175","140920.257802","150180.452897","Mapping"
"Mixed","Both","cave","17","m160tile.wav","space","482.352802996","144","149402.973575","141686.592323","142452.921278","143219.470366","143986.352434","144753.05209","145520.009906","146286.873424","150170.03651","150919.729732","151686.119286","137870.434696","138636.674609","139403.602126","140170.207175","140920.257802","150929.795206","Mapping"
"Mixed","Both","cave","17","m150reek.wav","None","732.172631775","144","149402.973575","141686.592323","142452.921278","143219.470366","143986.352434","144753.05209","145520.009906","146286.873424","150170.03651","150919.729732","151686.119286","152452.930245","138636.674609","139403.602126","140170.207175","140920.257802","151696.553914","Mapping"
"Mixed","Both","cave","17","m150cave.wav","None","730.854931404","144","149402.973575","141686.592323","142452.921278","143219.470366","143986.352434","144753.05209","145520.009906","146286.873424","150170.03651","150919.729732","151686.119286","152452.930245","153219.636702","139403.602126","140170.207175","140920.257802","152462.420964","Mapping"
"Mixed","Both","cave","17","m150jolt.wav","space","526.565943961","144","149402.973575","141686.592323","142452.921278","143219.470366","143986.352434","144753.05209","145520.009906","146286.873424","150170.03651","150919.729732","151686.119286","152452.930245","153219.636702","153986.106023","140170.207175","140920.257802","153229.551608","Mapping"
"Mixed","Both","cave","17","m150ball.wav","None","727.200183785","144","149402.973575","141686.592323","142452.921278","143219.470366","143986.352434","144753.05209","145520.009906","146286.873424","150170.03651","150919.729732","151686.119286","152452.930245","153219.636702","153986.106023","154752.918218","140920.257802","153995.382484","Mapping"
"Mixed","Both","cave","17","m160greet.wav","None","725.037819706","144","149402.973575","141686.592323","142452.921278","143219.470366","143986.352434","144753.05209","145520.009906","146286.873424","150170.03651","150919.729732","151686.119286","152452.930245","153219.636702","153986.106023","154752.918218","155520.097402","154762.057406","Mapping"
"Mixed","Both","cave","17","m150ball.wav","None","720.486776088","144","149402.973575","156286.825811","142452.921278","143219.470366","143986.352434","144753.05209","145520.009906","146286.873424","150170.03651","150919.729732","151686.119286","152452.930245","153219.636702","153986.106023","154752.918218","155520.097402","155530.907677","Mapping"
"Mixed","Both","cave","17","m160cave.wav","None","718.697894481","144","149402.973575","156286.825811","157036.088044","143219.470366","143986.352434","144753.05209","145520.009906","146286.873424","150170.03651","150919.729732","151686.119286","152452.930245","153219.636702","153986.106023","154752.918218","155520.097402","156297.012481","Mapping"
"Mixed","Both","cave","17","m160lash.wav","space","533.838956733","144","149402.973575","156286.825811","157036.088044","157802.898075","143986.352434","144753.05209","145520.009906","146286.873424","150170.03651","150919.729732","151686.119286","152452.930245","153219.636702","153986.106023","154752.918218","155520.097402","157046.223701","Mapping"
"Mixed","Both","cave","17","m160cave.wav","None","731.545935734","144","149402.973575","156286.825811","157036.088044","157802.898075","158569.547335","144753.05209","145520.009906","146286.873424","150170.03651","150919.729732","151686.119286","152452.930245","153219.636702","153986.106023","154752.918218","155520.097402","157812.660867","Mapping"
"Mixed","Both","cave","17","m160ball.wav","space","648.153936607","144","149402.973575","156286.825811","157036.088044","157802.898075","158569.547335","159336.36695","145520.009906","146286.873424","150170.03651","150919.729732","151686.119286","152452.930245","153219.636702","153986.106023","154752.918218","155520.097402","158579.893848","Mapping"
"Mixed","Both","cave","17","m150bluff.wav","None","726.864111493","144","149402.973575","156286.825811","157036.088044","157802.898075","158569.547335","159336.36695","160102.597279","146286.873424","150170.03651","150919.729732","151686.119286","152452.930245","153219.636702","153986.106023","154752.918218","155520.097402","159345.927852","Mapping"
"Mixed","Both","cave","17","m160depth.wav","None","724.749360234","144","149402.973575","156286.825811","157036.088044","157802.898075","158569.547335","159336.36695","160102.597279","160869.691441","150170.03651","150919.729732","151686.119286","152452.930245","153219.636702","153986.106023","154752.918218","155520.097402","160112.491471","Mapping"
"Mixed","Both","ball","5","m150bluff.wav","None","721.632266417","144","163986.710767","156286.825811","157036.088044","157802.898075","158569.547335","159336.36695","160102.597279","160869.691441","150170.03651","150919.729732","151686.119286","152452.930245","153219.636702","153986.106023","154752.918218","155520.097402","160880.13689","Mapping"
"Mixed","Both","ball","5","m150ball.wav","None","722.18939825","144","163986.710767","156286.825811","157036.088044","157802.898075","158569.547335","159336.36695","160102.597279","160869.691441","164735.436274","150919.729732","151686.119286","152452.930245","153219.636702","153986.106023","154752.918218","155520.097402","163994.376741","Mapping"
"Mixed","Both","ball","5","m160tile.wav","space","523.1443136","144","163986.710767","156286.825811","157036.088044","157802.898075","158569.547335","159336.36695","160102.597279","160869.691441","164735.436274","165502.777157","151686.119286","152452.930245","153219.636702","153986.106023","154752.918218","155520.097402","164744.795903","Mapping"
"Mixed","Both","ball","5","m150jaw.wav","None","732.649687445","144","163986.710767","156286.825811","157036.088044","157802.898075","158569.547335","159336.36695","160102.597279","160869.691441","164735.436274","165502.777157","166269.142595","152452.930245","153219.636702","153986.106023","154752.918218","155520.097402","165512.630228","Mapping"
"Mixed","Both","ball","5","m160dime.wav","None","731.629103539","144","163986.710767","156286.825811","157036.088044","157802.898075","158569.547335","159336.36695","160102.597279","160869.691441","164735.436274","165502.777157","166269.142595","167036.212023","153219.636702","153986.106023","154752.918218","155520.097402","166278.820365","Mapping"
"Mixed","Both","ball","5","m150bluff.wav","None","729.018127779","144","163986.710767","156286.825811","157036.088044","157802.898075","158569.547335","159336.36695","160102.597279","160869.691441","164735.436274","165502.777157","166269.142595","167036.212023","167802.380517","153986.106023","154752.918218","155520.097402","167045.929676","Mapping"
"Mixed","Both","ball","5","m160priest.wav","None","728.179029189","144","163986.710767","156286.825811","157036.088044","157802.898075","158569.547335","159336.36695","160102.597279","160869.691441","164735.436274","165502.777157","166269.142595","167036.212023","167802.380517","168569.439124","154752.918218","155520.097402","167811.413968","Mapping"
"Mixed","Both","ball","5","m160ball.wav","None","724.569729995","144","163986.710767","156286.825811","157036.088044","157802.898075","158569.547335","159336.36695","160102.597279","160869.691441","164735.436274","165502.777157","166269.142595","167036.212023","167802.380517","168569.439124","169336.234624","155520.097402","168579.555303","Mapping"
"Mixed","Both","ball","5","m150jolt.wav","space","545.701969066","144","163986.710767","156286.825811","157036.088044","157802.898075","158569.547335","159336.36695","160102.597279","160869.691441","164735.436274","165502.777157","166269.142595","167036.212023","167802.380517","168569.439124","169336.234624","170102.604081","169346.182302","Mapping"
"Mixed","Both","ball","5","m160greet.wav","None","720.75019253","144","163986.710767","170852.409533","157036.088044","157802.898075","158569.547335","159336.36695","160102.597279","160869.691441","164735.436274","165502.777157","166269.142595","167036.212023","167802.380517","168569.439124","169336.234624","170102.604081","170112.463027","Mapping"
"Mixed","Both","ball","5","m160knife.wav","None","735.487287748","144","163986.710767","170852.409533","171619.249863","157802.898075","158569.547335","159336.36695","160102.597279","160869.691441","164735.436274","165502.777157","166269.142595","167036.212023","167802.380517","168569.439124","169336.234624","170102.604081","170862.315473","Mapping"
"Mixed","Both","ball","5","m150jaw.wav","None","732.863945188","144","163986.710767","170852.409533","171619.249863","172386.178926","158569.547335","159336.36695","160102.597279","160869.691441","164735.436274","165502.777157","166269.142595","167036.212023","167802.380517","168569.439124","169336.234624","170102.604081","171629.474252","Mapping"
"Mixed","Both","ball","5","m150ball.wav","None","730.736517813","144","163986.710767","170852.409533","171619.249863","172386.178926","173152.651338","159336.36695","160102.597279","160869.691441","164735.436274","165502.777157","166269.142595","167036.212023","167802.380517","168569.439124","169336.234624","170102.604081","172396.269134","Mapping"
"Mixed","Both","ball","5","m150cave.wav","space","457.732337527","144","163986.710767","170852.409533","171619.249863","172386.178926","173152.651338","173919.37511","160102.597279","160869.691441","164735.436274","165502.777157","166269.142595","167036.212023","167802.380517","168569.439124","169336.234624","170102.604081","173162.121034","Mapping"
"Mixed","Both","ball","5","m160ball.wav","None","726.083446643","144","163986.710767","170852.409533","171619.249863","172386.178926","173152.651338","173919.37511","174686.043848","160869.691441","164735.436274","165502.777157","166269.142595","167036.212023","167802.380517","168569.439124","169336.234624","170102.604081","173929.4681","Mapping"
"Mixed","Both","ball","5","m160bluff.wav","space","676.772642299","144","163986.710767","170852.409533","171619.249863","172386.178926","173152.651338","173919.37511","174686.043848","175453.004137","164735.436274","165502.777157","166269.142595","167036.212023","167802.380517","168569.439124","169336.234624","170102.604081","174695.038651","Mapping"
"Mixed","Both","cave","20","m150priest.wav","None","720.942807966","144","178569.648126","170852.409533","171619.249863","172386.178926","173152.651338","173919.37511","174686.043848","175453.004137","164735.436274","165502.777157","166269.142595","167036.212023","167802.380517","168569.439124","169336.234624","170102.604081","175463.205029","Mapping"
"Mixed","Both","cave","20","m150jaw.wav","None","719.976329594","144","178569.648126","170852.409533","171619.249863","172386.178926","173152.651338","173919.37511","174686.043848","175453.004137","179319.171611","165502.777157","166269.142595","167036.212023","167802.380517","168569.439124","169336.234624","170102.604081","178579.597659","Mapping"
"Mixed","Both","cave","20","m150cave.wav","None","735.09680084","144","178569.648126","170852.409533","171619.249863","172386.178926","173152.651338","173919.37511","174686.043848","175453.004137","179319.171611","180086.032965","166269.142595","167036.212023","167802.380517","168569.439124","169336.234624","170102.604081","179329.193182","Mapping"
"Mixed","Both","cave","20","m150done.wav","space","427.982981782","144","178569.648126","170852.409533","171619.249863","172386.178926","173152.651338","173919.37511","174686.043848","175453.004137","179319.171611","180086.032965","180852.167759","167036.212023","167802.380517","168569.439124","169336.234624","170102.604081","180095.746598","Mapping"
"Mixed","Both","cave","20","m160cave.wav","None","733.264634735","144","178569.648126","170852.409533","171619.249863","172386.178926","173152.651338","173919.37511","174686.043848","175453.004137","179319.171611","180086.032965","180852.167759","181619.213999","167802.380517","168569.439124","169336.234624","170102.604081","180861.1638","Mapping"
"Mixed","Both","cave","20","m160romp.wav","None","730.133628123","144","178569.648126","170852.409533","171619.249863","172386.178926","173152.651338","173919.37511","174686.043848","175453.004137","179319.171611","180086.032965","180852.167759","181619.213999","182385.936224","168569.439124","169336.234624","170102.604081","181629.14189","Mapping"
"Mixed","Both","cave","20","m160cave.wav","space","40.0327972602","144","178569.648126","170852.409533","171619.249863","172386.178926","173152.651338","173919.37511","174686.043848","175453.004137","179319.171611","180086.032965","180852.167759","181619.213999","182385.936224","183152.510973","169336.234624","170102.604081","182395.684176","Mapping"
"Mixed","Both","cave","20","m150priest.wav","space","537.171854172","144","178569.648126","170852.409533","171619.249863","172386.178926","173152.651338","173919.37511","174686.043848","175453.004137","179319.171611","180086.032965","180852.167759","181619.213999","182385.936224","183152.510973","183919.602043","170102.604081","183162.537491","Mapping"
"Mixed","Both","cave","20","m160dime.wav","None","721.660401206","144","178569.648126","170852.409533","171619.249863","172386.178926","173152.651338","173919.37511","174686.043848","175453.004137","179319.171611","180086.032965","180852.167759","181619.213999","182385.936224","183152.510973","183919.602043","184686.296134","183930.244436","Mapping"
"Mixed","Both","cave","20","m160romp.wav","None","720.030125929","144","178569.648126","185452.699601","171619.249863","172386.178926","173152.651338","173919.37511","174686.043848","175453.004137","179319.171611","180086.032965","180852.167759","181619.213999","182385.936224","183152.510973","183919.602043","184686.296134","184696.497644","Mapping"
"Mixed","Both","cave","20","m150jaw.wav","None","718.589683645","144","178569.648126","185452.699601","186202.487739","172386.178926","173152.651338","173919.37511","174686.043848","175453.004137","179319.171611","180086.032965","180852.167759","181619.213999","182385.936224","183152.510973","183919.602043","184686.296134","185462.789499","Mapping"
"Mixed","Both","cave","20","m160ball.wav","None","733.464052202","144","178569.648126","185452.699601","186202.487739","186968.923669","173152.651338","173919.37511","174686.043848","175453.004137","179319.171611","180086.032965","180852.167759","181619.213999","182385.936224","183152.510973","183919.602043","184686.296134","186212.582584","Mapping"
"Mixed","Both","cave","20","m160reek.wav","None","731.052802992","144","178569.648126","185452.699601","186202.487739","186968.923669","187735.517587","173919.37511","174686.043848","175453.004137","179319.171611","180086.032965","180852.167759","181619.213999","182385.936224","183152.510973","183919.602043","184686.296134","186979.503609","Mapping"
"Mixed","Both","cave","20","m160dime.wav","None","730.482685729","144","178569.648126","185452.699601","186202.487739","186968.923669","187735.517587","188502.526107","174686.043848","175453.004137","179319.171611","180086.032965","180852.167759","181619.213999","182385.936224","183152.510973","183919.602043","184686.296134","187744.521357","Mapping"
"Mixed","Both","cave","20","m150cave.wav","None","728.047011769","144","178569.648126","185452.699601","186202.487739","186968.923669","187735.517587","188502.526107","189268.909787","175453.004137","179319.171611","180086.032965","180852.167759","181619.213999","182385.936224","183152.510973","183919.602043","184686.296134","188511.633451","Mapping"
"Mixed","Both","cave","20","m150knife.wav","space","405.21601541","144","178569.648126","185452.699601","186202.487739","186968.923669","187735.517587","188502.526107","189268.909787","190035.912124","179319.171611","180086.032965","180852.167759","181619.213999","182385.936224","183152.510973","183919.602043","184686.296134","189278.425858","Mapping"
"Mixed","Both","done","46","m160dime.wav","None","723.278309568","144","193152.782428","185452.699601","186202.487739","186968.923669","187735.517587","188502.526107","189268.909787","190035.912124","179319.171611","180086.032965","180852.167759","181619.213999","182385.936224","183152.510973","183919.602043","184686.296134","190045.573817","Mapping"
"Mixed","Both","done","46","m150park.wav","None","721.1783987","144","193152.782428","185452.699601","186202.487739","186968.923669","187735.517587","188502.526107","189268.909787","190035.912124","193918.804992","180086.032965","180852.167759","181619.213999","182385.936224","183152.510973","183919.602043","184686.296134","193162.827806","Mapping"
"Mixed","Both","done","46","m150jaw.wav","None","720.550775179","144","193152.782428","185452.699601","186202.487739","186968.923669","187735.517587","188502.526107","189268.909787","190035.912124","193918.804992","194668.75823","180852.167759","181619.213999","182385.936224","183152.510973","183919.602043","184686.296134","193928.25892","Mapping"
"Mixed","Both","done","46","m150done.wav","None","735.280759516","144","193152.782428","185452.699601","186202.487739","186968.923669","187735.517587","188502.526107","189268.909787","190035.912124","193918.804992","194668.75823","195435.76335","181619.213999","182385.936224","183152.510973","183919.602043","184686.296134","194678.028199","Mapping"
"Mixed","Both","done","46","m160jolt.wav","space","397.571375244","144","193152.782428","185452.699601","186202.487739","186968.923669","187735.517587","188502.526107","189268.909787","190035.912124","193918.804992","194668.75823","195435.76335","196202.347065","182385.936224","183152.510973","183919.602043","184686.296134","195445.909827","Mapping"
"Mixed","Both","done","46","m160done.wav","None","729.88907143","144","193152.782428","185452.699601","186202.487739","186968.923669","187735.517587","188502.526107","189268.909787","190035.912124","193918.804992","194668.75823","195435.76335","196202.347065","196968.978393","183152.510973","183919.602043","184686.296134","196212.086978","Mapping"
"Mixed","Both","done","46","m150bluff.wav","space","472.747071064","144","193152.782428","185452.699601","186202.487739","186968.923669","187735.517587","188502.526107","189268.909787","190035.912124","193918.804992","194668.75823","195435.76335","196202.347065","196968.978393","197735.766163","183919.602043","184686.296134","196978.738403","Mapping"
"Mixed","Both","done","46","m160done.wav","None","725.839817547","144","193152.782428","185452.699601","186202.487739","186968.923669","187735.517587","188502.526107","189268.909787","190035.912124","193918.804992","194668.75823","195435.76335","196202.347065","196968.978393","197735.766163","198502.671728","184686.296134","197745.144961","Mapping"
"Mixed","Both","done","46","m150romp.wav","space","426.56634585","144","193152.782428","185452.699601","186202.487739","186968.923669","187735.517587","188502.526107","189268.909787","190035.912124","193918.804992","194668.75823","195435.76335","196202.347065","196968.978393","197735.766163","198502.671728","199269.32408","198512.907248","Mapping"
"Mixed","Both","done","46","m150tile.wav","None","720.215630368","144","193152.782428","200036.682895","186202.487739","186968.923669","187735.517587","188502.526107","189268.909787","190035.912124","193918.804992","194668.75823","195435.76335","196202.347065","196968.978393","197735.766163","198502.671728","199269.32408","199279.638749","Mapping"
"Mixed","Both","done","46","m160gnash.wav","None","717.167791561","144","193152.782428","200036.682895","200785.558661","186968.923669","187735.517587","188502.526107","189268.909787","190035.912124","193918.804992","194668.75823","195435.76335","196202.347065","196968.978393","197735.766163","198502.671728","199269.32408","200047.529343","Mapping"
"Mixed","Both","done","46","m160jolt.wav","None","734.664884629","144","193152.782428","200036.682895","200785.558661","201552.284287","187735.517587","188502.526107","189268.909787","190035.912124","193918.804992","194668.75823","195435.76335","196202.347065","196968.978393","197735.766163","198502.671728","199269.32408","200794.878716","Mapping"
"Mixed","Both","done","46","m150done.wav","None","732.05112631","144","193152.782428","200036.682895","200785.558661","201552.284287","202318.895209","188502.526107","189268.909787","190035.912124","193918.804992","194668.75823","195435.76335","196202.347065","196968.978393","197735.766163","198502.671728","199269.32408","201562.337703","Mapping"
"Mixed","Both","done","46","m150greet.wav","space","402.848978061","144","193152.782428","200036.682895","200785.558661","201552.284287","202318.895209","203085.247044","189268.909787","190035.912124","193918.804992","194668.75823","195435.76335","196202.347065","196968.978393","197735.766163","198502.671728","199269.32408","202328.524748","Mapping"
"Mixed","Both","done","46","m160tile.wav","None","728.60970872","144","193152.782428","200036.682895","200785.558661","201552.284287","202318.895209","203085.247044","203852.226193","190035.912124","193918.804992","194668.75823","195435.76335","196202.347065","196968.978393","197735.766163","198502.671728","199269.32408","203094.568027","Mapping"
"Mixed","Both","done","46","m160gnash.wav","None","726.467750152","144","193152.782428","200036.682895","200785.558661","201552.284287","202318.895209","203085.247044","203852.226193","204618.895859","193918.804992","194668.75823","195435.76335","196202.347065","196968.978393","197735.766163","198502.671728","199269.32408","203861.944464","Mapping"
"Mixed","Both","cave","15","m160priest.wav","None","724.200576078","144","207735.830471","200036.682895","200785.558661","201552.284287","202318.895209","203085.247044","203852.226193","204618.895859","193918.804992","194668.75823","195435.76335","196202.347065","196968.978393","197735.766163","198502.671728","199269.32408","204628.985757","Mapping"
"Mixed","Both","cave","15","m150jaw.wav","None","719.943866367","144","207735.830471","200036.682895","200785.558661","201552.284287","202318.895209","203085.247044","203852.226193","204618.895859","208485.452583","194668.75823","195435.76335","196202.347065","196968.978393","197735.766163","198502.671728","199269.32408","207745.906148","Mapping"
"Mixed","Both","cave","15","m160dime.wav","None","735.528098885","144","207735.830471","200036.682895","200785.558661","201552.284287","202318.895209","203085.247044","203852.226193","204618.895859","208485.452583","209252.105553","195435.76335","196202.347065","196968.978393","197735.766163","198502.671728","199269.32408","208495.109019","Mapping"
"Mixed","Both","cave","15","m160cave.wav","None","733.569789678","144","207735.830471","200036.682895","200785.558661","201552.284287","202318.895209","203085.247044","203852.226193","204618.895859","208485.452583","209252.105553","210018.807373","196202.347065","196968.978393","197735.766163","198502.671728","199269.32408","209261.838047","Mapping"
"Mixed","Both","cave","15","m160cling.wav","space","382.702571689","144","207735.830471","200036.682895","200785.558661","201552.284287","202318.895209","203085.247044","203852.226193","204618.895859","208485.452583","209252.105553","210018.807373","210785.261854","196968.978393","197735.766163","198502.671728","199269.32408","210028.621179","Mapping"
"Mixed","Both","cave","15","m160romp.wav","None","729.523009271","144","207735.830471","200036.682895","200785.558661","201552.284287","202318.895209","203085.247044","203852.226193","204618.895859","208485.452583","209252.105553","210018.807373","210785.261854","211551.748488","197735.766163","198502.671728","199269.32408","210794.599841","Mapping"
"Mixed","Both","cave","15","m150park.wav","None","727.929834859","144","207735.830471","200036.682895","200785.558661","201552.284287","202318.895209","203085.247044","203852.226193","204618.895859","208485.452583","209252.105553","210018.807373","210785.261854","211551.748488","212318.752371","198502.671728","199269.32408","211560.814402","Mapping"
"Mixed","Both","cave","15","m150cave.wav","None","725.278357277","144","207735.830471","200036.682895","200785.558661","201552.284287","202318.895209","203085.247044","203852.226193","204618.895859","208485.452583","209252.105553","210018.807373","210785.261854","211551.748488","212318.752371","213085.450171","199269.32408","212328.197951","Mapping"
"Mixed","Both","cave","15","m150lash.wav","space","364.556522109","144","207735.830471","200036.682895","200785.558661","201552.284287","202318.895209","203085.247044","203852.226193","204618.895859","208485.452583","209252.105553","210018.807373","210785.261854","211551.748488","212318.752371","213085.450171","213852.413243","213094.664798","Mapping"
"Mixed","Both","cave","15","m150cave.wav","None","719.657261856","144","207735.830471","214601.966409","200785.558661","201552.284287","202318.895209","203085.247044","203852.226193","204618.895859","208485.452583","209252.105553","210018.807373","210785.261854","211551.748488","212318.752371","213085.450171","213852.413243","213862.652782","Mapping"
"Mixed","Both","cave","15","m160knife.wav","space","567.124337191","144","207735.830471","214601.966409","215368.432329","201552.284287","202318.895209","203085.247044","203852.226193","204618.895859","208485.452583","209252.105553","210018.807373","210785.261854","211551.748488","212318.752371","213085.450171","213852.413243","214612.08568","Mapping"
"Mixed","Both","cave","15","m150jolt.wav","None","733.49280539","144","207735.830471","214601.966409","215368.432329","216134.9842","202318.895209","203085.247044","203852.226193","204618.895859","208485.452583","209252.105553","210018.807373","210785.261854","211551.748488","212318.752371","213085.450171","213852.413243","215377.593778","Mapping"
"Mixed","Both","cave","15","m150dime.wav","None","731.365377898","144","207735.830471","214601.966409","215368.432329","216134.9842","216902.032295","203085.247044","203852.226193","204618.895859","208485.452583","209252.105553","210018.807373","210785.261854","211551.748488","212318.752371","213085.450171","213852.413243","216144.395152","Mapping"
"Mixed","Both","cave","15","m160cave.wav","None","728.954128805","144","207735.830471","214601.966409","215368.432329","216134.9842","216902.032295","217668.662077","203852.226193","204618.895859","208485.452583","209252.105553","210018.807373","210785.261854","211551.748488","212318.752371","213085.450171","213852.413243","216911.613292","Mapping"
"Mixed","Both","cave","15","m160knife.wav","space","444.432592718","144","207735.830471","214601.966409","215368.432329","216134.9842","216902.032295","217668.662077","218434.944038","204618.895859","208485.452583","209252.105553","210018.807373","210785.261854","211551.748488","212318.752371","213085.450171","213852.413243","217678.752594","Mapping"
"Mixed","Both","cave","15","m150tile.wav","None","726.317800698","144","207735.830471","214601.966409","215368.432329","216134.9842","216902.032295","217668.662077","218434.944038","219201.811266","208485.452583","209252.105553","210018.807373","210785.261854","211551.748488","212318.752371","213085.450171","213852.413243","218443.641725","Mapping"
"Mixed","Both","done","41","m150bluff.wav","None","723.649009364","144","222318.890881","214601.966409","215368.432329","216134.9842","216902.032295","217668.662077","218434.944038","219201.811266","208485.452583","209252.105553","210018.807373","210785.261854","211551.748488","212318.752371","213085.450171","213852.413243","219211.194083","Mapping"
"Mixed","Both","done","41","m160depth.wav","None","720.030435128","144","222318.890881","214601.966409","215368.432329","216134.9842","216902.032295","217668.662077","218434.944038","219201.811266","223068.37541","209252.105553","210018.807373","210785.261854","211551.748488","212318.752371","213085.450171","213852.413243","222328.846907","Mapping"
"Mixed","Both","done","41","m160done.wav","None","735.5893153","144","222318.890881","214601.966409","215368.432329","216134.9842","216902.032295","217668.662077","218434.944038","219201.811266","223068.37541","223835.406501","210018.807373","210785.261854","211551.748488","212318.752371","213085.450171","213852.413243","223078.095537","Mapping"
"Mixed","Both","done","41","m160priest.wav","space","478.519661818","144","222318.890881","214601.966409","215368.432329","216134.9842","216902.032295","217668.662077","218434.944038","219201.811266","223068.37541","223835.406501","224601.900246","210785.261854","211551.748488","212318.752371","213085.450171","213852.413243","223844.569804","Mapping"
"Mixed","Both","done","41","m150priest.wav","None","730.670972844","144","222318.890881","214601.966409","215368.432329","216134.9842","216902.032295","217668.662077","218434.944038","219201.811266","223068.37541","223835.406501","224601.900246","225368.839203","211551.748488","212318.752371","213085.450171","213852.413243","224611.861528","Mapping"
"Mixed","Both","done","41","m160tile.wav","None","728.608781123","144","222318.890881","214601.966409","215368.432329","216134.9842","216902.032295","217668.662077","218434.944038","219201.811266","223068.37541","223835.406501","224601.900246","225368.839203","226135.310688","212318.752371","213085.450171","213852.413243","225379.055244","Mapping"
"Mixed","Both","done","41","m150park.wav","None","727.929525659","144","222318.890881","214601.966409","215368.432329","216134.9842","216902.032295","217668.662077","218434.944038","219201.811266","223068.37541","223835.406501","224601.900246","225368.839203","226135.310688","226901.952218","213085.450171","213852.413243","226144.577874","Mapping"
"Mixed","Both","done","41","m150done.wav","None","726.876787608","144","222318.890881","214601.966409","215368.432329","216134.9842","216902.032295","217668.662077","218434.944038","219201.811266","223068.37541","223835.406501","224601.900246","225368.839203","226135.310688","226901.952218","227668.521712","213852.413243","226911.099445","Mapping"
"Mixed","Both","done","41","m160ball.wav","space","452.777821571","144","222318.890881","214601.966409","215368.432329","216134.9842","216902.032295","217668.662077","218434.944038","219201.811266","223068.37541","223835.406501","224601.900246","225368.839203","226135.310688","226901.952218","227668.521712","228435.053486","227678.257915","Mapping"
"Mixed","Both","done","41","m160done.wav","None","722.729216213","144","222318.890881","229201.665027","215368.432329","216134.9842","216902.032295","217668.662077","218434.944038","219201.811266","223068.37541","223835.406501","224601.900246","225368.839203","226135.310688","226901.952218","227668.521712","228435.053486","228444.187727","Mapping"
"Mixed","Both","done","41","m160priest.wav","space","543.314835522","144","222318.890881","229201.665027","229951.624138","216134.9842","216902.032295","217668.662077","218434.944038","219201.811266","223068.37541","223835.406501","224601.900246","225368.839203","226135.310688","226901.952218","227668.521712","228435.053486","229211.659699","Mapping"
"Mixed","Both","done","41","m150reek.wav","None","734.881306533","144","222318.890881","229201.665027","229951.624138","230718.113246","216902.032295","217668.662077","218434.944038","219201.811266","223068.37541","223835.406501","224601.900246","225368.839203","226135.310688","226901.952218","227668.521712","228435.053486","229961.22245","Mapping"
"Mixed","Both","done","41","m150done.wav","None","734.062613337","144","222318.890881","229201.665027","229951.624138","230718.113246","231485.592948","217668.662077","218434.944038","219201.811266","223068.37541","223835.406501","224601.900246","225368.839203","226135.310688","226901.952218","227668.521712","228435.053486","230726.963356","Mapping"
"Mixed","Both","done","41","m150jaw.wav","space","537.24512842","144","222318.890881","229201.665027","229951.624138","230718.113246","231485.592948","232251.796688","218434.944038","219201.811266","223068.37541","223835.406501","224601.900246","225368.839203","226135.310688","226901.952218","227668.521712","228435.053486","231489.711766","Mapping"
"Mixed","Both","done","41","m150romp.wav","None","728.856429807","144","222318.890881","229201.665027","229951.624138","230718.113246","231485.592948","232251.796688","233018.245913","219201.811266","223068.37541","223835.406501","224601.900246","225368.839203","226135.310688","226901.952218","227668.521712","228435.053486","232261.71314","Mapping"
"Mixed","Both","done","41","m160tile.wav","None","727.990432875","144","222318.890881","229201.665027","229951.624138","230718.113246","231485.592948","232251.796688","233018.245913","233785.195072","223068.37541","223835.406501","224601.900246","225368.839203","226135.310688","226901.952218","227668.521712","228435.053486","233027.373352","Mapping"
"Mixed","Both","done","43","m160lash.wav","None","725.482103066","144","236918.935773","229201.665027","229951.624138","230718.113246","231485.592948","232251.796688","233018.245913","233785.195072","223068.37541","223835.406501","224601.900246","225368.839203","226135.310688","226901.952218","227668.521712","228435.053486","233794.718254","Mapping"
"Mixed","Both","done","43","m150romp.wav","None","719.986532466","144","236918.935773","229201.665027","229951.624138","230718.113246","231485.592948","232251.796688","233018.245913","233785.195072","237668.459259","223835.406501","224601.900246","225368.839203","226135.310688","226901.952218","227668.521712","228435.053486","236928.855317","Mapping"
"Mixed","Both","done","43","m150done.wav","None","735.625488684","144","236918.935773","229201.665027","229951.624138","230718.113246","231485.592948","232251.796688","233018.245913","233785.195072","237668.459259","238435.024423","224601.900246","225368.839203","226135.310688","226901.952218","227668.521712","228435.053486","237678.157124","Mapping"
"Mixed","Both","done","43","m160gnash.wav","space","477.492894395","144","236918.935773","229201.665027","229951.624138","230718.113246","231485.592948","232251.796688","233018.245913","233785.195072","237668.459259","238435.024423","239201.652041","225368.839203","226135.310688","226901.952218","227668.521712","228435.053486","238445.347439","Mapping"
"Mixed","Both","done","43","m160done.wav","None","731.803168543","144","236918.935773","229201.665027","229951.624138","230718.113246","231485.592948","232251.796688","233018.245913","233785.195072","237668.459259","238435.024423","239201.652041","239968.367774","226135.310688","226901.952218","227668.521712","228435.053486","239211.358564","Mapping"
"Mixed","Both","done","43","m160depth.wav","space","456.906842417","144","236918.935773","229201.665027","229951.624138","230718.113246","231485.592948","232251.796688","233018.245913","233785.195072","237668.459259","238435.024423","239201.652041","239968.367774","240735.086598","226901.952218","227668.521712","228435.053486","239977.937641","Mapping"
"Mixed","Both","done","43","m160park.wav","None","727.497918531","144","236918.935773","229201.665027","229951.624138","230718.113246","231485.592948","232251.796688","233018.245913","233785.195072","237668.459259","238435.024423","239201.652041","239968.367774","240735.086598","241501.691337","227668.521712","228435.053486","240744.61009","Mapping"
"Mixed","Both","done","43","m160park.wav","None","726.227830979","144","236918.935773","229201.665027","229951.624138","230718.113246","231485.592948","232251.796688","233018.245913","233785.195072","237668.459259","238435.024423","239201.652041","239968.367774","240735.086598","241501.691337","242268.647607","228435.053486","241510.878757","Mapping"
"Mixed","Both","done","43","m150greet.wav","None","723.050757428","144","236918.935773","229201.665027","229951.624138","230718.113246","231485.592948","232251.796688","233018.245913","233785.195072","237668.459259","238435.024423","239201.652041","239968.367774","240735.086598","241501.691337","242268.647607","243035.414045","242279.079762","Mapping"
"Mixed","Both","done","43","m150park.wav","None","721.60351323","144","236918.935773","243801.544201","229951.624138","230718.113246","231485.592948","232251.796688","233018.245913","233785.195072","237668.459259","238435.024423","239201.652041","239968.367774","240735.086598","241501.691337","242268.647607","243035.414045","243045.461586","Mapping"
"Mixed","Both","done","43","m160done.wav","None","721.457273816","144","236918.935773","243801.544201","244568.132554","230718.113246","231485.592948","232251.796688","233018.245913","233785.195072","237668.459259","238435.024423","239201.652041","239968.367774","240735.086598","241501.691337","242268.647607","243035.414045","243810.656182","Mapping"
"Mixed","Both","done","43","m150greet.wav","space","433.285627863","144","236918.935773","243801.544201","244568.132554","245334.931455","231485.592948","232251.796688","233018.245913","233785.195072","237668.459259","238435.024423","239201.652041","239968.367774","240735.086598","241501.691337","242268.647607","243035.414045","244577.457556","Mapping"
"Mixed","Both","done","43","m150done.wav","None","720.325387199","144","236918.935773","243801.544201","244568.132554","245334.931455","246084.764114","232251.796688","233018.245913","233785.195072","237668.459259","238435.024423","239201.652041","239968.367774","240735.086598","241501.691337","242268.647607","243035.414045","245344.252128","Mapping"
"Mixed","Both","done","43","m160tile.wav","space","434.483986814","144","236918.935773","243801.544201","244568.132554","245334.931455","246084.764114","246851.359269","233018.245913","233785.195072","237668.459259","238435.024423","239201.652041","239968.367774","240735.086598","241501.691337","242268.647607","243035.414045","246096.27374","Mapping"
"Mixed","Both","done","43","m150park.wav","None","733.032135875","144","236918.935773","243801.544201","244568.132554","245334.931455","246084.764114","246851.359269","247617.994925","233785.195072","237668.459259","238435.024423","239201.652041","239968.367774","240735.086598","241501.691337","242268.647607","243035.414045","246860.591209","Mapping"
"Mixed","Both","done","43","m150cave.wav","None","730.871317675","144","236918.935773","243801.544201","244568.132554","245334.931455","246084.764114","246851.359269","247617.994925","248384.967272","237668.459259","238435.024423","239201.652041","239968.367774","240735.086598","241501.691337","242268.647607","243035.414045","247627.664656","Mapping"
"Mixed","Both","tile","33","m160dime.wav","None","728.928467375","144","251518.516286","243801.544201","244568.132554","245334.931455","246084.764114","246851.359269","247617.994925","248384.967272","237668.459259","238435.024423","239201.652041","239968.367774","240735.086598","241501.691337","242268.647607","243035.414045","248394.666684","Mapping"
"Mixed","Both","tile","33","m160tile.wav","None","717.956803972","144","251518.516286","243801.544201","244568.132554","245334.931455","246084.764114","246851.359269","247617.994925","248384.967272","252268.135924","238435.024423","239201.652041","239968.367774","240735.086598","241501.691337","242268.647607","243035.414045","251530.650753","Mapping"
"Mixed","Both","tile","33","m150lash.wav","space","621.170762111","144","251518.516286","243801.544201","244568.132554","245334.931455","246084.764114","246851.359269","247617.994925","248384.967272","252268.135924","253034.440764","239201.652041","239968.367774","240735.086598","241501.691337","242268.647607","243035.414045","252277.462781","Mapping"
"Mixed","Both","tile","33","m160tile.wav","None","733.984083054","144","251518.516286","243801.544201","244568.132554","245334.931455","246084.764114","246851.359269","247617.994925","248384.967272","252268.135924","253034.440764","253801.460106","239968.367774","240735.086598","241501.691337","242268.647607","243035.414045","253043.746288","Mapping"
"Mixed","Both","tile","33","m160bluff.wav","space","431.325772777","144","251518.516286","243801.544201","244568.132554","245334.931455","246084.764114","246851.359269","247617.994925","248384.967272","252268.135924","253034.440764","253801.460106","254568.116786","240735.086598","241501.691337","242268.647607","243035.414045","253811.36079","Mapping"
"Mixed","Both","tile","33","m150tile.wav","None","722.246595426","144","251518.516286","243801.544201","244568.132554","245334.931455","246084.764114","246851.359269","247617.994925","248384.967272","252268.135924","253034.440764","253801.460106","254568.116786","255334.608058","241501.691337","242268.647607","243035.414045","254584.635961","Mapping"
"Mixed","Both","tile","33","m160cad.wav","space","410.975620733","144","251518.516286","243801.544201","244568.132554","245334.931455","246084.764114","246851.359269","247617.994925","248384.967272","252268.135924","253034.440764","253801.460106","254568.116786","255334.608058","256101.74365","242268.647607","243035.414045","255343.61492","Mapping"
"Mixed","Both","tile","33","m150gnash.wav","None","724.896218046","144","251518.516286","243801.544201","244568.132554","245334.931455","246084.764114","246851.359269","247617.994925","248384.967272","252268.135924","253034.440764","253801.460106","254568.116786","255334.608058","256101.74365","256868.356427","243035.414045","256111.608469","Mapping"
"Mixed","Both","tile","33","m150tile.wav","None","724.414833821","144","251518.516286","243801.544201","244568.132554","245334.931455","246084.764114","246851.359269","247617.994925","248384.967272","252268.135924","253034.440764","253801.460106","254568.116786","255334.608058","256101.74365","256868.356427","257634.797304","256877.439964","Mapping"
"Mixed","Both","tile","33","m150priest.wav","space","421.945119742","144","251518.516286","258401.317948","244568.132554","245334.931455","246084.764114","246851.359269","247617.994925","248384.967272","252268.135924","253034.440764","253801.460106","254568.116786","255334.608058","256101.74365","256868.356427","257634.797304","257644.598125","Mapping"
"Mixed","Both","tile","33","m160park.wav","None","720.605808194","144","251518.516286","258401.317948","259151.501211","245334.931455","246084.764114","246851.359269","247617.994925","248384.967272","252268.135924","253034.440764","253801.460106","254568.116786","255334.608058","256101.74365","256868.356427","257634.797304","258410.757344","Mapping"
"Mixed","Both","tile","33","m160ball.wav","None","735.31445954","144","251518.516286","258401.317948","259151.501211","259918.02711","246084.764114","246851.359269","247617.994925","248384.967272","252268.135924","253034.440764","253801.460106","254568.116786","255334.608058","256101.74365","256868.356427","257634.797304","259161.31007","Mapping"
"Mixed","Both","tile","33","m150gnash.wav","None","734.261412406","144","251518.516286","258401.317948","259151.501211","259918.02711","260684.814571","246851.359269","247617.994925","248384.967272","252268.135924","253034.440764","253801.460106","254568.116786","255334.608058","256101.74365","256868.356427","257634.797304","259927.514428","Mapping"
"Mixed","Both","tile","33","m160priest.wav","None","732.666691998","144","251518.516286","258401.317948","259151.501211","259918.02711","260684.814571","261451.991901","247617.994925","248384.967272","252268.135924","253034.440764","253801.460106","254568.116786","255334.608058","256101.74365","256868.356427","257634.797304","260694.254586","Mapping"
"Mixed","Both","tile","33","m150priest.wav","None","730.293162051","144","251518.516286","258401.317948","259151.501211","259918.02711","260684.814571","261451.991901","262217.99777","248384.967272","252268.135924","253034.440764","253801.460106","254568.116786","255334.608058","256101.74365","256868.356427","257634.797304","261461.968951","Mapping"
"Mixed","Both","tile","33","m150priest.wav","None","729.540013825","144","251518.516286","258401.317948","259151.501211","259918.02711","260684.814571","261451.991901","262217.99777","262984.739473","252268.135924","253034.440764","253801.460106","254568.116786","255334.608058","256101.74365","256868.356427","257634.797304","262227.892888","Mapping"
"Mixed","Both","ball","2","m160romp.wav","None","728.226332809","144","266118.243965","258401.317948","259151.501211","259918.02711","260684.814571","261451.991901","262217.99777","262984.739473","252268.135924","253034.440764","253801.460106","254568.116786","255334.608058","256101.74365","256868.356427","257634.797304","262994.928616","Mapping"
"Mixed","Both","ball","2","m160ball.wav","None","720.406081644","144","266118.243965","258401.317948","259151.501211","259918.02711","260684.814571","261451.991901","262217.99777","262984.739473","266867.978925","253034.440764","253801.460106","254568.116786","255334.608058","256101.74365","256868.356427","257634.797304","266128.285942","Mapping"
"Mixed","Both","ball","2","m160cling.wav","space","405.125736492","144","266118.243965","258401.317948","259151.501211","259918.02711","260684.814571","261451.991901","262217.99777","262984.739473","266867.978925","267634.804415","253801.460106","254568.116786","255334.608058","256101.74365","256868.356427","257634.797304","266877.277957","Mapping"
"Mixed","Both","ball","2","m160lash.wav","None","733.769516228","144","266118.243965","258401.317948","259151.501211","259918.02711","260684.814571","261451.991901","262217.99777","262984.739473","266867.978925","267634.804415","268401.184075","254568.116786","255334.608058","256101.74365","256868.356427","257634.797304","267643.928453","Mapping"
"Mixed","Both","ball","2","m160jolt.wav","None","731.67084204","144","266118.243965","258401.317948","259151.501211","259918.02711","260684.814571","261451.991901","262217.99777","262984.739473","266867.978925","267634.804415","268401.184075","269167.531581","255334.608058","256101.74365","256868.356427","257634.797304","268411.109184","Mapping"
"Mixed","Both","ball","2","m150ball.wav","None","731.17956426","144","266118.243965","258401.317948","259151.501211","259918.02711","260684.814571","261451.991901","262217.99777","262984.739473","266867.978925","267634.804415","268401.184075","269167.531581","269934.622651","256101.74365","256868.356427","257634.797304","269176.76785","Mapping"
"Mixed","Both","ball","2","m150depth.wav","space","409.621437895","144","266118.243965","258401.317948","259151.501211","259918.02711","260684.814571","261451.991901","262217.99777","262984.739473","266867.978925","267634.804415","268401.184075","269167.531581","269934.622651","270701.072494","256868.356427","257634.797304","269944.777786","Mapping"
"Mixed","Both","ball","2","m150romp.wav","None","726.967375609","144","266118.243965","258401.317948","259151.501211","259918.02711","260684.814571","261451.991901","262217.99777","262984.739473","266867.978925","267634.804415","268401.184075","269167.531581","269934.622651","270701.072494","271467.937249","257634.797304","270710.238271","Mapping"
"Mixed","Both","ball","2","m160ball.wav","None","723.368279287","144","266118.243965","258401.317948","259151.501211","259918.02711","260684.814571","261451.991901","262217.99777","262984.739473","266867.978925","267634.804415","268401.184075","269167.531581","269934.622651","270701.072494","271467.937249","272235.169611","271479.029181","Mapping"
"Mixed","Both","ball","2","m150done.wav","space","492.182376911","144","266118.243965","273001.540306","259151.501211","259918.02711","260684.814571","261451.991901","262217.99777","262984.739473","266867.978925","267634.804415","268401.184075","269167.531581","269934.622651","270701.072494","271467.937249","272235.169611","272246.154569","Mapping"
"Mixed","Both","ball","2","m150ball.wav","None","719.997662585","144","266118.243965","273001.540306","273751.603609","259918.02711","260684.814571","261451.991901","262217.99777","262984.739473","266867.978925","267634.804415","268401.184075","269167.531581","269934.622651","270701.072494","271467.937249","272235.169611","273011.610417","Mapping"
"Mixed","Both","ball","2","m150jaw.wav","space","545.496986597","144","266118.243965","273001.540306","273751.603609","274517.393674","260684.814571","261451.991901","262217.99777","262984.739473","266867.978925","267634.804415","268401.184075","269167.531581","269934.622651","270701.072494","271467.937249","272235.169611","273760.8541","Mapping"
"Mixed","Both","ball","2","m150jaw.wav","None","735.298691667","144","266118.243965","273001.540306","273751.603609","274517.393674","275284.480416","261451.991901","262217.99777","262984.739473","266867.978925","267634.804415","268401.184075","269167.531581","269934.622651","270701.072494","271467.937249","272235.169611","274526.119806","Mapping"
"Mixed","Both","ball","2","m150romp.wav","None","733.070164337","144","266118.243965","273001.540306","273751.603609","274517.393674","275284.480416","276051.1507","262217.99777","262984.739473","266867.978925","267634.804415","268401.184075","269167.531581","269934.622651","270701.072494","271467.937249","272235.169611","275294.091713","Mapping"
"Mixed","Both","ball","2","m160bluff.wav","None","732.112961006","144","266118.243965","273001.540306","273751.603609","274517.393674","275284.480416","276051.1507","276817.426168","262984.739473","266867.978925","267634.804415","268401.184075","269167.531581","269934.622651","270701.072494","271467.937249","272235.169611","276060.238256","Mapping"
"Mixed","Both","ball","2","m160jolt.wav","None","730.446203146","144","266118.243965","273001.540306","273751.603609","274517.393674","275284.480416","276051.1507","276817.426168","277584.251349","266867.978925","267634.804415","268401.184075","269167.531581","269934.622651","270701.072494","271467.937249","272235.169611","276827.067455","Mapping"
"Mixed","Both","ball","4","m160priest.wav","None","728.627950069","144","280718.174772","273001.540306","273751.603609","274517.393674","275284.480416","276051.1507","276817.426168","277584.251349","266867.978925","267634.804415","268401.184075","269167.531581","269934.622651","270701.072494","271467.937249","272235.169611","277594.072266","Mapping"
"Mixed","Both","ball","4","m150ball.wav","None","719.391372055","144","280718.174772","273001.540306","273751.603609","274517.393674","275284.480416","276051.1507","276817.426168","277584.251349","281468.022581","267634.804415","268401.184075","269167.531581","269934.622651","270701.072494","271467.937249","272235.169611","280728.629805","Mapping"
"Mixed","Both","ball","4","m150done.wav","space","372.94936378","144","280718.174772","273001.540306","273751.603609","274517.393674","275284.480416","276051.1507","276817.426168","277584.251349","281468.022581","282234.36885","268401.184075","269167.531581","269934.622651","270701.072494","271467.937249","272235.169611","281477.267507","Mapping"
"Mixed","Both","ball","4","m150bluff.wav","None","733.136636671","144","280718.174772","273001.540306","273751.603609","274517.393674","275284.480416","276051.1507","276817.426168","277584.251349","281468.022581","282234.36885","283001.067888","269167.531581","269934.622651","270701.072494","271467.937249","272235.169611","282244.147101","Mapping"
"Mixed","Both","ball","4","m160ball.wav","None","732.320417068","144","280718.174772","273001.540306","273751.603609","274517.393674","275284.480416","276051.1507","276817.426168","277584.251349","281468.022581","282234.36885","283001.067888","283767.425906","269934.622651","270701.072494","271467.937249","272235.169611","283010.210786","Mapping"
"Mixed","Both","ball","4","m150jaw.wav","space","401.585383224","144","280718.174772","273001.540306","273751.603609","274517.393674","275284.480416","276051.1507","276817.426168","277584.251349","281468.022581","282234.36885","283001.067888","283767.425906","284534.496879","270701.072494","271467.937249","272235.169611","283776.599103","Mapping"
"Mixed","Both","ball","4","m160tile.wav","None","727.998780552","144","280718.174772","273001.540306","273751.603609","274517.393674","275284.480416","276051.1507","276817.426168","277584.251349","281468.022581","282234.36885","283001.067888","283767.425906","284534.496879","285301.014431","271467.937249","272235.169611","284543.831775","Mapping"
"Mixed","Both","ball","4","m160ball.wav","None","726.210208144","144","280718.174772","273001.540306","273751.603609","274517.393674","275284.480416","276051.1507","276817.426168","277584.251349","281468.022581","282234.36885","283001.067888","283767.425906","284534.496879","285301.014431","286067.408932","272235.169611","285310.967366","Mapping"
"Mixed","Both","ball","4","m150knife.wav","space","397.388034966","144","280718.174772","273001.540306","273751.603609","274517.393674","275284.480416","276051.1507","276817.426168","277584.251349","281468.022581","282234.36885","283001.067888","283767.425906","284534.496879","285301.014431","286067.408932","286834.547615","286076.766397","Mapping"
"Mixed","Both","ball","4","m150cling.wav","None","722.585450276","144","280718.174772","287601.414224","273751.603609","274517.393674","275284.480416","276051.1507","276817.426168","277584.251349","281468.022581","282234.36885","283001.067888","283767.425906","284534.496879","285301.014431","286067.408932","286834.547615","286843.941562","Mapping"
"Mixed","Both","ball","4","m160tile.wav","None","720.325078117","144","280718.174772","287601.414224","288367.437407","274517.393674","275284.480416","276051.1507","276817.426168","277584.251349","281468.022581","282234.36885","283001.067888","283767.425906","284534.496879","285301.014431","286067.408932","286834.547615","287611.697048","Mapping"
"Mixed","Both","ball","4","m160lash.wav","None","720.292305574","144","280718.174772","287601.414224","288367.437407","289117.354471","275284.480416","276051.1507","276817.426168","277584.251349","281468.022581","282234.36885","283001.067888","283767.425906","284534.496879","285301.014431","286067.408932","286834.547615","288376.983777","Mapping"
"Mixed","Both","ball","4","m150ball.wav","None","735.486051184","144","280718.174772","287601.414224","288367.437407","289117.354471","289883.927056","276051.1507","276817.426168","277584.251349","281468.022581","282234.36885","283001.067888","283767.425906","284534.496879","285301.014431","286067.408932","286834.547615","289127.112317","Mapping"
"Mixed","Both","ball","4","m150depth.wav","space","517.13675051","144","280718.174772","287601.414224","288367.437407","289117.354471","289883.927056","290650.877761","276817.426168","277584.251349","281468.022581","282234.36885","283001.067888","283767.425906","284534.496879","285301.014431","286067.408932","286834.547615","289892.953705","Mapping"
"Mixed","Both","ball","4","m160greet.wav","None","730.893578264","144","280718.174772","287601.414224","288367.437407","289117.354471","289883.927056","290650.877761","291417.344299","277584.251349","281468.022581","282234.36885","283001.067888","283767.425906","284534.496879","285301.014431","286067.408932","286834.547615","290661.100604","Mapping"
"Mixed","Both","ball","4","m160dime.wav","None","730.629543541","144","280718.174772","287601.414224","288367.437407","289117.354471","289883.927056","290650.877761","291417.344299","292184.471852","281468.022581","282234.36885","283001.067888","283767.425906","284534.496879","285301.014431","286067.408932","286834.547615","291426.98775","Mapping"
"Mixed","Both","ball","11","m160jolt.wav","None","728.578172973","144","295317.733642","287601.414224","288367.437407","289117.354471","289883.927056","290650.877761","291417.344299","292184.471852","281468.022581","282234.36885","283001.067888","283767.425906","284534.496879","285301.014431","286067.408932","286834.547615","292194.422622","Mapping"
"Mixed","Both","ball","11","m150ball.wav","None","719.894707669","144","295317.733642","287601.414224","288367.437407","289117.354471","289883.927056","290650.877761","291417.344299","292184.471852","296067.786743","282234.36885","283001.067888","283767.425906","284534.496879","285301.014431","286067.408932","286834.547615","295327.920003","Mapping"
"Mixed","Both","ball","11","m160cad.wav","space","652.530605905","144","295317.733642","287601.414224","288367.437407","289117.354471","289883.927056","290650.877761","291417.344299","292184.471852","296067.786743","296834.163621","283001.067888","283767.425906","284534.496879","285301.014431","286067.408932","286834.547615","296077.468841","Mapping"
"Mixed","Both","ball","11","m160ball.wav","None","733.217640314","144","295317.733642","287601.414224","288367.437407","289117.354471","289883.927056","290650.877761","291417.344299","292184.471852","296067.786743","296834.163621","297600.790002","283767.425906","284534.496879","285301.014431","286067.408932","286834.547615","296843.95733","Mapping"
"Mixed","Both","ball","11","m160bluff.wav","space","543.061312637","144","295317.733642","287601.414224","288367.437407","289117.354471","289883.927056","290650.877761","291417.344299","292184.471852","296067.786743","296834.163621","297600.790002","298367.451629","284534.496879","285301.014431","286067.408932","286834.547615","297610.899378","Mapping"
"Mixed","Both","ball","11","m160park.wav","None","728.869415005","144","295317.733642","287601.414224","288367.437407","289117.354471","289883.927056","290650.877761","291417.344299","292184.471852","296067.786743","296834.163621","297600.790002","298367.451629","299133.735754","285301.014431","286067.408932","286834.547615","298377.73167","Mapping"
"Mixed","Both","ball","11","m160depth.wav","None","729.069759953","144","295317.733642","287601.414224","288367.437407","289117.354471","289883.927056","290650.877761","291417.344299","292184.471852","296067.786743","296834.163621","297600.790002","298367.451629","299133.735754","299900.739947","286067.408932","286834.547615","299142.938323","Mapping"
"Mixed","Both","ball","11","m150romp.wav","None","727.116706781","144","295317.733642","287601.414224","288367.437407","289117.354471","289883.927056","290650.877761","291417.344299","292184.471852","296067.786743","296834.163621","297600.790002","298367.451629","299133.735754","299900.739947","300667.109095","286834.547615","299910.314761","Mapping"
"Mixed","Both","ball","11","m150knife.wav","None","726.41859157","144","295317.733642","287601.414224","288367.437407","289117.354471","289883.927056","290650.877761","291417.344299","292184.471852","296067.786743","296834.163621","297600.790002","298367.451629","299133.735754","299900.739947","300667.109095","301434.079278","300676.393286","Mapping"
"Mixed","Both","ball","11","m150lash.wav","None","724.222836667","144","295317.733642","302201.20312","288367.437407","289117.354471","289883.927056","290650.877761","291417.344299","292184.471852","296067.786743","296834.163621","297600.790002","298367.451629","299133.735754","299900.739947","300667.109095","301434.079278","301443.896485","Mapping"
"Mixed","Both","ball","11","m160ball.wav","None","722.130964394","144","295317.733642","302201.20312","302967.789309","289117.354471","289883.927056","290650.877761","291417.344299","292184.471852","296067.786743","296834.163621","297600.790002","298367.451629","299133.735754","299900.739947","300667.109095","301434.079278","302211.385462","Mapping"
"Mixed","Both","ball","11","m150dime.wav","space","431.218180107","144","295317.733642","302201.20312","302967.789309","303734.282127","289883.927056","290650.877761","291417.344299","292184.471852","296067.786743","296834.163621","297600.790002","298367.451629","299133.735754","299900.739947","300667.109095","301434.079278","302978.688935","Mapping"
"Mixed","Both","ball","11","m150ball.wav","None","717.991740676","144","295317.733642","302201.20312","302967.789309","303734.282127","304483.796955","290650.877761","291417.344299","292184.471852","296067.786743","296834.163621","297600.790002","298367.451629","299133.735754","299900.739947","300667.109095","301434.079278","303745.110952","Mapping"
"Mixed","Both","ball","11","m160priest.wav","None","735.037748585","144","295317.733642","302201.20312","302967.789309","303734.282127","304483.796955","305250.656763","291417.344299","292184.471852","296067.786743","296834.163621","297600.790002","298367.451629","299133.735754","299900.739947","300667.109095","301434.079278","304493.753291","Mapping"
"Mixed","Both","ball","11","m150tile.wav","space","0.0333907082677","144","295317.733642","302201.20312","302967.789309","303734.282127","304483.796955","305250.656763","306017.055283","292184.471852","296067.786743","296834.163621","297600.790002","298367.451629","299133.735754","299900.739947","300667.109095","301434.079278","305260.080701","Mapping"
"Mixed","Both","ball","11","m150cling.wav","None","731.589838397","144","295317.733642","302201.20312","302967.789309","303734.282127","304483.796955","305250.656763","306017.055283","306783.781837","296067.786743","296834.163621","297600.790002","298367.451629","299133.735754","299900.739947","300667.109095","301434.079278","306026.547239","Mapping"
"Mixed","Both","ball","3","m150romp.wav","None","730.784439715","144","309917.687946","302201.20312","302967.789309","303734.282127","304483.796955","305250.656763","306017.055283","306783.781837","296067.786743","296834.163621","297600.790002","298367.451629","299133.735754","299900.739947","300667.109095","301434.079278","306793.213504","Mapping"
"Mixed","Both","ball","3","m150ball.wav","None","719.846167369","144","309917.687946","302201.20312","302967.789309","303734.282127","304483.796955","305250.656763","306017.055283","306783.781837","310683.765853","296834.163621","297600.790002","298367.451629","299133.735754","299900.739947","300667.109095","301434.079278","309927.885437","Mapping"
"Mixed","Both","ball","3","m150reek.wav","space","396.979306708","144","309917.687946","302201.20312","302967.789309","303734.282127","304483.796955","305250.656763","306017.055283","306783.781837","310683.765853","311433.800712","297600.790002","298367.451629","299133.735754","299900.739947","300667.109095","301434.079278","310692.775497","Mapping"
"Mixed","Both","ball","3","m160park.wav","None","733.575664111","144","309917.687946","302201.20312","302967.789309","303734.282127","304483.796955","305250.656763","306017.055283","306783.781837","310683.765853","311433.800712","312200.578279","298367.451629","299133.735754","299900.739947","300667.109095","301434.079278","311443.584837","Mapping"
"Mixed","Both","ball","3","m160ball.wav","None","732.29908396","144","309917.687946","302201.20312","302967.789309","303734.282127","304483.796955","305250.656763","306017.055283","306783.781837","310683.765853","311433.800712","312200.578279","312967.222284","299133.735754","299900.739947","300667.109095","301434.079278","312210.29315","Mapping"
"Mixed","Both","ball","3","m160knife.wav","space","560.575719341","144","309917.687946","302201.20312","302967.789309","303734.282127","304483.796955","305250.656763","306017.055283","306783.781837","310683.765853","311433.800712","312200.578279","312967.222284","313734.00758","299900.739947","300667.109095","301434.079278","312977.157904","Mapping"
"Mixed","Both","ball","3","m150jolt.wav","None","728.304244578","144","309917.687946","302201.20312","302967.789309","303734.282127","304483.796955","305250.656763","306017.055283","306783.781837","310683.765853","311433.800712","312200.578279","312967.222284","313734.00758","314500.660551","300667.109095","301434.079278","313744.136126","Mapping"
"Mixed","Both","ball","3","m160lash.wav","None","727.380123106","144","309917.687946","302201.20312","302967.789309","303734.282127","304483.796955","305250.656763","306017.055283","306783.781837","310683.765853","311433.800712","312200.578279","312967.222284","313734.00758","314500.660551","315267.219841","301434.079278","314510.479922","Mapping"
"Mixed","Both","ball","3","m160ball.wav","None","726.248854888","144","309917.687946","302201.20312","302967.789309","303734.282127","304483.796955","305250.656763","306017.055283","306783.781837","310683.765853","311433.800712","312200.578279","312967.222284","313734.00758","314500.660551","315267.219841","316033.646805","315277.232755","Mapping"
"Mixed","Both","ball","3","m160gnash.wav","space","382.515212172","144","309917.687946","316801.092498","302967.789309","303734.282127","304483.796955","305250.656763","306017.055283","306783.781837","310683.765853","311433.800712","312200.578279","312967.222284","313734.00758","314500.660551","315267.219841","316033.646805","316043.174316","Mapping"
"Mixed","Both","ball","3","m150bluff.wav","None","722.272566054","144","309917.687946","316801.092498","317567.484525","303734.282127","304483.796955","305250.656763","306017.055283","306783.781837","310683.765853","311433.800712","312200.578279","312967.222284","313734.00758","314500.660551","315267.219841","316033.646805","316810.552609","Mapping"
"Mixed","Both","ball","3","m150knife.wav","None","720.126279164","144","309917.687946","316801.092498","317567.484525","318333.751646","304483.796955","305250.656763","306017.055283","306783.781837","310683.765853","311433.800712","312200.578279","312967.222284","313734.00758","314500.660551","315267.219841","316033.646805","317578.196482","Mapping"
"Mixed","Both","ball","3","m160cad.wav","None","720.50316236","144","309917.687946","316801.092498","317567.484525","318333.751646","319084.089496","305250.656763","306017.055283","306783.781837","310683.765853","311433.800712","312200.578279","312967.222284","313734.00758","314500.660551","315267.219841","316033.646805","318343.324605","Mapping"
"Mixed","Both","ball","3","m150cad.wav","None","734.784535016","144","309917.687946","316801.092498","317567.484525","318333.751646","319084.089496","319850.43793","306017.055283","306783.781837","310683.765853","311433.800712","312200.578279","312967.222284","313734.00758","314500.660551","315267.219841","316033.646805","319094.530307","Mapping"
"Mixed","Both","ball","3","m150ball.wav","None","736.058023409","144","309917.687946","316801.092498","317567.484525","318333.751646","319084.089496","319850.43793","320616.749263","306783.781837","310683.765853","311433.800712","312200.578279","312967.222284","313734.00758","314500.660551","315267.219841","316033.646805","319859.582374","Mapping"
"Mixed","Both","ball","3","m160cling.wav","space","551.4754873","144","309917.687946","316801.092498","317567.484525","318333.751646","319084.089496","319850.43793","320616.749263","321383.906496","310683.765853","311433.800712","312200.578279","312967.222284","313734.00758","314500.660551","315267.219841","316033.646805","320626.148157","Mapping"
"Mixed","Both","done","44","m160bluff.wav","None","731.3585761","144","324517.532184","316801.092498","317567.484525","318333.751646","319084.089496","319850.43793","320616.749263","321383.906496","310683.765853","311433.800712","312200.578279","312967.222284","313734.00758","314500.660551","315267.219841","316033.646805","321393.729577","Mapping"
"Mixed","Both","done","44","m160done.wav","None","719.789897557","144","324517.532184","316801.092498","317567.484525","318333.751646","319084.089496","319850.43793","320616.749263","321383.906496","325267.466253","311433.800712","312200.578279","312967.222284","313734.00758","314500.660551","315267.219841","316033.646805","324527.55963","Mapping"
"Mixed","Both","done","44","m160cad.wav","space","668.946207734","144","324517.532184","316801.092498","317567.484525","318333.751646","319084.089496","319850.43793","320616.749263","321383.906496","325267.466253","326033.818088","312200.578279","312967.222284","313734.00758","314500.660551","315267.219841","316033.646805","325276.601422","Mapping"
"Mixed","Both","done","44","m160done.wav","None","733.401289792","144","324517.532184","316801.092498","317567.484525","318333.751646","319084.089496","319850.43793","320616.749263","321383.906496","325267.466253","326033.818088","326800.483425","312967.222284","313734.00758","314500.660551","315267.219841","316033.646805","326043.343743","Mapping"
"Mixed","Both","done","44","m160cave.wav","space","455.283678137","144","324517.532184","316801.092498","317567.484525","318333.751646","319084.089496","319850.43793","320616.749263","321383.906496","325267.466253","326033.818088","326800.483425","327567.012725","313734.00758","314500.660551","315267.219841","316033.646805","326810.280535","Mapping"
"Mixed","Both","done","44","m150ball.wav","None","728.681746288","144","324517.532184","316801.092498","317567.484525","318333.751646","319084.089496","319850.43793","320616.749263","321383.906496","325267.466253","326033.818088","326800.483425","327567.012725","328333.698468","314500.660551","315267.219841","316033.646805","327577.446426","Mapping"
"Mixed","Both","done","44","m160lash.wav","None","728.353094193","144","324517.532184","316801.092498","317567.484525","318333.751646","319084.089496","319850.43793","320616.749263","321383.906496","325267.466253","326033.818088","326800.483425","327567.012725","328333.698468","329100.417911","315267.219841","316033.646805","328343.30049","Mapping"
"Mixed","Both","done","44","m150done.wav","None","727.004167275","144","324517.532184","316801.092498","317567.484525","318333.751646","319084.089496","319850.43793","320616.749263","321383.906496","325267.466253","326033.818088","326800.483425","327567.012725","328333.698468","329100.417911","329867.004409","316033.646805","329110.127525","Mapping"
"Mixed","Both","done","44","m150cave.wav","space","396.800913149","144","324517.532184","316801.092498","317567.484525","318333.751646","319084.089496","319850.43793","320616.749263","321383.906496","325267.466253","326033.818088","326800.483425","327567.012725","328333.698468","329100.417911","329867.004409","330634.06518","329876.689598","Mapping"
"Mixed","Both","done","44","m150jaw.wav","None","722.919976804","144","324517.532184","331400.676411","317567.484525","318333.751646","319084.089496","319850.43793","320616.749263","321383.906496","325267.466253","326033.818088","326800.483425","327567.012725","328333.698468","329100.417911","329867.004409","330634.06518","330643.949786","Mapping"
"Mixed","Both","done","44","m150done.wav","None","721.242397791","144","324517.532184","331400.676411","332166.794819","318333.751646","319084.089496","319850.43793","320616.749263","321383.906496","325267.466253","326033.818088","326800.483425","327567.012725","328333.698468","329100.417911","329867.004409","330634.06518","331411.110421","Mapping"
"Mixed","Both","done","44","m150gnash.wav","space","496.993435896","144","324517.532184","331400.676411","332166.794819","332916.810819","319084.089496","319850.43793","320616.749263","321383.906496","325267.466253","326033.818088","326800.483425","327567.012725","328333.698468","329100.417911","329867.004409","330634.06518","332176.457439","Mapping"
"Mixed","Both","done","44","m160lash.wav","None","735.882412409","144","324517.532184","331400.676411","332166.794819","332916.810819","333683.381549","319850.43793","320616.749263","321383.906496","325267.466253","326033.818088","326800.483425","327567.012725","328333.698468","329100.417911","329867.004409","330634.06518","332926.336475","Mapping"
"Mixed","Both","done","44","m150reek.wav","None","735.223253141","144","324517.532184","331400.676411","332166.794819","332916.810819","333683.381549","334450.304428","320616.749263","321383.906496","325267.466253","326033.818088","326800.483425","327567.012725","328333.698468","329100.417911","329867.004409","330634.06518","333692.469723","Mapping"
"Mixed","Both","done","44","m150reek.wav","None","733.138491865","144","324517.532184","331400.676411","332166.794819","332916.810819","333683.381549","334450.304428","335216.955853","321383.906496","325267.466253","326033.818088","326800.483425","327567.012725","328333.698468","329100.417911","329867.004409","330634.06518","334460.225209","Mapping"
"Mixed","Both","done","44","m160cave.wav","None","732.966281823","144","324517.532184","331400.676411","332166.794819","332916.810819","333683.381549","334450.304428","335216.955853","335983.664165","325267.466253","326033.818088","326800.483425","327567.012725","328333.698468","329100.417911","329867.004409","330634.06518","335226.784499","Mapping"
"Mixed","Both","ball","8","m150romp.wav","None","732.133366517","144","339117.283361","331400.676411","332166.794819","332916.810819","333683.381549","334450.304428","335216.955853","335983.664165","325267.466253","326033.818088","326800.483425","327567.012725","328333.698468","329100.417911","329867.004409","330634.06518","335993.490957","Mapping"
"Mixed","Both","ball","8","m160ball.wav","None","719.750941615","144","339117.283361","331400.676411","332166.794819","332916.810819","333683.381549","334450.304428","335216.955853","335983.664165","339883.022722","326033.818088","326800.483425","327567.012725","328333.698468","329100.417911","329867.004409","330634.06518","339127.563093","Mapping"
"Mixed","Both","ball","8","m150cave.wav","space","437.341065146","144","339117.283361","331400.676411","332166.794819","332916.810819","333683.381549","334450.304428","335216.955853","335983.664165","339883.022722","340650.559621","326800.483425","327567.012725","328333.698468","329100.417911","329867.004409","330634.06518","339892.017834","Mapping"
"Mixed","Both","ball","8","m160greet.wav","None","719.848949811","144","339117.283361","331400.676411","332166.794819","332916.810819","333683.381549","334450.304428","335216.955853","335983.664165","339883.022722","340650.559621","341417.451583","327567.012725","328333.698468","329100.417911","329867.004409","330634.06518","340661.947742","Mapping"
"Mixed","Both","ball","8","m160cave.wav","None","718.885872397","144","339117.283361","331400.676411","332166.794819","332916.810819","333683.381549","334450.304428","335216.955853","335983.664165","339883.022722","340650.559621","341417.451583","342183.852885","328333.698468","329100.417911","329867.004409","330634.06518","341428.318745","Mapping"
"Mixed","Both","ball","8","m160ball.wav","None","718.886490795","144","339117.283361","331400.676411","332166.794819","332916.810819","333683.381549","334450.304428","335216.955853","335983.664165","339883.022722","340650.559621","341417.451583","342183.852885","342933.151292","329100.417911","329867.004409","330634.06518","342193.874765","Mapping"
"Mixed","Both","ball","8","m160gnash.wav","space","531.039075577","144","339117.283361","331400.676411","332166.794819","332916.810819","333683.381549","334450.304428","335216.955853","335983.664165","339883.022722","340650.559621","341417.451583","342183.852885","342933.151292","343699.937207","329867.004409","330634.06518","342942.307175","Mapping"
"Mixed","Both","ball","8","m150ball.wav","None","733.240519185","144","339117.283361","331400.676411","332166.794819","332916.810819","333683.381549","334450.304428","335216.955853","335983.664165","339883.022722","340650.559621","341417.451583","342183.852885","342933.151292","343699.937207","344466.754967","330634.06518","343709.165128","Mapping"
"Mixed","Both","ball","8","m150cling.wav","space","580.820752308","144","339117.283361","331400.676411","332166.794819","332916.810819","333683.381549","334450.304428","335216.955853","335983.664165","339883.022722","340650.559621","341417.451583","342183.852885","342933.151292","343699.937207","344466.754967","345233.537481","344476.484368","Mapping"
"Mixed","Both","ball","8","m160cad.wav","None","728.446773952","144","339117.283361","346000.08595","332166.794819","332916.810819","333683.381549","334450.304428","335216.955853","335983.664165","339883.022722","340650.559621","341417.451583","342183.852885","342933.151292","343699.937207","344466.754967","345233.537481","345243.673447","Mapping"
"Mixed","Both","ball","8","m160depth.wav","None","728.352784994","144","339117.283361","346000.08595","346766.400993","332916.810819","333683.381549","334450.304428","335216.955853","335983.664165","339883.022722","340650.559621","341417.451583","342183.852885","342933.151292","343699.937207","344466.754967","345233.537481","346009.317891","Mapping"
"Mixed","Both","ball","8","m150lash.wav","None","727.656524861","144","339117.283361","346000.08595","346766.400993","347533.515561","333683.381549","334450.304428","335216.955853","335983.664165","339883.022722","340650.559621","341417.451583","342183.852885","342933.151292","343699.937207","344466.754967","345233.537481","346775.52936","Mapping"
"Mixed","Both","ball","8","m150ball.wav","None","726.039543981","144","339117.283361","346000.08595","346766.400993","347533.515561","348300.062175","334450.304428","335216.955853","335983.664165","339883.022722","340650.559621","341417.451583","342183.852885","342933.151292","343699.937207","344466.754967","345233.537481","347542.946609","Mapping"
"Mixed","Both","ball","8","m160tile.wav","space","443.264532834","144","339117.283361","346000.08595","346766.400993","347533.515561","348300.062175","349067.055546","335216.955853","335983.664165","339883.022722","340650.559621","341417.451583","342183.852885","342933.151292","343699.937207","344466.754967","345233.537481","348309.96626","Mapping"
"Mixed","Both","ball","8","m150priest.wav","None","721.717907581","144","339117.283361","346000.08595","346766.400993","347533.515561","348300.062175","349067.055546","349833.83806","335983.664165","339883.022722","340650.559621","341417.451583","342183.852885","342933.151292","343699.937207","344466.754967","345233.537481","349077.4877","Mapping"
"Mixed","Both","ball","8","m150cave.wav","None","720.920856693","144","339117.283361","346000.08595","346766.400993","347533.515561","348300.062175","349067.055546","349833.83806","350600.439708","339883.022722","340650.559621","341417.451583","342183.852885","342933.151292","343699.937207","344466.754967","345233.537481","349843.989794","Mapping"
"Mixed","Both","ball","9","m150knife.wav","None","720.609209151","144","353717.109667","346000.08595","346766.400993","347533.515561","348300.062175","349067.055546","349833.83806","350600.439708","339883.022722","340650.559621","341417.451583","342183.852885","342933.151292","343699.937207","344466.754967","345233.537481","350610.207137","Mapping"
"Mixed","Both","ball","9","m160ball.wav","None","719.857916003","144","353717.109667","346000.08595","346766.400993","347533.515561","348300.062175","349067.055546","349833.83806","350600.439708","354483.743777","340650.559621","341417.451583","342183.852885","342933.151292","343699.937207","344466.754967","345233.537481","353727.082079","Mapping"
"Mixed","Both","ball","9","m160jaw.wav","space","635.053300182","144","353717.109667","346000.08595","346766.400993","347533.515561","348300.062175","349067.055546","349833.83806","350600.439708","354483.743777","355233.232635","341417.451583","342183.852885","342933.151292","343699.937207","344466.754967","345233.537481","354494.085653","Mapping"
"Mixed","Both","ball","9","m160park.wav","None","734.120737994","144","353717.109667","346000.08595","346766.400993","347533.515561","348300.062175","349067.055546","349833.83806","350600.439708","354483.743777","355233.232635","355999.705357","342183.852885","342933.151292","343699.937207","344466.754967","345233.537481","355242.929574","Mapping"
"Mixed","Both","ball","9","m150reek.wav","None","733.63440705","144","353717.109667","346000.08595","346766.400993","347533.515561","348300.062175","349067.055546","349833.83806","350600.439708","354483.743777","355233.232635","355999.705357","356766.933391","342933.151292","343699.937207","344466.754967","345233.537481","356008.998205","Mapping"
"Mixed","Both","ball","9","m150ball.wav","None","732.065039105","144","353717.109667","346000.08595","346766.400993","347533.515561","348300.062175","349067.055546","349833.83806","350600.439708","354483.743777","355233.232635","355999.705357","356766.933391","357533.030776","343699.937207","344466.754967","345233.537481","356776.276016","Mapping"
"Mixed","Both","ball","9","m150greet.wav","space","434.536855551","144","353717.109667","346000.08595","346766.400993","347533.515561","348300.062175","349067.055546","349833.83806","350600.439708","354483.743777","355233.232635","355999.705357","356766.933391","357533.030776","358299.891202","344466.754967","345233.537481","357542.573745","Mapping"
"Mixed","Both","ball","9","m150priest.wav","None","728.065562202","144","353717.109667","346000.08595","346766.400993","347533.515561","348300.062175","349067.055546","349833.83806","350600.439708","354483.743777","355233.232635","355999.705357","356766.933391","357533.030776","358299.891202","359066.563032","345233.537481","358309.991303","Mapping"
"Mixed","Both","ball","9","m150reek.wav","None","728.197270422","144","353717.109667","346000.08595","346766.400993","347533.515561","348300.062175","349067.055546","349833.83806","350600.439708","354483.743777","355233.232635","355999.705357","356766.933391","357533.030776","358299.891202","359066.563032","359833.329778","359076.152068","Mapping"
"Mixed","Both","ball","9","m150ball.wav","None","727.088881074","144","353717.109667","360599.873301","346766.400993","347533.515561","348300.062175","349067.055546","349833.83806","350600.439708","354483.743777","355233.232635","355999.705357","356766.933391","357533.030776","358299.891202","359066.563032","359833.329778","359842.851414","Mapping"
"Mixed","Both","ball","9","m160greet.wav","space","535.970403347","144","353717.109667","360599.873301","361366.816894","347533.515561","348300.062175","349067.055546","349833.83806","350600.439708","354483.743777","355233.232635","355999.705357","356766.933391","357533.030776","358299.891202","359066.563032","359833.329778","360609.06072","Mapping"
"Mixed","Both","ball","9","m160ball.wav","None","722.898952896","144","353717.109667","360599.873301","361366.816894","362134.237235","348300.062175","349067.055546","349833.83806","350600.439708","354483.743777","355233.232635","355999.705357","356766.933391","357533.030776","358299.891202","359066.563032","359833.329778","361376.875876","Mapping"
"Mixed","Both","ball","9","m160depth.wav","space","680.350714829","144","353717.109667","360599.873301","361366.816894","362134.237235","362900.583814","349067.055546","349833.83806","350600.439708","354483.743777","355233.232635","355999.705357","356766.933391","357533.030776","358299.891202","359066.563032","359833.329778","362144.699998","Mapping"
"Mixed","Both","ball","9","m150gnash.wav","None","719.527099514","144","353717.109667","360599.873301","361366.816894","362134.237235","362900.583814","363666.550417","349833.83806","350600.439708","354483.743777","355233.232635","355999.705357","356766.933391","357533.030776","358299.891202","359066.563032","359833.329778","362910.311978","Mapping"
