"Condition","Talker","Target","Trial","current_stimulus","response_response","response_time_response","subject_nr","time_Audio1","time_Audio10","time_Audio11","time_Audio12","time_Audio13","time_Audio14","time_Audio15","time_Audio16","time_Audio2","time_Audio3","time_Audio4","time_Audio5","time_Audio6","time_Audio7","time_Audio8","time_Audio9","time_response","title"
"Mixed","Both","cave","16","m160knife.wav","NA","NA","108","75045.2641931","NA","NA","NA","NA","NA","NA","NA","NA","NA","NA","NA","NA","NA","NA","NA","NA","Mapping"
"Mixed","Both","cave","16","m160done.wav","None","717.615730595","108","75045.2641931","NA","NA","NA","NA","NA","NA","NA","75794.7751584","NA","NA","NA","NA","NA","NA","NA","75058.6875658","Mapping"
"Mixed","Both","cave","16","m150jolt.wav","None","736.664200434","108","75045.2641931","NA","NA","NA","NA","NA","NA","NA","75794.7751584","76561.4795545","NA","NA","NA","NA","NA","NA","75803.7841562","Mapping"
"Mixed","Both","cave","16","m160cave.wav","None","734.132690355","108","75045.2641931","NA","NA","NA","NA","NA","NA","NA","75794.7751584","76561.4795545","77328.1224251","NA","NA","NA","NA","NA","76570.3896168","Mapping"
"Mixed","Both","cave","16","m150greet.wav","None","731.658377219","108","75045.2641931","NA","NA","NA","NA","NA","NA","NA","75794.7751584","76561.4795545","77328.1224251","78095.089","NA","NA","NA","NA","77337.034961","Mapping"
"Mixed","Both","cave","16","m150cave.wav","None","728.666508105","108","75045.2641931","NA","NA","NA","NA","NA","NA","NA","75794.7751584","76561.4795545","77328.1224251","78095.089","78861.8246226","NA","NA","NA","78104.1273694","Mapping"
"Mixed","Both","cave","16","m160jaw.wav","None","725.379687967","108","75045.2641931","NA","NA","NA","NA","NA","NA","NA","75794.7751584","76561.4795545","77328.1224251","78095.089","78861.8246226","79628.3846349","NA","NA","78871.5450279","Mapping"
"Mixed","Both","cave","16","m150jaw.wav","None","723.042029422","108","75045.2641931","NA","NA","NA","NA","NA","NA","NA","75794.7751584","76561.4795545","77328.1224251","78095.089","78861.8246226","79628.3846349","80395.0704806","NA","79638.0020855","Mapping"
"Mixed","Both","cave","16","m160cave.wav","None","720.78692005","108","75045.2641931","NA","NA","NA","NA","NA","NA","NA","75794.7751584","76561.4795545","77328.1224251","78095.089","78861.8246226","79628.3846349","80395.0704806","81144.647609","80404.5837398","Mapping"
"Mixed","Both","cave","16","m160jaw.wav","None","735.706691165","108","75045.2641931","81911.7585677","NA","NA","NA","NA","NA","NA","75794.7751584","76561.4795545","77328.1224251","78095.089","78861.8246226","79628.3846349","80395.0704806","81144.647609","81154.0569861","Mapping"
"Mixed","Both","cave","16","m150done.wav","None","732.919804053","108","75045.2641931","81911.7585677","82678.55788","NA","NA","NA","NA","NA","75794.7751584","76561.4795545","77328.1224251","78095.089","78861.8246226","79628.3846349","80395.0704806","81144.647609","81920.8266176","Mapping"
"Mixed","Both","cave","16","m150done.wav","None","730.004609795","108","75045.2641931","81911.7585677","82678.55788","83444.9357893","NA","NA","NA","NA","75794.7751584","76561.4795545","77328.1224251","78095.089","78861.8246226","79628.3846349","80395.0704806","81144.647609","82687.9542719","Mapping"
"Mixed","Both","cave","16","m160romp.wav","None","728.200893151","108","75045.2641931","81911.7585677","82678.55788","83444.9357893","84211.9462669","NA","NA","NA","75794.7751584","76561.4795545","77328.1224251","78095.089","78861.8246226","79628.3846349","80395.0704806","81144.647609","83453.8597646","Mapping"
"Mixed","Both","cave","16","m150cave.wav","None","724.972197553","108","75045.2641931","81911.7585677","82678.55788","83444.9357893","84211.9462669","84978.8404952","NA","NA","75794.7751584","76561.4795545","77328.1224251","78095.089","78861.8246226","79628.3846349","80395.0704806","81144.647609","84221.5992725","Mapping"
"Mixed","Both","cave","16","m160bluff.wav","None","722.282700008","108","75045.2641931","81911.7585677","82678.55788","83444.9357893","84211.9462669","84978.8404952","85745.3331077","NA","75794.7751584","76561.4795545","77328.1224251","78095.089","78861.8246226","79628.3846349","80395.0704806","81144.647609","84988.4452699","Mapping"
"Mixed","Both","cave","16","m150reek.wav","None","720.007185126","108","75045.2641931","81911.7585677","82678.55788","83444.9357893","84211.9462669","84978.8404952","85745.3331077","86494.9253856","75794.7751584","76561.4795545","77328.1224251","78095.089","78861.8246226","79628.3846349","80395.0704806","81144.647609","85754.8868689","Mapping"
"Mixed","Both","tile","34","m160romp.wav","None","735.178932315","108","89678.7514226","81911.7585677","82678.55788","83444.9357893","84211.9462669","84978.8404952","85745.3331077","86494.9253856","75794.7751584","76561.4795545","77328.1224251","78095.089","78861.8246226","79628.3846349","80395.0704806","81144.647609","86503.9693201","Mapping"
"Mixed","Both","tile","34","m160tile.wav","None","720.776099013","108","89678.7514226","81911.7585677","82678.55788","83444.9357893","84211.9462669","84978.8404952","85745.3331077","86494.9253856","90428.4917943","76561.4795545","77328.1224251","78095.089","78861.8246226","79628.3846349","80395.0704806","81144.647609","89688.384641","Mapping"
"Mixed","Both","tile","34","m160priest.wav","None","736.154373735","108","89678.7514226","81911.7585677","82678.55788","83444.9357893","84211.9462669","84978.8404952","85745.3331077","86494.9253856","90428.4917943","91194.8165258","77328.1224251","78095.089","78861.8246226","79628.3846349","80395.0704806","81144.647609","90437.507594","Mapping"
"Mixed","Both","tile","34","m150cad.wav","None","734.537397977","108","89678.7514226","81911.7585677","82678.55788","83444.9357893","84211.9462669","84978.8404952","85745.3331077","86494.9253856","90428.4917943","91194.8165258","91962.0740328","78095.089","78861.8246226","79628.3846349","80395.0704806","81144.647609","91204.2113717","Mapping"
"Mixed","Both","tile","34","m160tile.wav","None","731.999395182","108","89678.7514226","81911.7585677","82678.55788","83444.9357893","84211.9462669","84978.8404952","85745.3331077","86494.9253856","90428.4917943","91194.8165258","91962.0740328","92728.2370664","78861.8246226","79628.3846349","80395.0704806","81144.647609","91971.1529037","Mapping"
"Mixed","Both","tile","34","m160park.wav","None","730.167235015","108","89678.7514226","81911.7585677","82678.55788","83444.9357893","84211.9462669","84978.8404952","85745.3331077","86494.9253856","90428.4917943","91194.8165258","91962.0740328","92728.2370664","93494.8187207","79628.3846349","80395.0704806","81144.647609","92737.3576758","Mapping"
"Mixed","Both","tile","34","m150done.wav","None","728.362591006","108","89678.7514226","81911.7585677","82678.55788","83444.9357893","84211.9462669","84978.8404952","85745.3331077","86494.9253856","90428.4917943","91194.8165258","91962.0740328","92728.2370664","93494.8187207","94261.5982459","80395.0704806","81144.647609","93503.8403948","Mapping"
"Mixed","Both","tile","34","m150tile.wav","None","725.765226875","108","89678.7514226","81911.7585677","82678.55788","83444.9357893","84211.9462669","84978.8404952","85745.3331077","86494.9253856","90428.4917943","91194.8165258","91962.0740328","92728.2370664","93494.8187207","94261.5982459","95028.5410148","81144.647609","94270.741425","Mapping"
"Mixed","Both","tile","34","m150gnash.wav","None","722.194894915","108","89678.7514226","81911.7585677","82678.55788","83444.9357893","84211.9462669","84978.8404952","85745.3331077","86494.9253856","90428.4917943","91194.8165258","91962.0740328","92728.2370664","93494.8187207","94261.5982459","95028.5410148","95795.1650256","95038.702301","Mapping"
"Mixed","Both","tile","34","m150greet.wav","None","720.486403676","108","89678.7514226","96544.4159764","82678.55788","83444.9357893","84211.9462669","84978.8404952","85745.3331077","86494.9253856","90428.4917943","91194.8165258","91962.0740328","92728.2370664","93494.8187207","94261.5982459","95028.5410148","95795.1650256","95804.7138399","Mapping"
"Mixed","Both","tile","34","m150tile.wav","None","736.019883538","108","89678.7514226","96544.4159764","97311.6657541","83444.9357893","84211.9462669","84978.8404952","85745.3331077","86494.9253856","90428.4917943","91194.8165258","91962.0740328","92728.2370664","93494.8187207","94261.5982459","95028.5410148","95795.1650256","96553.437032","Mapping"
"Mixed","Both","tile","34","m160cling.wav","None","733.000189066","108","89678.7514226","96544.4159764","97311.6657541","98077.9790459","84211.9462669","84978.8404952","85745.3331077","86494.9253856","90428.4917943","91194.8165258","91962.0740328","92728.2370664","93494.8187207","94261.5982459","95028.5410148","95795.1650256","97320.7678129","Mapping"
"Mixed","Both","tile","34","m150dime.wav","None","731.381048914","108","89678.7514226","96544.4159764","97311.6657541","98077.9790459","98844.7214705","84978.8404952","85745.3331077","86494.9253856","90428.4917943","91194.8165258","91962.0740328","92728.2370664","93494.8187207","94261.5982459","95028.5410148","95795.1650256","98086.7969748","Mapping"
"Mixed","Both","tile","34","m150knife.wav","None","728.892822983","108","89678.7514226","96544.4159764","97311.6657541","98077.9790459","98844.7214705","99611.6596013","85745.3331077","86494.9253856","90428.4917943","91194.8165258","91962.0740328","92728.2370664","93494.8187207","94261.5982459","95028.5410148","95795.1650256","98853.7669508","Mapping"
"Mixed","Both","tile","34","m160park.wav","None","726.444789441","108","89678.7514226","96544.4159764","97311.6657541","98077.9790459","98844.7214705","99611.6596013","100378.575472","86494.9253856","90428.4917943","91194.8165258","91962.0740328","92728.2370664","93494.8187207","94261.5982459","95028.5410148","95795.1650256","99620.6352087","Mapping"
"Mixed","Both","tile","34","m160park.wav","None","723.366042832","108","89678.7514226","96544.4159764","97311.6657541","98077.9790459","98844.7214705","99611.6596013","100378.575472","101145.178769","90428.4917943","91194.8165258","91962.0740328","92728.2370664","93494.8187207","94261.5982459","95028.5410148","95795.1650256","100388.142218","Mapping"
"Mixed","Both","done","40","m150knife.wav","None","720.84999131","108","104261.864444","96544.4159764","97311.6657541","98077.9790459","98844.7214705","99611.6596013","100378.575472","101145.178769","90428.4917943","91194.8165258","91962.0740328","92728.2370664","93494.8187207","94261.5982459","95028.5410148","95795.1650256","101154.959772","Mapping"
"Mixed","Both","done","40","m160done.wav","None","721.166894073","108","104261.864444","96544.4159764","97311.6657541","98077.9790459","98844.7214705","99611.6596013","100378.575472","101145.178769","105028.229368","91194.8165258","91962.0740328","92728.2370664","93494.8187207","94261.5982459","95028.5410148","95795.1650256","104271.488697","Mapping"
"Mixed","Both","done","40","m160bluff.wav","None","719.708832912","108","104261.864444","96544.4159764","97311.6657541","98077.9790459","98844.7214705","99611.6596013","100378.575472","101145.178769","105028.229368","105777.753319","91962.0740328","92728.2370664","93494.8187207","94261.5982459","95028.5410148","95795.1650256","105037.631325","Mapping"
"Mixed","Both","done","40","m160cling.wav","None","735.149870161","108","104261.864444","96544.4159764","97311.6657541","98077.9790459","98844.7214705","99611.6596013","100378.575472","101145.178769","105028.229368","105777.753319","106544.253042","92728.2370664","93494.8187207","94261.5982459","95028.5410148","95795.1650256","105786.52178","Mapping"
"Mixed","Both","done","40","m150dime.wav","None","733.021521708","108","104261.864444","96544.4159764","97311.6657541","98077.9790459","98844.7214705","99611.6596013","100378.575472","101145.178769","105028.229368","105777.753319","106544.253042","107311.49509","93494.8187207","94261.5982459","95028.5410148","95795.1650256","106553.275644","Mapping"
"Mixed","Both","done","40","m160cave.wav","None","730.153631419","108","104261.864444","96544.4159764","97311.6657541","98077.9790459","98844.7214705","99611.6596013","100378.575472","101145.178769","105028.229368","105777.753319","106544.253042","107311.49509","108077.989867","94261.5982459","95028.5410148","95795.1650256","107320.500687","Mapping"
"Mixed","Both","done","40","m160cad.wav","None","727.834832156","108","104261.864444","96544.4159764","97311.6657541","98077.9790459","98844.7214705","99611.6596013","100378.575472","101145.178769","105028.229368","105777.753319","106544.253042","107311.49509","108077.989867","108844.553899","95028.5410148","95795.1650256","108087.081105","Mapping"
"Mixed","Both","done","40","m150done.wav","None","725.750695681","108","104261.864444","96544.4159764","97311.6657541","98077.9790459","98844.7214705","99611.6596013","100378.575472","101145.178769","105028.229368","105777.753319","106544.253042","107311.49509","108077.989867","108844.553899","109611.714016","95795.1650256","108853.547129","Mapping"
"Mixed","Both","done","40","m150tile.wav","None","722.875694046","108","104261.864444","96544.4159764","97311.6657541","98077.9790459","98844.7214705","99611.6596013","100378.575472","101145.178769","105028.229368","105777.753319","106544.253042","107311.49509","108077.989867","108844.553899","109611.714016","110378.507454","109621.568912","Mapping"
"Mixed","Both","done","40","m160done.wav","None","720.617493149","108","104261.864444","111128.0144","97311.6657541","98077.9790459","98844.7214705","99611.6596013","100378.575472","101145.178769","105028.229368","105777.753319","106544.253042","107311.49509","108077.989867","108844.553899","109611.714016","110378.507454","110388.132634","Mapping"
"Mixed","Both","done","40","m150knife.wav","None","735.805317527","108","104261.864444","111128.0144","111894.541021","98077.9790459","98844.7214705","99611.6596013","100378.575472","101145.178769","105028.229368","105777.753319","106544.253042","107311.49509","108077.989867","108844.553899","109611.714016","110378.507454","111137.410173","Mapping"
"Mixed","Both","done","40","m150done.wav","None","733.567212475","108","104261.864444","111128.0144","111894.541021","112661.361667","98844.7214705","99611.6596013","100378.575472","101145.178769","105028.229368","105777.753319","106544.253042","107311.49509","108077.989867","108844.553899","109611.714016","110378.507454","111904.105294","Mapping"
"Mixed","Both","done","40","m150knife.wav","None","731.812036363","108","104261.864444","111128.0144","111894.541021","112661.361667","113427.93992","99611.6596013","100378.575472","101145.178769","105028.229368","105777.753319","106544.253042","107311.49509","108077.989867","108844.553899","109611.714016","110378.507454","112670.396944","Mapping"
"Mixed","Both","done","40","m160jaw.wav","None","729.916495271","108","104261.864444","111128.0144","111894.541021","112661.361667","113427.93992","114194.172827","100378.575472","101145.178769","105028.229368","105777.753319","106544.253042","107311.49509","108077.989867","108844.553899","109611.714016","110378.507454","113436.999313","Mapping"
"Mixed","Both","done","40","m160greet.wav","None","728.272930719","108","104261.864444","111128.0144","111894.541021","112661.361667","113427.93992","114194.172827","114961.346239","101145.178769","105028.229368","105777.753319","106544.253042","107311.49509","108077.989867","108844.553899","109611.714016","110378.507454","114203.076088","Mapping"
"Mixed","Both","done","40","m150park.wav","None","725.282916799","108","104261.864444","111128.0144","111894.541021","112661.361667","113427.93992","114194.172827","114961.346239","115728.200893","105028.229368","105777.753319","106544.253042","107311.49509","108077.989867","108844.553899","109611.714016","110378.507454","114970.439641","Mapping"
"Mixed","Both","ball","4","m160jolt.wav","None","722.261985298","108","118844.833082","111128.0144","111894.541021","112661.361667","113427.93992","114194.172827","114961.346239","115728.200893","105028.229368","105777.753319","106544.253042","107311.49509","108077.989867","108844.553899","109611.714016","110378.507454","115737.825146","Mapping"
"Mixed","Both","ball","4","m150greet.wav","None","721.236766782","108","118844.833082","111128.0144","111894.541021","112661.361667","113427.93992","114194.172827","114961.346239","115728.200893","119594.528314","105777.753319","106544.253042","107311.49509","108077.989867","108844.553899","109611.714016","110378.507454","118854.248333","Mapping"
"Mixed","Both","ball","4","m160ball.wav","None","736.568356864","108","118844.833082","111128.0144","111894.541021","112661.361667","113427.93992","114194.172827","114961.346239","115728.200893","119594.528314","120361.115843","106544.253042","107311.49509","108077.989867","108844.553899","109611.714016","110378.507454","119603.429102","Mapping"
"Mixed","Both","ball","4","m150gnash.wav","None","734.636333538","108","118844.833082","111128.0144","111894.541021","112661.361667","113427.93992","114194.172827","114961.346239","115728.200893","119594.528314","120361.115843","121127.76366","107311.49509","108077.989867","108844.553899","109611.714016","110378.507454","120370.247273","Mapping"
"Mixed","Both","ball","4","m150cling.wav","None","732.594553614","108","118844.833082","111128.0144","111894.541021","112661.361667","113427.93992","114194.172827","114961.346239","115728.200893","119594.528314","120361.115843","121127.76366","121894.199385","108077.989867","108844.553899","109611.714016","110378.507454","121136.841913","Mapping"
"Mixed","Both","ball","4","m150ball.wav","None","730.613989988","108","118844.833082","111128.0144","111894.541021","112661.361667","113427.93992","114194.172827","114961.346239","115728.200893","119594.528314","120361.115843","121127.76366","121894.199385","122661.408043","108844.553899","109611.714016","110378.507454","121903.137892","Mapping"
"Mixed","Both","ball","4","m150dime.wav","None","727.366434876","108","118844.833082","111128.0144","111894.541021","112661.361667","113427.93992","114194.172827","114961.346239","115728.200893","119594.528314","120361.115843","121127.76366","121894.199385","122661.408043","123427.535522","109611.714016","110378.507454","122670.882965","Mapping"
"Mixed","Both","ball","4","m160jaw.wav","None","726.400268497","108","118844.833082","111128.0144","111894.541021","112661.361667","113427.93992","114194.172827","114961.346239","115728.200893","119594.528314","120361.115843","121127.76366","121894.199385","122661.408043","123427.535522","124194.775097","110378.507454","123436.326862","Mapping"
"Mixed","Both","ball","4","m160cling.wav","None","722.94340306","108","118844.833082","111128.0144","111894.541021","112661.361667","113427.93992","114194.172827","114961.346239","115728.200893","119594.528314","120361.115843","121127.76366","121894.199385","122661.408043","123427.535522","124194.775097","124961.461561","124204.241671","Mapping"
"Mixed","Both","ball","4","m150jaw.wav","None","720.432298258","108","118844.833082","125711.094958","111894.541021","112661.361667","113427.93992","114194.172827","114961.346239","115728.200893","119594.528314","120361.115843","121127.76366","121894.199385","122661.408043","123427.535522","124194.775097","124961.461561","124971.168362","Mapping"
"Mixed","Both","ball","4","m160ball.wav","None","735.626306152","108","118844.833082","125711.094958","126477.562528","112661.361667","113427.93992","114194.172827","114961.346239","115728.200893","119594.528314","120361.115843","121127.76366","121894.199385","122661.408043","123427.535522","124194.775097","124961.461561","125720.550402","Mapping"
"Mixed","Both","ball","4","m160romp.wav","None","734.279547585","108","118844.833082","125711.094958","126477.562528","127244.155003","113427.93992","114194.172827","114961.346239","115728.200893","119594.528314","120361.115843","121127.76366","121894.199385","122661.408043","123427.535522","124194.775097","124961.461561","126486.673244","Mapping"
"Mixed","Both","ball","4","m150cad.wav","None","732.538284035","108","118844.833082","125711.094958","126477.562528","127244.155003","128011.112612","114194.172827","114961.346239","115728.200893","119594.528314","120361.115843","121127.76366","121894.199385","122661.408043","123427.535522","124194.775097","124961.461561","127252.965512","Mapping"
"Mixed","Both","ball","4","m150ball.wav","None","729.857752565","108","118844.833082","125711.094958","126477.562528","127244.155003","128011.112612","128777.616355","114961.346239","115728.200893","119594.528314","120361.115843","121127.76366","121894.199385","122661.408043","123427.535522","124194.775097","124961.461561","128020.178189","Mapping"
"Mixed","Both","ball","4","m160reek.wav","None","727.676226525","108","118844.833082","125711.094958","126477.562528","127244.155003","128011.112612","128777.616355","129544.189971","115728.200893","119594.528314","120361.115843","121127.76366","121894.199385","122661.408043","123427.535522","124194.775097","124961.461561","128786.717796","Mapping"
"Mixed","Both","ball","4","m160reek.wav","None","725.240559783","108","118844.833082","125711.094958","126477.562528","127244.155003","128011.112612","128777.616355","129544.189971","130311.54765","119594.528314","120361.115843","121127.76366","121894.199385","122661.408043","123427.535522","124194.775097","124961.461561","129553.751152","Mapping"
"Mixed","Both","done","46","m150jaw.wav","None","722.412243485","108","133427.883032","125711.094958","126477.562528","127244.155003","128011.112612","128777.616355","129544.189971","130311.54765","119594.528314","120361.115843","121127.76366","121894.199385","122661.408043","123427.535522","124194.775097","124961.461561","130321.067711","Mapping"
"Mixed","Both","done","46","m160lash.wav","None","720.301827183","108","133427.883032","125711.094958","126477.562528","127244.155003","128011.112612","128777.616355","129544.189971","130311.54765","134177.806125","120361.115843","121127.76366","121894.199385","122661.408043","123427.535522","124194.775097","124961.461561","133438.006909","Mapping"
"Mixed","Both","done","46","m150cad.wav","None","736.015245784","108","133427.883032","125711.094958","126477.562528","127244.155003","128011.112612","128777.616355","129544.189971","130311.54765","134177.806125","134944.169503","121127.76366","121894.199385","122661.408043","123427.535522","124194.775097","124961.461561","134186.960126","Mapping"
"Mixed","Both","done","46","m150tile.wav","None","734.129289398","108","133427.883032","125711.094958","126477.562528","127244.155003","128011.112612","128777.616355","129544.189971","130311.54765","134177.806125","134944.169503","135710.972526","121894.199385","122661.408043","123427.535522","124194.775097","124961.461561","134953.190559","Mapping"
"Mixed","Both","done","46","m160cad.wav","None","731.722066877","108","133427.883032","125711.094958","126477.562528","127244.155003","128011.112612","128777.616355","129544.189971","130311.54765","134177.806125","134944.169503","135710.972526","136477.513988","122661.408043","123427.535522","124194.775097","124961.461561","135720.176612","Mapping"
"Mixed","Both","done","46","m160reek.wav","None","729.822815862","108","133427.883032","125711.094958","126477.562528","127244.155003","128011.112612","128777.616355","129544.189971","130311.54765","134177.806125","134944.169503","135710.972526","136477.513988","137244.007528","123427.535522","124194.775097","124961.461561","136486.705398","Mapping"
"Mixed","Both","done","46","m160done.wav","None","728.208622662","108","133427.883032","125711.094958","126477.562528","127244.155003","128011.112612","128777.616355","129544.189971","130311.54765","134177.806125","134944.169503","135710.972526","136477.513988","137244.007528","138010.286192","124194.775097","124961.461561","137253.008487","Mapping"
"Mixed","Both","done","46","m150depth.wav","None","728.573756292","108","133427.883032","125711.094958","126477.562528","127244.155003","128011.112612","128777.616355","129544.189971","130311.54765","134177.806125","134944.169503","135710.972526","136477.513988","137244.007528","138010.286192","138777.505362","124961.461561","138019.232737","Mapping"
"Mixed","Both","done","46","m150done.wav","None","725.135441171","108","133427.883032","125711.094958","126477.562528","127244.155003","128011.112612","128777.616355","129544.189971","130311.54765","134177.806125","134944.169503","135710.972526","136477.513988","137244.007528","138010.286192","138777.505362","139544.484922","138787.195159","Mapping"
"Mixed","Both","done","46","m160bluff.wav","None","722.992252326","108","133427.883032","140311.226419","126477.562528","127244.155003","128011.112612","128777.616355","129544.189971","130311.54765","134177.806125","134944.169503","135710.972526","136477.513988","137244.007528","138010.286192","138777.505362","139544.484922","139553.94253","Mapping"
"Mixed","Both","done","46","m150done.wav","None","720.977370627","108","133427.883032","140311.226419","141077.793233","127244.155003","128011.112612","128777.616355","129544.189971","130311.54765","134177.806125","134944.169503","135710.972526","136477.513988","137244.007528","138010.286192","138777.505362","139544.484922","140321.119343","Mapping"
"Mixed","Both","done","46","m150reek.wav","None","718.995261239","108","133427.883032","140311.226419","141077.793233","141827.238344","128011.112612","128777.616355","129544.189971","130311.54765","134177.806125","134944.169503","135710.972526","136477.513988","137244.007528","138010.286192","138777.505362","139544.484922","141087.612265","Mapping"
"Mixed","Both","done","46","m160lash.wav","None","734.916444402","108","133427.883032","140311.226419","141077.793233","141827.238344","142593.95047","128777.616355","129544.189971","130311.54765","134177.806125","134944.169503","135710.972526","136477.513988","137244.007528","138010.286192","138777.505362","139544.484922","141836.357717","Mapping"
"Mixed","Both","done","46","m160knife.wav","None","732.320935233","108","133427.883032","140311.226419","141077.793233","141827.238344","142593.95047","143360.4403","129544.189971","130311.54765","134177.806125","134944.169503","135710.972526","136477.513988","137244.007528","138010.286192","138777.505362","139544.484922","142603.489391","Mapping"
"Mixed","Both","done","46","m160done.wav","None","730.930583319","108","133427.883032","140311.226419","141077.793233","141827.238344","142593.95047","143360.4403","144127.542602","130311.54765","134177.806125","134944.169503","135710.972526","136477.513988","137244.007528","138010.286192","138777.505362","139544.484922","143369.398284","Mapping"
"Mixed","Both","done","46","m150greet.wav","None","728.352697333","108","133427.883032","140311.226419","141077.793233","141827.238344","142593.95047","143360.4403","144127.542602","144893.802407","134177.806125","134944.169503","135710.972526","136477.513988","137244.007528","138010.286192","138777.505362","139544.484922","144136.646825","Mapping"
"Mixed","Both","done","38","m150romp.wav","None","727.122497279","108","148027.697899","140311.226419","141077.793233","141827.238344","142593.95047","143360.4403","144127.542602","144893.802407","134177.806125","134944.169503","135710.972526","136477.513988","137244.007528","138010.286192","138777.505362","139544.484922","144902.594674","Mapping"
"Mixed","Both","done","38","m160done.wav","None","720.850918908","108","148027.697899","140311.226419","141077.793233","141827.238344","142593.95047","143360.4403","144127.542602","144893.802407","148777.514637","134944.169503","135710.972526","136477.513988","137244.007528","138010.286192","138777.505362","139544.484922","148037.095219","Mapping"
"Mixed","Both","done","38","m150cave.wav","None","735.982473707","108","148027.697899","140311.226419","141077.793233","141827.238344","142593.95047","143360.4403","144127.542602","144893.802407","148777.514637","149543.794229","135710.972526","136477.513988","137244.007528","138010.286192","138777.505362","139544.484922","148786.595054","Mapping"
"Mixed","Both","done","38","m160done.wav","None","734.340763884","108","148027.697899","140311.226419","141077.793233","141827.238344","142593.95047","143360.4403","144127.542602","144893.802407","148777.514637","149543.794229","150310.734524","136477.513988","137244.007528","138010.286192","138777.505362","139544.484922","149552.811265","Mapping"
"Mixed","Both","done","38","m150dime.wav","None","731.46267049","108","148027.697899","140311.226419","141077.793233","141827.238344","142593.95047","143360.4403","144127.542602","144893.802407","148777.514637","149543.794229","150310.734524","151077.243832","137244.007528","138010.286192","138777.505362","139544.484922","150320.285503","Mapping"
"Mixed","Both","done","38","m160depth.wav","None","730.065207696","108","148027.697899","140311.226419","141077.793233","141827.238344","142593.95047","143360.4403","144127.542602","144893.802407","148777.514637","149543.794229","150310.734524","151077.243832","151843.774473","138010.286192","138777.505362","139544.484922","151086.305389","Mapping"
"Mixed","Both","done","38","m160jolt.wav","None","728.114634054","108","148027.697899","140311.226419","141077.793233","141827.238344","142593.95047","143360.4403","144127.542602","144893.802407","148777.514637","149543.794229","150310.734524","151077.243832","151843.774473","152610.31006","138777.505362","139544.484922","151853.054925","Mapping"
"Mixed","Both","done","38","m150done.wav","None","726.485291263","108","148027.697899","140311.226419","141077.793233","141827.238344","142593.95047","143360.4403","144127.542602","144893.802407","148777.514637","149543.794229","150310.734524","151077.243832","151843.774473","152610.31006","153377.869011","139544.484922","152619.215794","Mapping"
"Mixed","Both","done","38","m160park.wav","None","722.541477997","108","148027.697899","140311.226419","141077.793233","141827.238344","142593.95047","143360.4403","144127.542602","144893.802407","148777.514637","149543.794229","150310.734524","151077.243832","151843.774473","152610.31006","153377.869011","154144.1013","153387.761317","Mapping"
"Mixed","Both","done","38","m150dime.wav","None","721.327045467","108","148027.697899","154910.990582","141077.793233","141827.238344","142593.95047","143360.4403","144127.542602","144893.802407","148777.514637","149543.794229","150310.734524","151077.243832","151843.774473","152610.31006","153377.869011","154144.1013","154153.638366","Mapping"
"Mixed","Both","done","38","m150done.wav","None","719.044419937","108","148027.697899","154910.990582","155660.128375","141827.238344","142593.95047","143360.4403","144127.542602","144893.802407","148777.514637","149543.794229","150310.734524","151077.243832","151843.774473","152610.31006","153377.869011","154144.1013","154920.730465","Mapping"
"Mixed","Both","done","38","m150dime.wav","None","735.452550696","108","148027.697899","154910.990582","155660.128375","156427.123084","142593.95047","143360.4403","144127.542602","144893.802407","148777.514637","149543.794229","150310.734524","151077.243832","151843.774473","152610.31006","153377.869011","154144.1013","155668.902401","Mapping"
"Mixed","Both","done","38","m160romp.wav","None","732.783767628","108","148027.697899","154910.990582","155660.128375","156427.123084","157193.654653","143360.4403","144127.542602","144893.802407","148777.514637","149543.794229","150310.734524","151077.243832","151843.774473","152610.31006","153377.869011","154144.1013","156436.179077","Mapping"
"Mixed","Both","done","38","m160ball.wav","None","730.897502042","108","148027.697899","154910.990582","155660.128375","156427.123084","157193.654653","157960.607624","144127.542602","144893.802407","148777.514637","149543.794229","150310.734524","151077.243832","151843.774473","152610.31006","153377.869011","154144.1013","157202.663342","Mapping"
"Mixed","Both","done","38","m150reek.wav","None","728.630025638","108","148027.697899","154910.990582","155660.128375","156427.123084","157193.654653","157960.607624","158727.259152","144893.802407","148777.514637","149543.794229","150310.734524","151077.243832","151843.774473","152610.31006","153377.869011","154144.1013","157969.757296","Mapping"
"Mixed","Both","done","38","m160romp.wav","None","726.028642384","108","148027.697899","154910.990582","155660.128375","156427.123084","157193.654653","157960.607624","158727.259152","159493.757948","148777.514637","149543.794229","150310.734524","151077.243832","151843.774473","152610.31006","153377.869011","154144.1013","158737.107864","Mapping"
"Mixed","Both","cave","14","m150tile.wav","None","724.341484252","108","162627.624996","154910.990582","155660.128375","156427.123084","157193.654653","157960.607624","158727.259152","159493.757948","148777.514637","149543.794229","150310.734524","151077.243832","151843.774473","152610.31006","153377.869011","154144.1013","159503.437542","Mapping"
"Mixed","Both","cave","14","m150cave.wav","None","720.488567837","108","162627.624996","154910.990582","155660.128375","156427.123084","157193.654653","157960.607624","158727.259152","159493.757948","163376.668492","149543.794229","150310.734524","151077.243832","151843.774473","152610.31006","153377.869011","154144.1013","162637.130836","Mapping"
"Mixed","Both","cave","14","m150cad.wav","None","736.846303567","108","162627.624996","154910.990582","155660.128375","156427.123084","157193.654653","157960.607624","158727.259152","159493.757948","163376.668492","164143.567048","150310.734524","151077.243832","151843.774473","152610.31006","153377.869011","154144.1013","163385.420257","Mapping"
"Mixed","Both","cave","14","m150cave.wav","None","734.423003858","108","162627.624996","154910.990582","155660.128375","156427.123084","157193.654653","157960.607624","158727.259152","159493.757948","163376.668492","164143.567048","164910.417993","151077.243832","151843.774473","152610.31006","153377.869011","154144.1013","164152.675909","Mapping"
"Mixed","Both","cave","14","m150dime.wav","None","731.72113928","108","162627.624996","154910.990582","155660.128375","156427.123084","157193.654653","157960.607624","158727.259152","159493.757948","163376.668492","164143.567048","164910.417993","165677.101365","151843.774473","152610.31006","153377.869011","154144.1013","164920.028642","Mapping"
"Mixed","Both","cave","14","m160priest.wav","None","729.925770545","108","162627.624996","154910.990582","155660.128375","156427.123084","157193.654653","157960.607624","158727.259152","159493.757948","163376.668492","164143.567048","164910.417993","165677.101365","166443.48082","152610.31006","153377.869011","154144.1013","165686.541969","Mapping"
"Mixed","Both","cave","14","m160cave.wav","None","728.715048404","108","162627.624996","154910.990582","155660.128375","156427.123084","157193.654653","157960.607624","158727.259152","159493.757948","163376.668492","164143.567048","164910.417993","165677.101365","166443.48082","167210.478313","153377.869011","154144.1013","166452.482707","Mapping"
"Mixed","Both","cave","14","m160priest.wav","None","726.104699075","108","162627.624996","154910.990582","155660.128375","156427.123084","157193.654653","157960.607624","158727.259152","159493.757948","163376.668492","164143.567048","164910.417993","165677.101365","166443.48082","167210.478313","167976.962577","154144.1013","167219.868212","Mapping"
"Mixed","Both","cave","14","m150jaw.wav","None","725.079789991","108","162627.624996","154910.990582","155660.128375","156427.123084","157193.654653","157960.607624","158727.259152","159493.757948","163376.668492","164143.567048","164910.417993","165677.101365","166443.48082","167210.478313","167976.962577","168743.815376","167985.987034","Mapping"
"Mixed","Both","cave","14","m160cave.wav","None","722.480261466","108","162627.624996","169510.085693","155660.128375","156427.123084","157193.654653","157960.607624","158727.259152","159493.757948","163376.668492","164143.567048","164910.417993","165677.101365","166443.48082","167210.478313","167976.962577","168743.815376","168753.215788","Mapping"
"Mixed","Both","cave","14","m160romp.wav","None","723.864120664","108","162627.624996","169510.085693","170277.00311","156427.123084","157193.654653","157960.607624","158727.259152","159493.757948","163376.668492","164143.567048","164910.417993","165677.101365","166443.48082","167210.478313","167976.962577","168743.815376","169518.96422","Mapping"
"Mixed","Both","cave","14","m150reek.wav","None","720.647791866","108","162627.624996","169510.085693","170277.00311","171027.067495","157193.654653","157960.607624","158727.259152","159493.757948","163376.668492","164143.567048","164910.417993","165677.101365","166443.48082","167210.478313","167976.962577","168743.815376","170286.775147","Mapping"
"Mixed","Both","cave","14","m160lash.wav","None","736.025448889","108","162627.624996","169510.085693","170277.00311","171027.067495","171793.17766","157960.607624","158727.259152","159493.757948","163376.668492","164143.567048","164910.417993","165677.101365","166443.48082","167210.478313","167976.962577","168743.815376","171036.155332","Mapping"
"Mixed","Both","cave","14","m160jolt.wav","None","735.025891801","108","162627.624996","169510.085693","170277.00311","171027.067495","171793.17766","172560.188138","158727.259152","159493.757948","163376.668492","164143.567048","164910.417993","165677.101365","166443.48082","167210.478313","167976.962577","168743.815376","171802.045984","Mapping"
"Mixed","Both","cave","14","m150done.wav","None","732.623924967","108","162627.624996","169510.085693","170277.00311","171027.067495","171793.17766","172560.188138","173326.750933","159493.757948","163376.668492","164143.567048","164910.417993","165677.101365","166443.48082","167210.478313","167976.962577","168743.815376","172569.349558","Mapping"
"Mixed","Both","cave","14","m160depth.wav","None","731.211312814","108","162627.624996","169510.085693","170277.00311","171027.067495","171793.17766","172560.188138","173326.750933","174093.425339","163376.668492","164143.567048","164910.417993","165677.101365","166443.48082","167210.478313","167976.962577","168743.815376","173335.782191","Mapping"
"Mixed","Both","tile","29","m160bluff.wav","None","728.891586186","108","177227.246939","169510.085693","170277.00311","171027.067495","171793.17766","172560.188138","173326.750933","174093.425339","163376.668492","164143.567048","164910.417993","165677.101365","166443.48082","167210.478313","167976.962577","168743.815376","174102.844301","Mapping"
"Mixed","Both","tile","29","m160tile.wav","None","720.336454688","108","177227.246939","169510.085693","170277.00311","171027.067495","171793.17766","172560.188138","173326.750933","174093.425339","177993.836632","164143.567048","164910.417993","165677.101365","166443.48082","167210.478313","167976.962577","168743.815376","177237.206645","Mapping"
"Mixed","Both","tile","29","m160lash.wav","None","718.901581829","108","177227.246939","169510.085693","170277.00311","171027.067495","171793.17766","172560.188138","173326.750933","174093.425339","177993.836632","178743.252681","164910.417993","165677.101365","166443.48082","167210.478313","167976.962577","168743.815376","178003.917843","Mapping"
"Mixed","Both","tile","29","m150tile.wav","None","735.459661577","108","177227.246939","169510.085693","170277.00311","171027.067495","171793.17766","172560.188138","173326.750933","174093.425339","177993.836632","178743.252681","179510.219875","165677.101365","166443.48082","167210.478313","167976.962577","168743.815376","178752.285176","Mapping"
"Mixed","Both","tile","29","m150done.wav","None","733.285555849","108","177227.246939","169510.085693","170277.00311","171027.067495","171793.17766","172560.188138","173326.750933","174093.425339","177993.836632","178743.252681","179510.219875","180276.511834","166443.48082","167210.478313","167976.962577","168743.815376","179519.292562","Mapping"
"Mixed","Both","tile","29","m150priest.wav","None","731.750820065","108","177227.246939","169510.085693","170277.00311","171027.067495","171793.17766","172560.188138","173326.750933","174093.425339","177993.836632","178743.252681","179510.219875","180276.511834","181043.252094","167210.478313","167976.962577","168743.815376","180285.586685","Mapping"
"Mixed","Both","tile","29","m160depth.wav","None","729.892998235","108","177227.246939","169510.085693","170277.00311","171027.067495","171793.17766","172560.188138","173326.750933","174093.425339","177993.836632","178743.252681","179510.219875","180276.511834","181043.252094","181809.998537","167976.962577","168743.815376","181052.290463","Mapping"
"Mixed","Both","tile","29","m150tile.wav","None","727.716109715","108","177227.246939","169510.085693","170277.00311","171027.067495","171793.17766","172560.188138","173326.750933","174093.425339","177993.836632","178743.252681","179510.219875","180276.511834","181043.252094","181809.998537","182576.713136","168743.815376","181819.610114","Mapping"
"Mixed","Both","tile","29","m150knife.wav","None","726.171789691","108","177227.246939","169510.085693","170277.00311","171027.067495","171793.17766","172560.188138","173326.750933","174093.425339","177993.836632","178743.252681","179510.219875","180276.511834","181043.252094","181809.998537","182576.713136","183343.16803","182586.175073","Mapping"
"Mixed","Both","tile","29","m160ball.wav","None","724.982400425","108","177227.246939","184110.447488","170277.00311","171027.067495","171793.17766","172560.188138","173326.750933","174093.425339","177993.836632","178743.252681","179510.219875","180276.511834","181043.252094","181809.998537","182576.713136","183343.16803","183352.189085","Mapping"
"Mixed","Both","tile","29","m150jolt.wav","None","721.694652457","108","177227.246939","184110.447488","184877.033471","171027.067495","171793.17766","172560.188138","173326.750933","174093.425339","177993.836632","178743.252681","179510.219875","180276.511834","181043.252094","181809.998537","182576.713136","183343.16803","184120.293109","Mapping"
"Mixed","Both","tile","29","m150jaw.wav","None","719.731402816","108","177227.246939","184110.447488","184877.033471","185626.809088","171793.17766","172560.188138","173326.750933","174093.425339","177993.836632","178743.252681","179510.219875","180276.511834","181043.252094","181809.998537","182576.713136","183343.16803","184887.207433","Mapping"
"Mixed","Both","tile","29","m150gnash.wav","None","735.908890376","108","177227.246939","184110.447488","184877.033471","185626.809088","186393.044468","172560.188138","173326.750933","174093.425339","177993.836632","178743.252681","179510.219875","180276.511834","181043.252094","181809.998537","182576.713136","183343.16803","185635.959687","Mapping"
"Mixed","Both","tile","29","m160tile.wav","None","734.928811202","108","177227.246939","184110.447488","184877.033471","185626.809088","186393.044468","187159.927876","173326.750933","174093.425339","177993.836632","178743.252681","179510.219875","180276.511834","181043.252094","181809.998537","182576.713136","183343.16803","186401.870127","Mapping"
"Mixed","Both","tile","29","m160reek.wav","None","732.084727148","108","177227.246939","184110.447488","184877.033471","185626.809088","186393.044468","187159.927876","187926.566109","174093.425339","177993.836632","178743.252681","179510.219875","180276.511834","181043.252094","181809.998537","182576.713136","183343.16803","187169.66003","Mapping"
"Mixed","Both","tile","29","m160greet.wav","None","731.232954888","108","177227.246939","184110.447488","184877.033471","185626.809088","186393.044468","187159.927876","187926.566109","188692.937216","177993.836632","178743.252681","179510.219875","180276.511834","181043.252094","181809.998537","182576.713136","183343.16803","187935.620555","Mapping"
"Mixed","Both","tile","25","m150knife.wav","None","730.094579281","108","191826.747996","184110.447488","184877.033471","185626.809088","186393.044468","187159.927876","187926.566109","188692.937216","177993.836632","178743.252681","179510.219875","180276.511834","181043.252094","181809.998537","182576.713136","183343.16803","188701.772768","Mapping"
"Mixed","Both","tile","25","m150tile.wav","None","720.669124974","108","191826.747996","184110.447488","184877.033471","185626.809088","186393.044468","187159.927876","187926.566109","188692.937216","192576.718083","178743.252681","179510.219875","180276.511834","181043.252094","181809.998537","182576.713136","183343.16803","191836.530545","Mapping"
"Mixed","Both","tile","25","m150reek.wav","None","736.240633298","108","191826.747996","184110.447488","184877.033471","185626.809088","186393.044468","187159.927876","187926.566109","188692.937216","192576.718083","193342.944497","179510.219875","180276.511834","181043.252094","181809.998537","182576.713136","183343.16803","192585.805611","Mapping"
"Mixed","Both","tile","25","m150jolt.wav","None","735.148324398","108","191826.747996","184110.447488","184877.033471","185626.809088","186393.044468","187159.927876","187926.566109","188692.937216","192576.718083","193342.944497","194109.839653","180276.511834","181043.252094","181809.998537","182576.713136","183343.16803","193351.947621","Mapping"
"Mixed","Both","tile","25","m150tile.wav","None","733.168379171","108","191826.747996","184110.447488","184877.033471","185626.809088","186393.044468","187159.927876","187926.566109","188692.937216","192576.718083","193342.944497","194109.839653","194876.430583","181043.252094","181809.998537","182576.713136","183343.16803","194118.798874","Mapping"
"Mixed","Both","tile","25","m160done.wav","None","731.268818956","108","191826.747996","184110.447488","184877.033471","185626.809088","186393.044468","187159.927876","187926.566109","188692.937216","192576.718083","193342.944497","194109.839653","194876.430583","195642.96988","181809.998537","182576.713136","183343.16803","194885.611481","Mapping"
"Mixed","Both","tile","25","m150reek.wav","None","729.454590706","108","191826.747996","184110.447488","184877.033471","185626.809088","186393.044468","187159.927876","187926.566109","188692.937216","192576.718083","193342.944497","194109.839653","194876.430583","195642.96988","196409.88235","182576.713136","183343.16803","195652.491178","Mapping"
"Mixed","Both","tile","25","m160romp.wav","None","727.97797923","108","191826.747996","184110.447488","184877.033471","185626.809088","186393.044468","187159.927876","187926.566109","188692.937216","192576.718083","193342.944497","194109.839653","194876.430583","195642.96988","196409.88235","197176.45844","183343.16803","196418.9167","Mapping"
"Mixed","Both","tile","25","m160tile.wav","None","726.306279888","108","191826.747996","184110.447488","184877.033471","185626.809088","186393.044468","187159.927876","187926.566109","188692.937216","192576.718083","193342.944497","194109.839653","194876.430583","195642.96988","196409.88235","197176.45844","197943.377711","197185.512268","Mapping"
"Mixed","Both","tile","25","m160dime.wav","None","723.191360012","108","191826.747996","198710.244423","184877.033471","185626.809088","186393.044468","187159.927876","187926.566109","188692.937216","192576.718083","193342.944497","194109.839653","194876.430583","195642.96988","196409.88235","197176.45844","197943.377711","197953.637933","Mapping"
"Mixed","Both","tile","25","m150jaw.wav","None","721.750303637","108","191826.747996","198710.244423","199476.664689","185626.809088","186393.044468","187159.927876","187926.566109","188692.937216","192576.718083","193342.944497","194109.839653","194876.430583","195642.96988","196409.88235","197176.45844","197943.377711","198719.9605","Mapping"
"Mixed","Both","tile","25","m160jaw.wav","None","720.285750227","108","191826.747996","198710.244423","199476.664689","200243.324564","186393.044468","187159.927876","187926.566109","188692.937216","192576.718083","193342.944497","194109.839653","194876.430583","195642.96988","196409.88235","197176.45844","197943.377711","199486.418176","Mapping"
"Mixed","Both","tile","25","m150ball.wav","None","719.183238689","108","191826.747996","198710.244423","199476.664689","200243.324564","200992.837075","187159.927876","187926.566109","188692.937216","192576.718083","193342.944497","194109.839653","194876.430583","195642.96988","196409.88235","197176.45844","197943.377711","200252.62202","Mapping"
"Mixed","Both","tile","25","m160dime.wav","None","734.642207855","108","191826.747996","198710.244423","199476.664689","200243.324564","200992.837075","201759.449647","187926.566109","188692.937216","192576.718083","193342.944497","194109.839653","194876.430583","195642.96988","196409.88235","197176.45844","197943.377711","201002.245216","Mapping"
"Mixed","Both","tile","25","m160tile.wav","None","733.481262345","108","191826.747996","198710.244423","199476.664689","200243.324564","200992.837075","201759.449647","202526.077677","188692.937216","192576.718083","193342.944497","194109.839653","194876.430583","195642.96988","196409.88235","197176.45844","197943.377711","201768.399593","Mapping"
"Mixed","Both","tile","25","m160dime.wav","None","732.136977371","108","191826.747996","198710.244423","199476.664689","200243.324564","200992.837075","201759.449647","202526.077677","203292.983654","192576.718083","193342.944497","194109.839653","194876.430583","195642.96988","196409.88235","197176.45844","197943.377711","202534.89406","Mapping"
"Mixed","Both","done","37","m160tile.wav","None","730.691283476","108","206426.535656","198710.244423","199476.664689","200243.324564","200992.837075","201759.449647","202526.077677","203292.983654","192576.718083","193342.944497","194109.839653","194876.430583","195642.96988","196409.88235","197176.45844","197943.377711","203301.926798","Mapping"
"Mixed","Both","done","37","m160tile.wav","None","720.576063963","108","206426.535656","198710.244423","199476.664689","200243.324564","200992.837075","201759.449647","202526.077677","203292.983654","207193.282099","193342.944497","194109.839653","194876.430583","195642.96988","196409.88235","197176.45844","197943.377711","206436.430434","Mapping"
"Mixed","Both","done","37","m150reek.wav","None","719.271044014","108","206426.535656","198710.244423","199476.664689","200243.324564","200992.837075","201759.449647","202526.077677","203292.983654","207193.282099","207942.670632","194109.839653","194876.430583","195642.96988","196409.88235","197176.45844","197943.377711","207202.678491","Mapping"
"Mixed","Both","done","37","m160ball.wav","None","735.233037733","108","206426.535656","198710.244423","199476.664689","200243.324564","200992.837075","201759.449647","202526.077677","203292.983654","207193.282099","207942.670632","208709.683892","194876.430583","195642.96988","196409.88235","197176.45844","197943.377711","207951.678702","Mapping"
"Mixed","Both","done","37","m160lash.wav","None","732.77572915","108","206426.535656","198710.244423","199476.664689","200243.324564","200992.837075","201759.449647","202526.077677","203292.983654","207193.282099","207942.670632","208709.683892","209476.154553","195642.96988","196409.88235","197176.45844","197943.377711","208719.002063","Mapping"
"Mixed","Both","done","37","m150depth.wav","None","731.385995634","108","206426.535656","198710.244423","199476.664689","200243.324564","200992.837075","201759.449647","202526.077677","203292.983654","207193.282099","207942.670632","208709.683892","209476.154553","210242.752903","196409.88235","197176.45844","197943.377711","209485.229096","Mapping"
"Mixed","Both","done","37","m150knife.wav","None","729.725426529","108","206426.535656","198710.244423","199476.664689","200243.324564","200992.837075","201759.449647","202526.077677","203292.983654","207193.282099","207942.670632","208709.683892","209476.154553","210242.752903","211009.482342","197176.45844","197943.377711","210251.735621","Mapping"
"Mixed","Both","done","37","m160done.wav","None","727.913671406","108","206426.535656","198710.244423","199476.664689","200243.324564","200992.837075","201759.449647","202526.077677","203292.983654","207193.282099","207942.670632","208709.683892","209476.154553","210242.752903","211009.482342","211776.071416","197943.377711","211018.586256","Mapping"
"Mixed","Both","done","37","m150knife.wav","None","726.639259374","108","206426.535656","198710.244423","199476.664689","200243.324564","200992.837075","201759.449647","202526.077677","203292.983654","207193.282099","207942.670632","208709.683892","209476.154553","210242.752903","211009.482342","211776.071416","212542.662037","211785.044859","Mapping"
"Mixed","Both","done","37","m150done.wav","None","724.530079868","108","206426.535656","213309.889863","199476.664689","200243.324564","200992.837075","201759.449647","202526.077677","203292.983654","207193.282099","207942.670632","208709.683892","209476.154553","210242.752903","211009.482342","211776.071416","212542.662037","212552.111607","Mapping"
"Mixed","Both","done","37","m150jaw.wav","None","721.839963924","108","206426.535656","213309.889863","214076.475846","200243.324564","200992.837075","201759.449647","202526.077677","203292.983654","207193.282099","207942.670632","208709.683892","209476.154553","210242.752903","211009.482342","211776.071416","212542.662037","213319.755889","Mapping"
"Mixed","Both","done","37","m150done.wav","None","720.602343557","108","206426.535656","213309.889863","214076.475846","214843.022564","200992.837075","201759.449647","202526.077677","203292.983654","207193.282099","207942.670632","208709.683892","209476.154553","210242.752903","211009.482342","211776.071416","212542.662037","214086.046302","Mapping"
"Mixed","Both","done","37","m160cad.wav","None","719.279700657","108","206426.535656","213309.889863","214076.475846","214843.022564","215592.568156","201759.449647","202526.077677","203292.983654","207193.282099","207942.670632","208709.683892","209476.154553","210242.752903","211009.482342","211776.071416","212542.662037","214852.437506","Mapping"
"Mixed","Both","done","37","m150dime.wav","None","734.64313522","108","206426.535656","213309.889863","214076.475846","214843.022564","215592.568156","216359.117966","202526.077677","203292.983654","207193.282099","207942.670632","208709.683892","209476.154553","210242.752903","211009.482342","211776.071416","212542.662037","215601.970732","Mapping"
"Mixed","Both","done","37","m160done.wav","None","733.530421043","108","206426.535656","213309.889863","214076.475846","214843.022564","215592.568156","216359.117966","217126.061353","203292.983654","207193.282099","207942.670632","208709.683892","209476.154553","210242.752903","211009.482342","211776.071416","212542.662037","216368.073786","Mapping"
"Mixed","Both","done","37","m160romp.wav","None","731.549857417","108","206426.535656","213309.889863","214076.475846","214843.022564","215592.568156","216359.117966","217126.061353","217892.575298","207193.282099","207942.670632","208709.683892","209476.154553","210242.752903","211009.482342","211776.071416","212542.662037","217135.083954","Mapping"
"Mixed","Both","ball","7","m160knife.wav","None","729.718933813","108","221026.540046","213309.889863","214076.475846","214843.022564","215592.568156","216359.117966","217126.061353","217892.575298","207193.282099","207942.670632","208709.683892","209476.154553","210242.752903","211009.482342","211776.071416","212542.662037","217902.156885","Mapping"
"Mixed","Both","ball","7","m150reek.wav","None","720.590904122","108","221026.540046","213309.889863","214076.475846","214843.022564","215592.568156","216359.117966","217126.061353","217892.575298","221776.235587","207942.670632","208709.683892","209476.154553","210242.752903","211009.482342","211776.071416","212542.662037","221035.94293","Mapping"
"Mixed","Both","ball","7","m150depth.wav","None","735.87209871","108","221026.540046","213309.889863","214076.475846","214843.022564","215592.568156","216359.117966","217126.061353","217892.575298","221776.235587","222542.410988","208709.683892","209476.154553","210242.752903","211009.482342","211776.071416","212542.662037","221785.563961","Mapping"
"Mixed","Both","ball","7","m150knife.wav","None","735.0991657","108","221026.540046","213309.889863","214076.475846","214843.022564","215592.568156","216359.117966","217126.061353","217892.575298","221776.235587","222542.410988","223309.285739","209476.154553","210242.752903","211009.482342","211776.071416","212542.662037","222551.426169","Mapping"
"Mixed","Both","ball","7","m160ball.wav","None","732.715131249","108","221026.540046","213309.889863","214076.475846","214843.022564","215592.568156","216359.117966","217126.061353","217892.575298","221776.235587","222542.410988","223309.285739","224075.884088","210242.752903","211009.482342","211776.071416","212542.662037","223318.889277","Mapping"
"Mixed","Both","ball","7","m160priest.wav","None","731.663014973","108","221026.540046","213309.889863","214076.475846","214843.022564","215592.568156","216359.117966","217126.061353","217892.575298","221776.235587","222542.410988","223309.285739","224075.884088","224842.394324","211009.482342","211776.071416","212542.662037","224084.948119","Mapping"
"Mixed","Both","ball","7","m150ball.wav","None","730.279773939","108","221026.540046","213309.889863","214076.475846","214843.022564","215592.568156","216359.117966","217126.061353","217892.575298","221776.235587","222542.410988","223309.285739","224075.884088","224842.394324","225609.264746","211776.071416","212542.662037","224851.371477","Mapping"
"Mixed","Both","ball","7","m160romp.wav","None","728.578084847","108","221026.540046","213309.889863","214076.475846","214843.022564","215592.568156","216359.117966","217126.061353","217892.575298","221776.235587","222542.410988","223309.285739","224075.884088","224842.394324","225609.264746","226375.896177","212542.662037","225618.356293","Mapping"
"Mixed","Both","ball","7","m150knife.wav","None","726.467050146","108","221026.540046","213309.889863","214076.475846","214843.022564","215592.568156","216359.117966","217126.061353","217892.575298","221776.235587","222542.410988","223309.285739","224075.884088","224842.394324","225609.264746","226375.896177","227142.413832","226385.455812","Mapping"
"Mixed","Both","ball","7","m160ball.wav","None","725.685769459","108","221026.540046","227909.015892","214076.475846","214843.022564","215592.568156","216359.117966","217126.061353","217892.575298","221776.235587","222542.410988","223309.285739","224075.884088","224842.394324","225609.264746","226375.896177","227142.413832","227151.423758","Mapping"
"Mixed","Both","ball","7","m150bluff.wav","None","724.225544371","108","221026.540046","227909.015892","228676.291641","214843.022564","215592.568156","216359.117966","217126.061353","217892.575298","221776.235587","222542.410988","223309.285739","224075.884088","224842.394324","225609.264746","226375.896177","227142.413832","227918.056117","Mapping"
"Mixed","Both","ball","7","m150done.wav","None","721.152053447","108","221026.540046","227909.015892","228676.291641","229442.722728","215592.568156","216359.117966","217126.061353","217892.575298","221776.235587","222542.410988","223309.285739","224075.884088","224842.394324","225609.264746","226375.896177","227142.413832","228686.312872","Mapping"
"Mixed","Both","ball","7","m160dime.wav","None","720.275856787","108","221026.540046","227909.015892","228676.291641","229442.722728","230192.054063","216359.117966","217126.061353","217892.575298","221776.235587","222542.410988","223309.285739","224075.884088","224842.394324","225609.264746","226375.896177","227142.413832","229452.267832","Mapping"
"Mixed","Both","ball","7","m150ball.wav","None","737.000580877","108","221026.540046","227909.015892","228676.291641","229442.722728","230192.054063","230959.062995","217126.061353","217892.575298","221776.235587","222542.410988","223309.285739","224075.884088","224842.394324","225609.264746","226375.896177","227142.413832","230200.845094","Mapping"
"Mixed","Both","ball","7","m160gnash.wav","None","734.704042552","108","221026.540046","227909.015892","228676.291641","229442.722728","230192.054063","230959.062995","231725.908683","217892.575298","221776.235587","222542.410988","223309.285739","224075.884088","224842.394324","225609.264746","226375.896177","227142.413832","230968.221014","Mapping"
"Mixed","Both","ball","7","m160lash.wav","None","732.726879884","108","221026.540046","227909.015892","228676.291641","229442.722728","230192.054063","230959.062995","231725.908683","232492.375016","221776.235587","222542.410988","223309.285739","224075.884088","224842.394324","225609.264746","226375.896177","227142.413832","231735.548703","Mapping"
"Mixed","Both","cave","23","m150park.wav","None","732.137595536","108","235642.747276","227909.015892","228676.291641","229442.722728","230192.054063","230959.062995","231725.908683","232492.375016","221776.235587","222542.410988","223309.285739","224075.884088","224842.394324","225609.264746","226375.896177","227142.413832","232501.381231","Mapping"
"Mixed","Both","cave","23","m160cave.wav","None","721.123300493","108","235642.747276","227909.015892","228676.291641","229442.722728","230192.054063","230959.062995","231725.908683","232492.375016","236409.577196","222542.410988","223309.285739","224075.884088","224842.394324","225609.264746","226375.896177","227142.413832","235652.172421","Mapping"
"Mixed","Both","cave","23","m160jolt.wav","None","719.137790147","108","235642.747276","227909.015892","228676.291641","229442.722728","230192.054063","230959.062995","231725.908683","232492.375016","236409.577196","237159.201937","223309.285739","224075.884088","224842.394324","225609.264746","226375.896177","227142.413832","236419.287399","Mapping"
"Mixed","Both","cave","23","m150cave.wav","None","735.314041143","108","235642.747276","227909.015892","228676.291641","229442.722728","230192.054063","230959.062995","231725.908683","232492.375016","236409.577196","237159.201937","237925.277166","224075.884088","224842.394324","225609.264746","226375.896177","227142.413832","237168.228249","Mapping"
"Mixed","Both","cave","23","m160reek.wav","None","734.687346965","108","235642.747276","227909.015892","228676.291641","229442.722728","230192.054063","230959.062995","231725.908683","232492.375016","236409.577196","237159.201937","237925.277166","238692.537765","224842.394324","225609.264746","226375.896177","227142.413832","237934.108389","Mapping"
"Mixed","Both","cave","23","m160cave.wav","None","732.106369222","108","235642.747276","227909.015892","228676.291641","229442.722728","230192.054063","230959.062995","231725.908683","232492.375016","236409.577196","237159.201937","237925.277166","238692.537765","239459.072734","225609.264746","226375.896177","227142.413832","238701.637659","Mapping"
"Mixed","Both","cave","23","m150done.wav","None","729.968127329","108","235642.747276","227909.015892","228676.291641","229442.722728","230192.054063","230959.062995","231725.908683","232492.375016","236409.577196","237159.201937","237925.277166","238692.537765","239459.072734","240225.591317","226375.896177","227142.413832","239468.710899","Mapping"
"Mixed","Both","cave","23","m160jaw.wav","None","729.015564779","108","235642.747276","227909.015892","228676.291641","229442.722728","230192.054063","230959.062995","231725.908683","232492.375016","236409.577196","237159.201937","237925.277166","238692.537765","239459.072734","240225.591317","240992.193995","227142.413832","240234.656584","Mapping"
"Mixed","Both","cave","23","m150cling.wav","None","727.979216259","108","235642.747276","227909.015892","228676.291641","229442.722728","230192.054063","230959.062995","231725.908683","232492.375016","236409.577196","237159.201937","237925.277166","238692.537765","239459.072734","240225.591317","240992.193995","241758.94013","241001.410448","Mapping"
"Mixed","Both","cave","23","m150jaw.wav","None","726.52146453","108","235642.747276","242525.552392","228676.291641","229442.722728","230192.054063","230959.062995","231725.908683","232492.375016","236409.577196","237159.201937","237925.277166","238692.537765","239459.072734","240225.591317","240992.193995","241758.94013","241768.006634","Mapping"
"Mixed","Both","cave","23","m160knife.wav","None","724.817610811","108","235642.747276","242525.552392","243292.442292","229442.722728","230192.054063","230959.062995","231725.908683","232492.375016","236409.577196","237159.201937","237925.277166","238692.537765","239459.072734","240225.591317","240992.193995","241758.94013","242534.862525","Mapping"
"Mixed","Both","cave","23","m150reek.wav","None","723.449828802","108","235642.747276","242525.552392","243292.442292","244059.972799","230192.054063","230959.062995","231725.908683","232492.375016","236409.577196","237159.201937","237925.277166","238692.537765","239459.072734","240225.591317","240992.193995","241758.94013","243301.885369","Mapping"
"Mixed","Both","cave","23","m150jaw.wav","None","720.970877912","108","235642.747276","242525.552392","243292.442292","244059.972799","244825.683821","230959.062995","231725.908683","232492.375016","236409.577196","237159.201937","237925.277166","238692.537765","239459.072734","240225.591317","240992.193995","241758.94013","244069.504609","Mapping"
"Mixed","Both","cave","23","m150cave.wav","None","721.028384287","108","235642.747276","242525.552392","243292.442292","244059.972799","244825.683821","245575.825191","231725.908683","232492.375016","236409.577196","237159.201937","237925.277166","238692.537765","239459.072734","240225.591317","240992.193995","241758.94013","244834.701785","Mapping"
"Mixed","Both","cave","23","m160ball.wav","None","735.751212109","108","235642.747276","242525.552392","243292.442292","244059.972799","244825.683821","245575.825191","246342.035837","232492.375016","236409.577196","237159.201937","237925.277166","238692.537765","239459.072734","240225.591317","240992.193995","241758.94013","245584.996505","Mapping"
"Mixed","Both","cave","23","m160done.wav","None","734.811634757","108","235642.747276","242525.552392","243292.442292","244059.972799","244825.683821","245575.825191","246342.035837","247108.841024","236409.577196","237159.201937","237925.277166","238692.537765","239459.072734","240225.591317","240992.193995","241758.94013","246351.052565","Mapping"
"Mixed","Both","ball","12","m150tile.wav","None","733.278753934","108","250242.386223","242525.552392","243292.442292","244059.972799","244825.683821","245575.825191","246342.035837","247108.841024","236409.577196","237159.201937","237925.277166","238692.537765","239459.072734","240225.591317","240992.193995","241758.94013","247117.983276","Mapping"
"Mixed","Both","ball","12","m160lash.wav","None","720.943980152","108","250242.386223","242525.552392","243292.442292","244059.972799","244825.683821","245575.825191","246342.035837","247108.841024","251009.264993","237159.201937","237925.277166","238692.537765","239459.072734","240225.591317","240992.193995","241758.94013","250251.991307","Mapping"
"Mixed","Both","ball","12","m150ball.wav","None","719.438615721","108","250242.386223","242525.552392","243292.442292","244059.972799","244825.683821","245575.825191","246342.035837","247108.841024","251009.264993","251758.575305","237925.277166","238692.537765","239459.072734","240225.591317","240992.193995","241758.94013","251018.716418","Mapping"
"Mixed","Both","ball","12","m150depth.wav","None","735.768834827","108","250242.386223","242525.552392","243292.442292","244059.972799","244825.683821","245575.825191","246342.035837","247108.841024","251009.264993","251758.575305","252525.273209","238692.537765","239459.072734","240225.591317","240992.193995","241758.94013","251767.649229","Mapping"
"Mixed","Both","ball","12","m160park.wav","None","734.187104972","108","250242.386223","242525.552392","243292.442292","244059.972799","244825.683821","245575.825191","246342.035837","247108.841024","251009.264993","251758.575305","252525.273209","253291.941122","239459.072734","240225.591317","240992.193995","241758.94013","252534.390417","Mapping"
"Mixed","Both","ball","12","m160cling.wav","None","733.385418775","108","250242.386223","242525.552392","243292.442292","244059.972799","244825.683821","245575.825191","246342.035837","247108.841024","251009.264993","251758.575305","252525.273209","253291.941122","254058.735488","240225.591317","240992.193995","241758.94013","253300.96527","Mapping"
"Mixed","Both","ball","12","m150dime.wav","None","731.618494028","108","250242.386223","242525.552392","243292.442292","244059.972799","244825.683821","245575.825191","246342.035837","247108.841024","251009.264993","251758.575305","252525.273209","253291.941122","254058.735488","254825.330127","240992.193995","241758.94013","254067.851769","Mapping"
"Mixed","Both","ball","12","m160cave.wav","None","730.439925799","108","250242.386223","242525.552392","243292.442292","244059.972799","244825.683821","245575.825191","246342.035837","247108.841024","251009.264993","251758.575305","252525.273209","253291.941122","254058.735488","254825.330127","255591.96836","241758.94013","254834.38952","Mapping"
"Mixed","Both","ball","12","m160ball.wav","None","729.077708442","108","250242.386223","242525.552392","243292.442292","244059.972799","244825.683821","245575.825191","246342.035837","247108.841024","251009.264993","251758.575305","252525.273209","253291.941122","254058.735488","254825.330127","255591.96836","256358.737065","255600.970556","Mapping"
"Mixed","Both","ball","12","m160depth.wav","None","728.393508354","108","250242.386223","257125.332941","243292.442292","244059.972799","244825.683821","245575.825191","246342.035837","247108.841024","251009.264993","251758.575305","252525.273209","253291.941122","254058.735488","254825.330127","255591.96836","256358.737065","256367.486357","Mapping"
"Mixed","Both","ball","12","m150gnash.wav","None","726.303497562","108","250242.386223","257125.332941","257891.913977","244059.972799","244825.683821","245575.825191","246342.035837","247108.841024","251009.264993","251758.575305","252525.273209","253291.941122","254058.735488","254825.330127","255591.96836","256358.737065","257134.905252","Mapping"
"Mixed","Both","ball","12","m150ball.wav","None","725.87003652","108","250242.386223","257125.332941","257891.913977","258659.110577","244825.683821","245575.825191","246342.035837","247108.841024","251009.264993","251758.575305","252525.273209","253291.941122","254058.735488","254825.330127","255591.96836","256358.737065","257900.896077","Mapping"
"Mixed","Both","ball","12","m150cling.wav","None","723.567623878","108","250242.386223","257125.332941","257891.913977","258659.110577","259425.712327","245575.825191","246342.035837","247108.841024","251009.264993","251758.575305","252525.273209","253291.941122","254058.735488","254825.330127","255591.96836","256358.737065","258668.553654","Mapping"
"Mixed","Both","ball","12","m150bluff.wav","None","722.290120088","108","250242.386223","257125.332941","257891.913977","258659.110577","259425.712327","260192.201539","246342.035837","247108.841024","251009.264993","251758.575305","252525.273209","253291.941122","254058.735488","254825.330127","255591.96836","256358.737065","259435.1721","Mapping"
"Mixed","Both","ball","12","m160ball.wav","None","720.921101281","108","250242.386223","257125.332941","257891.913977","258659.110577","259425.712327","260192.201539","260958.782266","247108.841024","251009.264993","251758.575305","252525.273209","253291.941122","254058.735488","254825.330127","255591.96836","256358.737065","260202.114868","Mapping"
"Mixed","Both","ball","12","m160tile.wav","None","720.47527344","108","250242.386223","257125.332941","257891.913977","258659.110577","259425.712327","260192.201539","260958.782266","261708.511507","251009.264993","251758.575305","252525.273209","253291.941122","254058.735488","254825.330127","255591.96836","256358.737065","260967.92328","Mapping"
"Mixed","Both","done","47","m150bluff.wav","None","735.788003774","108","264841.50205","257125.332941","257891.913977","258659.110577","259425.712327","260192.201539","260958.782266","261708.511507","251009.264993","251758.575305","252525.273209","253291.941122","254058.735488","254825.330127","255591.96836","256358.737065","261717.804326","Mapping"
"Mixed","Both","done","47","m160done.wav","None","724.237292772","108","264841.50205","257125.332941","257891.913977","258659.110577","259425.712327","260192.201539","260958.782266","261708.511507","265609.028228","251758.575305","252525.273209","253291.941122","254058.735488","254825.330127","255591.96836","256358.737065","264850.205585","Mapping"
"Mixed","Both","done","47","m150greet.wav","None","721.455970779","108","264841.50205","257125.332941","257891.913977","258659.110577","259425.712327","260192.201539","260958.782266","261708.511507","265609.028228","266375.199301","252525.273209","253291.941122","254058.735488","254825.330127","255591.96836","256358.737065","265618.402051","Mapping"
"Mixed","Both","done","47","m160dime.wav","None","721.19471943","108","264841.50205","257125.332941","257891.913977","258659.110577","259425.712327","260192.201539","260958.782266","261708.511507","265609.028228","266375.199301","267125.205871","253291.941122","254058.735488","254825.330127","255591.96836","256358.737065","266383.988786","Mapping"
"Mixed","Both","done","47","m150ball.wav","None","736.176325241","108","264841.50205","257125.332941","257891.913977","258659.110577","259425.712327","260192.201539","260958.782266","261708.511507","265609.028228","266375.199301","267125.205871","267891.589963","254058.735488","254825.330127","255591.96836","256358.737065","267134.247022","Mapping"
"Mixed","Both","done","47","m160knife.wav","None","734.962511342","108","264841.50205","257125.332941","257891.913977","258659.110577","259425.712327","260192.201539","260958.782266","261708.511507","265609.028228","266375.199301","267125.205871","267891.589963","268658.431632","254825.330127","255591.96836","256358.737065","267900.831459","Mapping"
"Mixed","Both","done","47","m160park.wav","None","733.506305376","108","264841.50205","257125.332941","257891.913977","258659.110577","259425.712327","260192.201539","260958.782266","261708.511507","265609.028228","266375.199301","267125.205871","267891.589963","268658.431632","269425.076358","255591.96836","256358.737065","268667.576666","Mapping"
"Mixed","Both","done","47","m160bluff.wav","None","732.15769208","108","264841.50205","257125.332941","257891.913977","258659.110577","259425.712327","260192.201539","260958.782266","261708.511507","265609.028228","266375.199301","267125.205871","267891.589963","268658.431632","269425.076358","270191.625549","256358.737065","269434.13977","Mapping"
"Mixed","Both","done","47","m150done.wav","None","730.462804437","108","264841.50205","257125.332941","257891.913977","258659.110577","259425.712327","260192.201539","260958.782266","261708.511507","265609.028228","266375.199301","267125.205871","267891.589963","268658.431632","269425.076358","270191.625549","270958.473092","270201.257222","Mapping"
"Mixed","Both","done","47","m160tile.wav","None","729.453663109","108","264841.50205","271725.115035","257891.913977","258659.110577","259425.712327","260192.201539","260958.782266","261708.511507","265609.028228","266375.199301","267125.205871","267891.589963","268658.431632","269425.076358","270191.625549","270958.473092","270967.513317","Mapping"
"Mixed","Both","done","47","m150done.wav","None","726.133761229","108","264841.50205","271725.115035","272491.564982","258659.110577","259425.712327","260192.201539","260958.782266","261708.511507","265609.028228","266375.199301","267125.205871","267891.589963","268658.431632","269425.076358","270191.625549","270958.473092","271736.266604","Mapping"
"Mixed","Both","done","47","m150cave.wav","None","732.786240987","108","264841.50205","271725.115035","272491.564982","273258.33987","259425.712327","260192.201539","260958.782266","261708.511507","265609.028228","266375.199301","267125.205871","267891.589963","268658.431632","269425.076358","270191.625549","270958.473092","272495.146445","Mapping"
"Mixed","Both","done","47","m160dime.wav","None","725.383088924","108","264841.50205","271725.115035","272491.564982","273258.33987","274025.779789","260192.201539","260958.782266","261708.511507","265609.028228","266375.199301","267125.205871","267891.589963","268658.431632","269425.076358","270191.625549","270958.473092","273267.883737","Mapping"
"Mixed","Both","done","47","m150depth.wav","None","723.525576293","108","264841.50205","271725.115035","272491.564982","273258.33987","274025.779789","274792.372573","260958.782266","261708.511507","265609.028228","266375.199301","267125.205871","267891.589963","268658.431632","269425.076358","270191.625549","270958.473092","274035.250691","Mapping"
"Mixed","Both","done","47","m160done.wav","None","723.056251183","108","264841.50205","271725.115035","272491.564982","273258.33987","274025.779789","274792.372573","275558.94217","261708.511507","265609.028228","266375.199301","267125.205871","267891.589963","268658.431632","269425.076358","270191.625549","270958.473092","274801.260375","Mapping"
"Mixed","Both","done","47","m150cad.wav","None","721.245423891","108","264841.50205","271725.115035","272491.564982","273258.33987","274025.779789","274792.372573","275558.94217","276325.485178","265609.028228","266375.199301","267125.205871","267891.589963","268658.431632","269425.076358","270191.625549","270958.473092","275568.630112","Mapping"
"Mixed","Both","done","48","m160knife.wav","None","720.346966526","108","279442.205172","271725.115035","272491.564982","273258.33987","274025.779789","274792.372573","275558.94217","276325.485178","265609.028228","266375.199301","267125.205871","267891.589963","268658.431632","269425.076358","270191.625549","270958.473092","276334.874768","Mapping"
"Mixed","Both","done","48","m160depth.wav","None","720.693549607","108","279442.205172","271725.115035","272491.564982","273258.33987","274025.779789","274792.372573","275558.94217","276325.485178","280208.802594","266375.199301","267125.205871","267891.589963","268658.431632","269425.076358","270191.625549","270958.473092","279451.78985","Mapping"
"Mixed","Both","done","48","m160done.wav","None","719.517454971","108","279442.205172","271725.115035","272491.564982","273258.33987","274025.779789","274792.372573","275558.94217","276325.485178","280208.802594","280958.194837","267125.205871","267891.589963","268658.431632","269425.076358","270191.625549","270958.473092","280218.359756","Mapping"
"Mixed","Both","done","48","m150cave.wav","None","735.544993542","108","279442.205172","271725.115035","272491.564982","273258.33987","274025.779789","274792.372573","275558.94217","276325.485178","280208.802594","280958.194837","281724.712492","267891.589963","268658.431632","269425.076358","270191.625549","270958.473092","280967.838258","Mapping"
"Mixed","Both","done","48","m150done.wav","None","734.877488576","108","279442.205172","271725.115035","272491.564982","273258.33987","274025.779789","274792.372573","275558.94217","276325.485178","280208.802594","280958.194837","281724.712492","282491.369894","268658.431632","269425.076358","270191.625549","270958.473092","281733.790126","Mapping"
"Mixed","Both","done","48","m150park.wav","None","734.140419867","108","279442.205172","271725.115035","272491.564982","273258.33987","274025.779789","274792.372573","275558.94217","276325.485178","280208.802594","280958.194837","281724.712492","282491.369894","283258.201051","269425.076358","270191.625549","270958.473092","282500.361578","Mapping"
"Mixed","Both","done","48","m150park.wav","None","732.722860528","108","279442.205172","271725.115035","272491.564982","273258.33987","274025.779789","274792.372573","275558.94217","276325.485178","280208.802594","280958.194837","281724.712492","282491.369894","283258.201051","284025.115994","270191.625549","270958.473092","283267.163982","Mapping"
"Mixed","Both","done","48","m150romp.wav","None","730.992727447","108","279442.205172","271725.115035","272491.564982","273258.33987","274025.779789","274792.372573","275558.94217","276325.485178","280208.802594","280958.194837","281724.712492","282491.369894","283258.201051","284025.115994","284791.409808","270958.473092","284034.363364","Mapping"
"Mixed","Both","done","48","m160gnash.wav","None","730.417356128","108","279442.205172","271725.115035","272491.564982","273258.33987","274025.779789","274792.372573","275558.94217","276325.485178","280208.802594","280958.194837","281724.712492","282491.369894","283258.201051","284025.115994","284791.409808","285558.150068","284800.350479","Mapping"
"Mixed","Both","done","48","m160knife.wav","None","729.159330251","108","279442.205172","286324.723066","272491.564982","273258.33987","274025.779789","274792.372573","275558.94217","276325.485178","280208.802594","280958.194837","281724.712492","282491.369894","283258.201051","284025.115994","284791.409808","285558.150068","285567.168032","Mapping"
"Mixed","Both","done","48","m150done.wav","None","727.540808497","108","279442.205172","286324.723066","287091.461471","273258.33987","274025.779789","274792.372573","275558.94217","276325.485178","280208.802594","280958.194837","281724.712492","282491.369894","283258.201051","284025.115994","284791.409808","285558.150068","286334.104617","Mapping"
"Mixed","Both","done","48","m150reek.wav","None","726.8358937","108","279442.205172","286324.723066","287091.461471","287858.107124","274025.779789","274792.372573","275558.94217","276325.485178","280208.802594","280958.194837","281724.712492","282491.369894","283258.201051","284025.115994","284791.409808","285558.150068","287100.323611","Mapping"
"Mixed","Both","done","48","m150depth.wav","None","725.500574568","108","279442.205172","286324.723066","287091.461471","287858.107124","288625.255802","274792.372573","275558.94217","276325.485178","280208.802594","280958.194837","281724.712492","282491.369894","283258.201051","284025.115994","284791.409808","285558.150068","287867.073147","Mapping"
"Mixed","Both","done","48","m160done.wav","None","723.403761862","108","279442.205172","286324.723066","287091.461471","287858.107124","288625.255802","289391.693073","275558.94217","276325.485178","280208.802594","280958.194837","281724.712492","282491.369894","283258.201051","284025.115994","284791.409808","285558.150068","288634.512139","Mapping"
"Mixed","Both","done","48","m160tile.wav","None","722.06349601","108","279442.205172","286324.723066","287091.461471","287858.107124","288625.255802","289391.693073","290158.403034","276325.485178","280208.802594","280958.194837","281724.712492","282491.369894","283258.201051","284025.115994","284791.409808","285558.150068","289401.463873","Mapping"
"Mixed","Both","done","48","m160depth.wav","None","721.047553001","108","279442.205172","286324.723066","287091.461471","287858.107124","288625.255802","289391.693073","290158.403034","290924.873695","280208.802594","280958.194837","281724.712492","282491.369894","283258.201051","284025.115994","284791.409808","285558.150068","290167.997915","Mapping"
"Mixed","Both","ball","5","m160bluff.wav","None","719.792618882","108","294041.662944","286324.723066","287091.461471","287858.107124","288625.255802","289391.693073","290158.403034","290924.873695","280208.802594","280958.194837","281724.712492","282491.369894","283258.201051","284025.115994","284791.409808","285558.150068","290934.730446","Mapping"
"Mixed","Both","ball","5","m150reek.wav","None","721.075378591","108","294041.662944","286324.723066","287091.461471","287858.107124","288625.255802","289391.693073","290158.403034","290924.873695","294808.375378","280958.194837","281724.712492","282491.369894","283258.201051","284025.115994","284791.409808","285558.150068","294051.189807","Mapping"
"Mixed","Both","ball","5","m150ball.wav","None","719.819517108","108","294041.662944","286324.723066","287091.461471","287858.107124","288625.255802","289391.693073","290158.403034","290924.873695","294808.375378","295557.940758","281724.712492","282491.369894","283258.201051","284025.115994","284791.409808","285558.150068","294817.974588","Mapping"
"Mixed","Both","ball","5","m150jaw.wav","None","736.245580018","108","294041.662944","286324.723066","287091.461471","287858.107124","288625.255802","289391.693073","290158.403034","290924.873695","294808.375378","295557.940758","296324.323305","282491.369894","283258.201051","284025.115994","284791.409808","285558.150068","295567.025194","Mapping"
"Mixed","Both","ball","5","m150ball.wav","None","735.519641312","108","294041.662944","286324.723066","287091.461471","287858.107124","288625.255802","289391.693073","290158.403034","290924.873695","294808.375378","295557.940758","296324.323305","297091.124781","283258.201051","284025.115994","284791.409808","285558.150068","296333.249753","Mapping"
"Mixed","Both","ball","5","m150cave.wav","None","734.143202193","108","294041.662944","286324.723066","287091.461471","287858.107124","288625.255802","289391.693073","290158.403034","290924.873695","294808.375378","295557.940758","296324.323305","297091.124781","297858.054255","284025.115994","284791.409808","285558.150068","297100.29424","Mapping"
"Mixed","Both","ball","5","m160ball.wav","None","732.928769896","108","294041.662944","286324.723066","287091.461471","287858.107124","288625.255802","289391.693073","290158.403034","290924.873695","294808.375378","295557.940758","296324.323305","297091.124781","297858.054255","298624.583969","284791.409808","285558.150068","297867.244429","Mapping"
"Mixed","Both","ball","5","m160park.wav","None","731.719593517","108","294041.662944","286324.723066","287091.461471","287858.107124","288625.255802","289391.693073","290158.403034","290924.873695","294808.375378","295557.940758","296324.323305","297091.124781","297858.054255","298624.583969","299391.330722","285558.150068","298633.825156","Mapping"
"Mixed","Both","ball","5","m160ball.wav","None","730.063661933","108","294041.662944","286324.723066","287091.461471","287858.107124","288625.255802","289391.693073","290158.403034","290924.873695","294808.375378","295557.940758","296324.323305","297091.124781","297858.054255","298624.583969","299391.330722","300157.991833","299401.042161","Mapping"
"Mixed","Both","ball","5","m160depth.wav","None","729.749232763","108","294041.662944","300924.584618","287091.461471","287858.107124","288625.255802","289391.693073","290158.403034","290924.873695","294808.375378","295557.940758","296324.323305","297091.124781","297858.054255","298624.583969","299391.330722","300157.991833","300166.872215","Mapping"
"Mixed","Both","ball","5","m150done.wav","None","728.596325964","108","294041.662944","300924.584618","301690.811651","287858.107124","288625.255802","289391.693073","290158.403034","290924.873695","294808.375378","295557.940758","296324.323305","297091.124781","297858.054255","298624.583969","299391.330722","300157.991833","300933.631644","Mapping"
"Mixed","Both","ball","5","m150dime.wav","None","727.998384973","108","294041.662944","300924.584618","301690.811651","302457.853046","288625.255802","289391.693073","290158.403034","290924.873695","294808.375378","295557.940758","296324.323305","297091.124781","297858.054255","298624.583969","299391.330722","300157.991833","301700.018829","Mapping"
"Mixed","Both","ball","5","m160reek.wav","None","726.260831347","108","294041.662944","300924.584618","301690.811651","302457.853046","303224.437482","289391.693073","290158.403034","290924.873695","294808.375378","295557.940758","296324.323305","297091.124781","297858.054255","298624.583969","299391.330722","300157.991833","302467.205844","Mapping"
"Mixed","Both","ball","5","m150cling.wav","None","725.495937048","108","294041.662944","300924.584618","301690.811651","302457.853046","303224.437482","303991.354281","290158.403034","290924.873695","294808.375378","295557.940758","296324.323305","297091.124781","297858.054255","298624.583969","299391.330722","300157.991833","303233.546343","Mapping"
"Mixed","Both","ball","5","m160dime.wav","None","723.688819679","108","294041.662944","300924.584618","301690.811651","302457.853046","303224.437482","303991.354281","304757.848748","290924.873695","294808.375378","295557.940758","296324.323305","297091.124781","297858.054255","298624.583969","299391.330722","300157.991833","304001.23391","Mapping"
"Mixed","Both","ball","5","m160greet.wav","None","723.774769809","108","294041.662944","300924.584618","301690.811651","302457.853046","303224.437482","303991.354281","304757.848748","305524.947649","294808.375378","295557.940758","296324.323305","297091.124781","297858.054255","298624.583969","299391.330722","300157.991833","304766.733767","Mapping"
"Mixed","Both","cave","17","m160done.wav","None","721.735154279","108","308641.368363","300924.584618","301690.811651","302457.853046","303224.437482","303991.354281","304757.848748","305524.947649","294808.375378","295557.940758","296324.323305","297091.124781","297858.054255","298624.583969","299391.330722","300157.991833","305534.429991","Mapping"
"Mixed","Both","cave","17","m160romp.wav","None","720.567716286","108","308641.368363","300924.584618","301690.811651","302457.853046","303224.437482","303991.354281","304757.848748","305524.947649","309407.853865","295557.940758","296324.323305","297091.124781","297858.054255","298624.583969","299391.330722","300157.991833","308651.396087","Mapping"
"Mixed","Both","cave","17","m160cad.wav","None","720.893275691","108","308641.368363","300924.584618","301690.811651","302457.853046","303224.437482","303991.354281","304757.848748","305524.947649","309407.853865","310157.853942","296324.323305","297091.124781","297858.054255","298624.583969","299391.330722","300157.991833","309416.656953","Mapping"
"Mixed","Both","cave","17","m160cave.wav","None","735.881992383","108","308641.368363","300924.584618","301690.811651","302457.853046","303224.437482","303991.354281","304757.848748","305524.947649","309407.853865","310157.853942","310924.129824","297091.124781","297858.054255","298624.583969","299391.330722","300157.991833","310167.241677","Mapping"
"Mixed","Both","cave","17","m150romp.wav","None","735.441111261","108","308641.368363","300924.584618","301690.811651","302457.853046","303224.437482","303991.354281","304757.848748","305524.947649","309407.853865","310157.853942","310924.129824","311690.888944","297858.054255","298624.583969","299391.330722","300157.991833","310933.245487","Mapping"
"Mixed","Both","cave","17","m150knife.wav","None","734.408472665","108","308641.368363","300924.584618","301690.811651","302457.853046","303224.437482","303991.354281","304757.848748","305524.947649","309407.853865","310157.853942","310924.129824","311690.888944","312457.598905","298624.583969","299391.330722","300157.991833","311699.870426","Mapping"
"Mixed","Both","cave","17","m150cave.wav","None","732.905272627","108","308641.368363","300924.584618","301690.811651","302457.853046","303224.437482","303991.354281","304757.848748","305524.947649","309407.853865","310157.853942","310924.129824","311690.888944","312457.598905","313224.299282","299391.330722","300157.991833","312466.933153","Mapping"
"Mixed","Both","cave","17","m150depth.wav","None","731.864595786","108","308641.368363","300924.584618","301690.811651","302457.853046","303224.437482","303991.354281","304757.848748","305524.947649","309407.853865","310157.853942","310924.129824","311690.888944","312457.598905","313224.299282","313990.87568","300157.991833","313233.374134","Mapping"
"Mixed","Both","cave","17","m150lash.wav","None","730.364178075","108","308641.368363","300924.584618","301690.811651","302457.853046","303224.437482","303991.354281","304757.848748","305524.947649","309407.853865","310157.853942","310924.129824","311690.888944","312457.598905","313224.299282","313990.87568","314757.620578","314000.396669","Mapping"
"Mixed","Both","cave","17","m160knife.wav","None","735.019399086","108","308641.368363","315524.249536","301690.811651","302457.853046","303224.437482","303991.354281","304757.848748","305524.947649","309407.853865","310157.853942","310924.129824","311690.888944","312457.598905","313224.299282","313990.87568","314757.620578","314761.288918","Mapping"
"Mixed","Both","cave","17","m150cave.wav","None","728.536655428","108","308641.368363","315524.249536","316290.828099","302457.853046","303224.437482","303991.354281","304757.848748","305524.947649","309407.853865","310157.853942","310924.129824","311690.888944","312457.598905","313224.299282","313990.87568","314757.620578","315533.239983","Mapping"
"Mixed","Both","cave","17","m150dime.wav","None","728.210786823","108","308641.368363","315524.249536","316290.828099","317057.530949","303224.437482","303991.354281","304757.848748","305524.947649","309407.853865","310157.853942","310924.129824","311690.888944","312457.598905","313224.299282","313990.87568","314757.620578","316299.744345","Mapping"
"Mixed","Both","cave","17","m160cave.wav","None","727.034382755","108","308641.368363","315524.249536","316290.828099","317057.530949","317824.358087","303991.354281","304757.848748","305524.947649","309407.853865","310157.853942","310924.129824","311690.888944","312457.598905","313224.299282","313990.87568","314757.620578","317067.063377","Mapping"
"Mixed","Both","cave","17","m160greet.wav","None","726.070071803","108","308641.368363","315524.249536","316290.828099","317057.530949","317824.358087","318590.640462","304757.848748","305524.947649","309407.853865","310157.853942","310924.129824","311690.888944","312457.598905","313224.299282","313990.87568","314757.620578","317833.502193","Mapping"
"Mixed","Both","cave","17","m160bluff.wav","None","725.831389893","108","308641.368363","315524.249536","316290.828099","317057.530949","317824.358087","318590.640462","319357.842627","305524.947649","309407.853865","310157.853942","310924.129824","311690.888944","312457.598905","313224.299282","313990.87568","314757.620578","318599.360382","Mapping"
"Mixed","Both","cave","17","m150priest.wav","None","723.31101005","108","308641.368363","315524.249536","316290.828099","317057.530949","317824.358087","318590.640462","319357.842627","320124.251453","309407.853865","310157.853942","310924.129824","311690.888944","312457.598905","313224.299282","313990.87568","314757.620578","319367.505835","Mapping"
"Mixed","Both","tile","27","m160priest.wav","None","723.120250273","108","323241.092952","315524.249536","316290.828099","317057.530949","317824.358087","318590.640462","319357.842627","320124.251453","309407.853865","310157.853942","310924.129824","311690.888944","312457.598905","313224.299282","313990.87568","314757.620578","320133.318575","Mapping"
"Mixed","Both","tile","27","m160tile.wav","None","721.235530451","108","323241.092952","315524.249536","316290.828099","317057.530949","317824.358087","318590.640462","319357.842627","320124.251453","324007.979142","310157.853942","310924.129824","311690.888944","312457.598905","313224.299282","313990.87568","314757.620578","323250.639911","Mapping"
"Mixed","Both","tile","27","m150jolt.wav","None","720.240301685","108","323241.092952","315524.249536","316290.828099","317057.530949","317824.358087","318590.640462","319357.842627","320124.251453","324007.979142","324774.387041","310924.129824","311690.888944","312457.598905","313224.299282","313990.87568","314757.620578","324017.368423","Mapping"
"Mixed","Both","tile","27","m160dime.wav","None","718.570766505","108","323241.092952","315524.249536","316290.828099","317057.530949","317824.358087","318590.640462","319357.842627","320124.251453","324007.979142","324774.387041","325523.821022","311690.888944","312457.598905","313224.299282","313990.87568","314757.620578","324784.647572","Mapping"
"Mixed","Both","tile","27","m150jaw.wav","None","736.233522184","108","323241.092952","315524.249536","316290.828099","317057.530949","317824.358087","318590.640462","319357.842627","320124.251453","324007.979142","324774.387041","325523.821022","326290.436067","312457.598905","313224.299282","313990.87568","314757.620578","325532.779625","Mapping"
"Mixed","Both","tile","27","m150greet.wav","None","735.704527004","108","323241.092952","315524.249536","316290.828099","317057.530949","317824.358087","318590.640462","319357.842627","320124.251453","324007.979142","324774.387041","325523.821022","326290.436067","327057.293504","313224.299282","313990.87568","314757.620578","326299.526996","Mapping"
"Mixed","Both","tile","27","m160tile.wav","None","734.396415064","108","323241.092952","315524.249536","316290.828099","317057.530949","317824.358087","318590.640462","319357.842627","320124.251453","324007.979142","324774.387041","325523.821022","326290.436067","327057.293504","327823.943795","313990.87568","314757.620578","327066.680621","Mapping"
"Mixed","Both","tile","27","m150gnash.wav","None","733.770648483","108","323241.092952","315524.249536","316290.828099","317057.530949","317824.358087","318590.640462","319357.842627","320124.251453","324007.979142","324774.387041","325523.821022","326290.436067","327057.293504","327823.943795","328590.310883","314757.620578","327833.423663","Mapping"
"Mixed","Both","tile","27","m160jaw.wav","None","736.084191594","108","323241.092952","315524.249536","316290.828099","317057.530949","317824.358087","318590.640462","319357.842627","320124.251453","324007.979142","324774.387041","325523.821022","326290.436067","327057.293504","327823.943795","328590.310883","329357.214387","328598.931559","Mapping"
"Mixed","Both","tile","27","m160cad.wav","None","734.074874781","108","323241.092952","330124.111088","316290.828099","317057.530949","317824.358087","318590.640462","319357.842627","320124.251453","324007.979142","324774.387041","325523.821022","326290.436067","327057.293504","327823.943795","328590.310883","329357.214387","329366.62129","Mapping"
"Mixed","Both","tile","27","m150park.wav","None","732.627325924","108","323241.092952","330124.111088","330890.509712","317057.530949","317824.358087","318590.640462","319357.842627","320124.251453","324007.979142","324774.387041","325523.821022","326290.436067","327057.293504","327823.943795","328590.310883","329357.214387","330133.856537","Mapping"
"Mixed","Both","tile","27","m160gnash.wav","None","732.718223007","108","323241.092952","330124.111088","330890.509712","331657.327884","317824.358087","318590.640462","319357.842627","320124.251453","324007.979142","324774.387041","325523.821022","326290.436067","327057.293504","327823.943795","328590.310883","329357.214387","330899.565086","Mapping"
"Mixed","Both","tile","27","m150tile.wav","None","731.733815512","108","323241.092952","330124.111088","330890.509712","331657.327884","332423.957151","318590.640462","319357.842627","320124.251453","324007.979142","324774.387041","325523.821022","326290.436067","327057.293504","327823.943795","328590.310883","329357.214387","331666.354505","Mapping"
"Mixed","Both","tile","27","m150done.wav","None","730.895337649","108","323241.092952","330124.111088","330890.509712","331657.327884","332423.957151","333190.554573","319357.842627","320124.251453","324007.979142","324774.387041","325523.821022","326290.436067","327057.293504","327823.943795","328590.310883","329357.214387","332433.057355","Mapping"
