"Condition","Talker","Target","Trial","current_stimulus","response_response","response_time_response","subject_nr","time_Audio1","time_Audio10","time_Audio11","time_Audio12","time_Audio13","time_Audio14","time_Audio15","time_Audio16","time_Audio2","time_Audio3","time_Audio4","time_Audio5","time_Audio6","time_Audio7","time_Audio8","time_Audio9","time_response","title"
"Blocked","m150","cave","11","m150greet.wav","NA","NA","141","118128.030786","NA","NA","NA","NA","NA","NA","NA","NA","NA","NA","NA","NA","NA","NA","NA","NA","Mapping"
"Blocked","m150","cave","11","m150priest.wav","None","716.405626852","141","118128.030786","NA","NA","NA","NA","NA","NA","NA","118877.827427","NA","NA","NA","NA","NA","NA","NA","118141.624513","Mapping"
"Blocked","m150","cave","11","m150cave.wav","None","734.580991324","141","118128.030786","NA","NA","NA","NA","NA","NA","NA","118877.827427","119644.226051","NA","NA","NA","NA","NA","NA","118887.596064","Mapping"
"Blocked","m150","cave","11","m150tile.wav","space","434.920432512","141","118128.030786","NA","NA","NA","NA","NA","NA","NA","118877.827427","119644.226051","120410.770296","NA","NA","NA","NA","NA","119653.09252","Mapping"
"Blocked","m150","cave","11","m150dime.wav","None","730.583691038","141","118128.030786","NA","NA","NA","NA","NA","NA","NA","118877.827427","119644.226051","120410.770296","121177.803343","NA","NA","NA","NA","120419.686232","Mapping"
"Blocked","m150","cave","11","m150done.wav","None","727.654893417","141","118128.030786","NA","NA","NA","NA","NA","NA","NA","118877.827427","119644.226051","120410.770296","121177.803343","121944.431682","NA","NA","NA","121186.939411","Mapping"
"Blocked","m150","cave","11","m150cave.wav","None","724.902633578","141","118128.030786","NA","NA","NA","NA","NA","NA","NA","118877.827427","119644.226051","120410.770296","121177.803343","121944.431682","122711.600147","NA","NA","121953.947724","Mapping"
"Blocked","m150","cave","11","m150knife.wav","space","382.18445098","141","118128.030786","NA","NA","NA","NA","NA","NA","NA","118877.827427","119644.226051","120410.770296","121177.803343","121944.431682","122711.600147","123477.897672","NA","122721.756796","Mapping"
"Blocked","m150","cave","11","m150knife.wav","None","719.512199052","141","118128.030786","NA","NA","NA","NA","NA","NA","NA","118877.827427","119644.226051","120410.770296","121177.803343","121944.431682","122711.600147","123477.897672","124227.534161","123487.588087","Mapping"
"Blocked","m150","cave","11","m150cling.wav","None","734.72692119","141","118128.030786","124994.42839","NA","NA","NA","NA","NA","NA","118877.827427","119644.226051","120410.770296","121177.803343","121944.431682","122711.600147","123477.897672","124227.534161","124236.533575","Mapping"
"Blocked","m150","cave","11","m150reek.wav","None","731.64322786","141","118128.030786","124994.42839","125760.971706","NA","NA","NA","NA","NA","118877.827427","119644.226051","120410.770296","121177.803343","121944.431682","122711.600147","123477.897672","124227.534161","125003.766966","Mapping"
"Blocked","m150","cave","11","m150cave.wav","None","729.645659681","141","118128.030786","124994.42839","125760.971706","126527.826361","NA","NA","NA","NA","118877.827427","119644.226051","120410.770296","121177.803343","121944.431682","122711.600147","123477.897672","124227.534161","125769.969574","Mapping"
"Blocked","m150","cave","11","m150priest.wav","space","422.584731132","141","118128.030786","124994.42839","125760.971706","126527.826361","127295.069955","NA","NA","NA","118877.827427","119644.226051","120410.770296","121177.803343","121944.431682","122711.600147","123477.897672","124227.534161","126537.296336","Mapping"
"Blocked","m150","cave","11","m150reek.wav","None","722.99163416","141","118128.030786","124994.42839","125760.971706","126527.826361","127295.069955","128061.454975","NA","NA","118877.827427","119644.226051","120410.770296","121177.803343","121944.431682","122711.600147","123477.897672","124227.534161","127304.750477","Mapping"
"Blocked","m150","cave","11","m150cave.wav","None","721.343431622","141","118128.030786","124994.42839","125760.971706","126527.826361","127295.069955","128061.454975","128811.495863","NA","118877.827427","119644.226051","120410.770296","121177.803343","121944.431682","122711.600147","123477.897672","124227.534161","128071.018011","Mapping"
"Blocked","m150","cave","11","m150bluff.wav","space","435.386666097","141","118128.030786","124994.42839","125760.971706","126527.826361","127295.069955","128061.454975","128811.495863","129577.760924","118877.827427","119644.226051","120410.770296","121177.803343","121944.431682","122711.600147","123477.897672","124227.534161","128820.444572","Mapping"
"Blocked","m150","tile","16","m150park.wav","None","733.943167143","141","132744.737022","124994.42839","125760.971706","126527.826361","127295.069955","128061.454975","128811.495863","129577.760924","118877.827427","119644.226051","120410.770296","121177.803343","121944.431682","122711.600147","123477.897672","124227.534161","129586.797748","Mapping"
"Blocked","m150","tile","16","m150lash.wav","None","722.351645585","141","132744.737022","124994.42839","125760.971706","126527.826361","127295.069955","128061.454975","128811.495863","129577.760924","133510.903147","119644.226051","120410.770296","121177.803343","121944.431682","122711.600147","123477.897672","124227.534161","132754.288928","Mapping"
"Blocked","m150","tile","16","m150ball.wav","None","722.17294341","141","132744.737022","124994.42839","125760.971706","126527.826361","127295.069955","128061.454975","128811.495863","129577.760924","133510.903147","134261.218891","120410.770296","121177.803343","121944.431682","122711.600147","123477.897672","124227.534161","133519.684284","Mapping"
"Blocked","m150","tile","16","m150romp.wav","None","735.67206366","141","132744.737022","124994.42839","125760.971706","126527.826361","127295.069955","128061.454975","128811.495863","129577.760924","133510.903147","134261.218891","135027.94802","121177.803343","121944.431682","122711.600147","123477.897672","124227.534161","134270.636306","Mapping"
"Blocked","m150","tile","16","m150gnash.wav","None","739.627934992","141","132744.737022","124994.42839","125760.971706","126527.826361","127295.069955","128061.454975","128811.495863","129577.760924","133510.903147","134261.218891","135027.94802","135794.424556","121944.431682","122711.600147","123477.897672","124227.534161","135031.174552","Mapping"
"Blocked","m150","tile","16","m150tile.wav","None","731.673217379","141","132744.737022","124994.42839","125760.971706","126527.826361","127295.069955","128061.454975","128811.495863","129577.760924","133510.903147","134261.218891","135027.94802","135794.424556","136561.036509","122711.600147","123477.897672","124227.534161","135803.534963","Mapping"
"Blocked","m150","tile","16","m150knife.wav","space","429.141058121","141","132744.737022","124994.42839","125760.971706","126527.826361","127295.069955","128061.454975","128811.495863","129577.760924","133510.903147","134261.218891","135027.94802","135794.424556","136561.036509","137327.331251","123477.897672","124227.534161","136570.568937","Mapping"
"Blocked","m150","tile","16","m150done.wav","None","728.305703029","141","132744.737022","124994.42839","125760.971706","126527.826361","127295.069955","128061.454975","128811.495863","129577.760924","133510.903147","134261.218891","135027.94802","135794.424556","136561.036509","137327.331251","138094.303082","124227.534161","137336.123209","Mapping"
"Blocked","m150","tile","16","m150ball.wav","None","725.463473704","141","132744.737022","124994.42839","125760.971706","126527.826361","127295.069955","128061.454975","128811.495863","129577.760924","133510.903147","134261.218891","135027.94802","135794.424556","136561.036509","137327.331251","138094.303082","138860.880717","138103.430184","Mapping"
"Blocked","m150","tile","16","m150park.wav","None","723.637496587","141","132744.737022","139627.861514","125760.971706","126527.826361","127295.069955","128061.454975","128811.495863","129577.760924","133510.903147","134261.218891","135027.94802","135794.424556","136561.036509","137327.331251","138094.303082","138860.880717","138869.640521","Mapping"
"Blocked","m150","tile","16","m150tile.wav","None","720.261634793","141","132744.737022","139627.861514","140377.510679","126527.826361","127295.069955","128061.454975","128811.495863","129577.760924","133510.903147","134261.218891","135027.94802","135794.424556","136561.036509","137327.331251","138094.303082","138860.880717","139637.393014","Mapping"
"Blocked","m150","tile","16","m150jaw.wav","space","453.050348908","141","132744.737022","139627.861514","140377.510679","141143.926617","127295.069955","128061.454975","128811.495863","129577.760924","133510.903147","134261.218891","135027.94802","135794.424556","136561.036509","137327.331251","138094.303082","138860.880717","140386.562652","Mapping"
"Blocked","m150","tile","16","m150tile.wav","None","733.790435828","141","132744.737022","139627.861514","140377.510679","141143.926617","141910.807551","128061.454975","128811.495863","129577.760924","133510.903147","134261.218891","135027.94802","135794.424556","136561.036509","137327.331251","138094.303082","138860.880717","141152.729396","Mapping"
"Blocked","m150","tile","16","m150romp.wav","space","543.738268781","141","132744.737022","139627.861514","140377.510679","141143.926617","141910.807551","142677.518439","128811.495863","129577.760924","133510.903147","134261.218891","135027.94802","135794.424556","136561.036509","137327.331251","138094.303082","138860.880717","141919.865089","Mapping"
"Blocked","m150","tile","16","m150tile.wav","None","728.562935255","141","132744.737022","139627.861514","140377.510679","141143.926617","141910.807551","142677.518439","143443.906861","129577.760924","133510.903147","134261.218891","135027.94802","135794.424556","136561.036509","137327.331251","138094.303082","138860.880717","142686.513525","Mapping"
"Blocked","m150","tile","16","m150dime.wav","space","442.99851032","141","132744.737022","139627.861514","140377.510679","141143.926617","141910.807551","142677.518439","143443.906861","144210.945473","133510.903147","134261.218891","135027.94802","135794.424556","136561.036509","137327.331251","138094.303082","138860.880717","143452.575459","Mapping"
"Blocked","m150","cave","10","m150done.wav","None","723.907405045","141","147327.915897","139627.861514","140377.510679","141143.926617","141910.807551","142677.518439","143443.906861","144210.945473","133510.903147","134261.218891","135027.94802","135794.424556","136561.036509","137327.331251","138094.303082","138860.880717","144220.042276","Mapping"
"Blocked","m150","cave","10","m150greet.wav","None","720.88152729","141","147327.915897","139627.861514","140377.510679","141143.926617","141910.807551","142677.518439","143443.906861","144210.945473","148077.567846","134261.218891","135027.94802","135794.424556","136561.036509","137327.331251","138094.303082","138860.880717","147337.594564","Mapping"
"Blocked","m150","cave","10","m150cave.wav","None","736.31854495","141","147327.915897","139627.861514","140377.510679","141143.926617","141910.807551","142677.518439","143443.906861","144210.945473","148077.567846","148843.766125","135027.94802","135794.424556","136561.036509","137327.331251","138094.303082","138860.880717","148086.608379","Mapping"
"Blocked","m150","cave","10","m150romp.wav","space","467.007973231","141","147327.915897","139627.861514","140377.510679","141143.926617","141910.807551","142677.518439","143443.906861","144210.945473","148077.567846","148843.766125","149610.399102","135794.424556","136561.036509","137327.331251","138094.303082","138860.880717","148852.46193","Mapping"
"Blocked","m150","cave","10","m150cave.wav","None","732.285998762","141","147327.915897","139627.861514","140377.510679","141143.926617","141910.807551","142677.518439","143443.906861","144210.945473","148077.567846","148843.766125","149610.399102","150377.084948","136561.036509","137327.331251","138094.303082","138860.880717","149619.109439","Mapping"
"Blocked","m150","cave","10","m150jolt.wav","space","629.358839709","141","147327.915897","139627.861514","140377.510679","141143.926617","141910.807551","142677.518439","143443.906861","144210.945473","148077.567846","148843.766125","149610.399102","150377.084948","151143.81717","137327.331251","138094.303082","138860.880717","150386.06983","Mapping"
"Blocked","m150","cave","10","m150jaw.wav","None","727.098690812","141","147327.915897","139627.861514","140377.510679","141143.926617","141910.807551","142677.518439","143443.906861","144210.945473","148077.567846","148843.766125","149610.399102","150377.084948","151143.81717","151910.969867","138094.303082","138860.880717","151152.539564","Mapping"
"Blocked","m150","cave","10","m150romp.wav","None","723.337289877","141","147327.915897","139627.861514","140377.510679","141143.926617","141910.807551","142677.518439","143443.906861","144210.945473","148077.567846","148843.766125","149610.399102","150377.084948","151143.81717","151910.969867","152677.643036","138860.880717","151920.721499","Mapping"
"Blocked","m150","cave","10","m150bluff.wav","None","721.35239793","141","147327.915897","139627.861514","140377.510679","141143.926617","141910.807551","142677.518439","143443.906861","144210.945473","148077.567846","148843.766125","149610.399102","150377.084948","151143.81717","151910.969867","152677.643036","153444.767908","152687.377973","Mapping"
"Blocked","m150","cave","10","m150dime.wav","None","718.932189979","141","147327.915897","154193.897972","140377.510679","141143.926617","141910.807551","142677.518439","143443.906861","144210.945473","148077.567846","148843.766125","149610.399102","150377.084948","151143.81717","151910.969867","152677.643036","153444.767908","153454.361862","Mapping"
"Blocked","m150","cave","10","m150dime.wav","None","734.293151181","141","147327.915897","154193.897972","154960.639469","141143.926617","141910.807551","142677.518439","143443.906861","144210.945473","148077.567846","148843.766125","149610.399102","150377.084948","151143.81717","151910.969867","152677.643036","153444.767908","154203.293745","Mapping"
"Blocked","m150","cave","10","m150bluff.wav","None","731.995067094","141","147327.915897","154193.897972","154960.639469","155727.286668","141910.807551","142677.518439","143443.906861","144210.945473","148077.567846","148843.766125","149610.399102","150377.084948","151143.81717","151910.969867","152677.643036","153444.767908","154969.966915","Mapping"
"Blocked","m150","cave","10","m150cave.wav","None","729.765000753","141","147327.915897","154193.897972","154960.639469","155727.286668","156493.657157","142677.518439","143443.906861","144210.945473","148077.567846","148843.766125","149610.399102","150377.084948","151143.81717","151910.969867","152677.643036","153444.767908","155736.38007","Mapping"
"Blocked","m150","cave","10","m150dime.wav","space","369.003160391","141","147327.915897","154193.897972","154960.639469","155727.286668","156493.657157","157260.506555","143443.906861","144210.945473","148077.567846","148843.766125","149610.399102","150377.084948","151143.81717","151910.969867","152677.643036","153444.767908","156502.345852","Mapping"
"Blocked","m150","cave","10","m150cave.wav","None","727.519166656","141","147327.915897","154193.897972","154960.639469","155727.286668","156493.657157","157260.506555","158027.239395","144210.945473","148077.567846","148843.766125","149610.399102","150377.084948","151143.81717","151910.969867","152677.643036","153444.767908","157269.160931","Mapping"
"Blocked","m150","cave","10","m150tile.wav","space","579.065635335","141","147327.915897","154193.897972","154960.639469","155727.286668","156493.657157","157260.506555","158027.239395","158794.2845","148077.567846","148843.766125","149610.399102","150377.084948","151143.81717","151910.969867","152677.643036","153444.767908","158036.243756","Mapping"
"Blocked","m150","tile","17","m150park.wav","None","720.936559606","141","161911.116415","154193.897972","154960.639469","155727.286668","156493.657157","157260.506555","158027.239395","158794.2845","148077.567846","148843.766125","149610.399102","150377.084948","151143.81717","151910.969867","152677.643036","153444.767908","158804.256882","Mapping"
"Blocked","m150","tile","17","m150ball.wav","None","720.839170273","141","161911.116415","154193.897972","154960.639469","155727.286668","156493.657157","157260.506555","158027.239395","158794.2845","162660.372312","148843.766125","149610.399102","150377.084948","151143.81717","151910.969867","152677.643036","153444.767908","161920.562893","Mapping"
"Blocked","m150","tile","17","m150jolt.wav","None","736.771792639","141","161911.116415","154193.897972","154960.639469","155727.286668","156493.657157","157260.506555","158027.239395","158794.2845","162660.372312","163427.145345","149610.399102","150377.084948","151143.81717","151910.969867","152677.643036","153444.767908","162669.176947","Mapping"
"Blocked","m150","tile","17","m150tile.wav","None","734.932212159","141","161911.116415","154193.897972","154960.639469","155727.286668","156493.657157","157260.506555","158027.239395","158794.2845","162660.372312","163427.145345","164193.851287","150377.084948","151143.81717","151910.969867","152677.643036","153444.767908","163436.097764","Mapping"
"Blocked","m150","tile","17","m150lash.wav","space","475.997183938","141","161911.116415","154193.897972","154960.639469","155727.286668","156493.657157","157260.506555","158027.239395","158794.2845","162660.372312","163427.145345","164193.851287","164960.186221","151143.81717","151910.969867","152677.643036","153444.767908","164203.208723","Mapping"
"Blocked","m150","tile","17","m150ball.wav","None","730.908941478","141","161911.116415","154193.897972","154960.639469","155727.286668","156493.657157","157260.506555","158027.239395","158794.2845","162660.372312","163427.145345","164193.851287","164960.186221","165727.174747","151910.969867","152677.643036","153444.767908","164968.80226","Mapping"
"Blocked","m150","tile","17","m150cling.wav","None","733.233305626","141","161911.116415","154193.897972","154960.639469","155727.286668","156493.657157","157260.506555","158027.239395","158794.2845","162660.372312","163427.145345","164193.851287","164960.186221","165727.174747","166493.766604","152677.643036","153444.767908","165731.019934","Mapping"
"Blocked","m150","tile","17","m150jaw.wav","None","726.114901714","141","161911.116415","154193.897972","154960.639469","155727.286668","156493.657157","157260.506555","158027.239395","158794.2845","162660.372312","163427.145345","164193.851287","164960.186221","165727.174747","166493.766604","167260.994121","153444.767908","166502.967599","Mapping"
"Blocked","m150","tile","17","m150tile.wav","None","723.059343174","141","161911.116415","154193.897972","154960.639469","155727.286668","156493.657157","157260.506555","158027.239395","158794.2845","162660.372312","163427.145345","164193.851287","164960.186221","165727.174747","166493.766604","167260.994121","168027.407895","167270.512637","Mapping"
"Blocked","m150","tile","17","m150jaw.wav","space","466.310478747","141","161911.116415","168777.167126","154960.639469","155727.286668","156493.657157","157260.506555","158027.239395","158794.2845","162660.372312","163427.145345","164193.851287","164960.186221","165727.174747","166493.766604","167260.994121","168027.407895","168036.856537","Mapping"
"Blocked","m150","tile","17","m150done.wav","None","735.636508558","141","161911.116415","168777.167126","169543.658811","155727.286668","156493.657157","157260.506555","158027.239395","158794.2845","162660.372312","163427.145345","164193.851287","164960.186221","165727.174747","166493.766604","167260.994121","168027.407895","168786.721196","Mapping"
"Blocked","m150","tile","17","m150tile.wav","None","734.211220406","141","161911.116415","168777.167126","169543.658811","170310.335381","156493.657157","157260.506555","158027.239395","158794.2845","162660.372312","163427.145345","164193.851287","164960.186221","165727.174747","166493.766604","167260.994121","168027.407895","169552.74603","Mapping"
"Blocked","m150","tile","17","m150ball.wav","space","359.641087241","141","161911.116415","168777.167126","169543.658811","170310.335381","171077.032357","157260.506555","158027.239395","158794.2845","162660.372312","163427.145345","164193.851287","164960.186221","165727.174747","166493.766604","167260.994121","168027.407895","170319.408996","Mapping"
"Blocked","m150","tile","17","m150lash.wav","None","729.26877765","141","161911.116415","168777.167126","169543.658811","170310.335381","171077.032357","171843.692851","158027.239395","158794.2845","162660.372312","163427.145345","164193.851287","164960.186221","165727.174747","166493.766604","167260.994121","168027.407895","171086.767294","Mapping"
"Blocked","m150","tile","17","m150tile.wav","None","727.533388417","141","161911.116415","168777.167126","169543.658811","170310.335381","171077.032357","171843.692851","172610.321191","158794.2845","162660.372312","163427.145345","164193.851287","164960.186221","165727.174747","166493.766604","167260.994121","168027.407895","171853.074712","Mapping"
"Blocked","m150","tile","17","m150greet.wav","space","539.113346953","141","161911.116415","168777.167126","169543.658811","170310.335381","171077.032357","171843.692851","172610.321191","173376.978283","162660.372312","163427.145345","164193.851287","164960.186221","165727.174747","166493.766604","167260.994121","168027.407895","172619.931221","Mapping"
"Blocked","m150","ball","4","m150knife.wav","None","723.787445575","141","176494.076087","168777.167126","169543.658811","170310.335381","171077.032357","171843.692851","172610.321191","173376.978283","162660.372312","163427.145345","164193.851287","164960.186221","165727.174747","166493.766604","167260.994121","168027.407895","173385.802705","Mapping"
"Blocked","m150","ball","4","m150priest.wav","None","720.393651631","141","176494.076087","168777.167126","169543.658811","170310.335381","171077.032357","171843.692851","172610.321191","173376.978283","177243.094848","163427.145345","164193.851287","164960.186221","165727.174747","166493.766604","167260.994121","168027.407895","176503.563376","Mapping"
"Blocked","m150","ball","4","m150ball.wav","None","736.920814496","141","176494.076087","168777.167126","169543.658811","170310.335381","171077.032357","171843.692851","172610.321191","173376.978283","177243.094848","178010.356993","164193.851287","164960.186221","165727.174747","166493.766604","167260.994121","168027.407895","177251.753862","Mapping"
"Blocked","m150","ball","4","m150gnash.wav","space","403.003864922","141","176494.076087","168777.167126","169543.658811","170310.335381","171077.032357","171843.692851","172610.321191","173376.978283","177243.094848","178010.356993","178776.66472","164960.186221","165727.174747","166493.766604","167260.994121","168027.407895","178019.948164","Mapping"
"Blocked","m150","ball","4","m150cave.wav","None","731.716192793","141","176494.076087","168777.167126","169543.658811","170310.335381","171077.032357","171843.692851","172610.321191","173376.978283","177243.094848","178010.356993","178776.66472","179543.533287","165727.174747","166493.766604","167260.994121","168027.407895","178785.568599","Mapping"
"Blocked","m150","ball","4","m150ball.wav","None","729.051119648","141","176494.076087","168777.167126","169543.658811","170310.335381","171077.032357","171843.692851","172610.321191","173376.978283","177243.094848","178010.356993","178776.66472","179543.533287","180310.058672","166493.766604","167260.994121","168027.407895","179552.903399","Mapping"
"Blocked","m150","ball","4","m150jaw.wav","space","352.131269872","141","176494.076087","168777.167126","169543.658811","170310.335381","171077.032357","171843.692851","172610.321191","173376.978283","177243.094848","178010.356993","178776.66472","179543.533287","180310.058672","181076.845308","167260.994121","168027.407895","180318.790032","Mapping"
"Blocked","m150","ball","4","m150park.wav","None","724.13371969","141","176494.076087","168777.167126","169543.658811","170310.335381","171077.032357","171843.692851","172610.321191","173376.978283","177243.094848","178010.356993","178776.66472","179543.533287","180310.058672","181076.845308","181843.675847","168027.407895","181086.553965","Mapping"
"Blocked","m150","ball","4","m150done.wav","None","722.602694295","141","176494.076087","168777.167126","169543.658811","170310.335381","171077.032357","171843.692851","172610.321191","173376.978283","177243.094848","178010.356993","178776.66472","179543.533287","180310.058672","181076.845308","181843.675847","182610.55307","181852.643106","Mapping"
"Blocked","m150","ball","4","m150cling.wav","None","719.930201303","141","176494.076087","183359.737549","169543.658811","170310.335381","171077.032357","171843.692851","172610.321191","173376.978283","177243.094848","178010.356993","178776.66472","179543.533287","180310.058672","181076.845308","181843.675847","182610.55307","182620.136512","Mapping"
"Blocked","m150","ball","4","m150jaw.wav","None","736.348843668","141","176494.076087","183359.737549","184126.443182","170310.335381","171077.032357","171843.692851","172610.321191","173376.978283","177243.094848","178010.356993","178776.66472","179543.533287","180310.058672","181076.845308","181843.675847","182610.55307","183368.550531","Mapping"
"Blocked","m150","ball","4","m150ball.wav","None","734.224205371","141","176494.076087","183359.737549","184126.443182","184893.470664","171077.032357","171843.692851","172610.321191","173376.978283","177243.094848","178010.356993","178776.66472","179543.533287","180310.058672","181076.845308","181843.675847","182610.55307","184135.222773","Mapping"
"Blocked","m150","ball","4","m150jaw.wav","space","424.136471469","141","176494.076087","183359.737549","184126.443182","184893.470664","185660.005633","171843.692851","172610.321191","173376.978283","177243.094848","178010.356993","178776.66472","179543.533287","180310.058672","181076.845308","181843.675847","182610.55307","184902.658055","Mapping"
"Blocked","m150","ball","4","m150ball.wav","None","729.422127828","141","176494.076087","183359.737549","184126.443182","184893.470664","185660.005633","186426.853485","172610.321191","173376.978283","177243.094848","178010.356993","178776.66472","179543.533287","180310.058672","181076.845308","181843.675847","182610.55307","185669.055751","Mapping"
"Blocked","m150","ball","4","m150tile.wav","space","554.322813172","141","176494.076087","183359.737549","184126.443182","184893.470664","185660.005633","186426.853485","187193.870455","173376.978283","177243.094848","178010.356993","178776.66472","179543.533287","180310.058672","181076.845308","181843.675847","182610.55307","186436.461043","Mapping"
"Blocked","m150","ball","4","m150cad.wav","None","723.4625048","141","176494.076087","183359.737549","184126.443182","184893.470664","185660.005633","186426.853485","187193.870455","187960.57547","177243.094848","178010.356993","178776.66472","179543.533287","180310.058672","181076.845308","181843.675847","182610.55307","187203.777601","Mapping"
"Blocked","m150","done","24","m150bluff.wav","None","721.471120138","141","191077.318034","183359.737549","184126.443182","184893.470664","185660.005633","186426.853485","187193.870455","187960.57547","177243.094848","178010.356993","178776.66472","179543.533287","180310.058672","181076.845308","181843.675847","182610.55307","187970.319991","Mapping"
"Blocked","m150","done","24","m150depth.wav","None","721.090528183","141","191077.318034","183359.737549","184126.443182","184893.470664","185660.005633","186426.853485","187193.870455","187960.57547","191843.71542","178010.356993","178776.66472","179543.533287","180310.058672","181076.845308","181843.675847","182610.55307","191086.790482","Mapping"
"Blocked","m150","done","24","m150cave.wav","None","719.193750527","141","191077.318034","183359.737549","184126.443182","184893.470664","185660.005633","186426.853485","187193.870455","187960.57547","191843.71542","192593.128069","178776.66472","179543.533287","180310.058672","181076.845308","181843.675847","182610.55307","191853.244139","Mapping"
"Blocked","m150","done","24","m150done.wav","None","734.990954865","141","191077.318034","183359.737549","184126.443182","184893.470664","185660.005633","186426.853485","187193.870455","187960.57547","191843.71542","192593.128069","193359.968192","179543.533287","180310.058672","181076.845308","181843.675847","182610.55307","192602.019581","Mapping"
"Blocked","m150","done","24","m150reek.wav","space","413.619017694","141","191077.318034","183359.737549","184126.443182","184893.470664","185660.005633","186426.853485","187193.870455","187960.57547","191843.71542","192593.128069","193359.968192","194126.384748","180310.058672","181076.845308","181843.675847","182610.55307","193369.073961","Mapping"
"Blocked","m150","done","24","m150reek.wav","None","730.251329951","141","191077.318034","183359.737549","184126.443182","184893.470664","185660.005633","186426.853485","187193.870455","187960.57547","191843.71542","192593.128069","193359.968192","194126.384748","194893.267228","181076.845308","181843.675847","182610.55307","194135.515869","Mapping"
"Blocked","m150","done","24","m150cling.wav","None","728.182342835","141","191077.318034","183359.737549","184126.443182","184893.470664","185660.005633","186426.853485","187193.870455","187960.57547","191843.71542","192593.128069","193359.968192","194126.384748","194893.267228","195659.639881","181843.675847","182610.55307","194902.384436","Mapping"
"Blocked","m150","done","24","m150done.wav","None","727.234108839","141","191077.318034","183359.737549","184126.443182","184893.470664","185660.005633","186426.853485","187193.870455","187960.57547","191843.71542","192593.128069","193359.968192","194126.384748","194893.267228","195659.639881","196427.294985","182610.55307","195668.250664","Mapping"
"Blocked","m150","done","24","m150gnash.wav","space","425.960593391","141","191077.318034","183359.737549","184126.443182","184893.470664","185660.005633","186426.853485","187193.870455","187960.57547","191843.71542","192593.128069","193359.968192","194126.384748","194893.267228","195659.639881","196427.294985","197193.619407","196436.685193","Mapping"
"Blocked","m150","done","24","m150priest.wav","None","720.64995626","141","191077.318034","197959.750905","184126.443182","184893.470664","185660.005633","186426.853485","187193.870455","187960.57547","191843.71542","192593.128069","193359.968192","194126.384748","194893.267228","195659.639881","196427.294985","197193.619407","197203.646203","Mapping"
"Blocked","m150","done","24","m150done.wav","None","720.12312524","141","191077.318034","197959.750905","198709.869396","184893.470664","185660.005633","186426.853485","187193.870455","187960.57547","191843.71542","192593.128069","193359.968192","194126.384748","194893.267228","195659.639881","196427.294985","197193.619407","197968.872751","Mapping"
"Blocked","m150","done","24","m150cad.wav","None","734.745780937","141","191077.318034","197959.750905","198709.869396","199476.496499","185660.005633","186426.853485","187193.870455","187960.57547","191843.71542","192593.128069","193359.968192","194126.384748","194893.267228","195659.639881","196427.294985","197193.619407","198718.951358","Mapping"
"Blocked","m150","done","24","m150park.wav","space","73.2041751035","141","191077.318034","197959.750905","198709.869396","199476.496499","200243.158847","186426.853485","187193.870455","187960.57547","191843.71542","192593.128069","193359.968192","194126.384748","194893.267228","195659.639881","196427.294985","197193.619407","199485.382446","Mapping"
"Blocked","m150","done","24","m150done.wav","None","729.469121899","141","191077.318034","197959.750905","198709.869396","199476.496499","200243.158847","201009.906837","187193.870455","187960.57547","191843.71542","192593.128069","193359.968192","194126.384748","194893.267228","195659.639881","196427.294985","197193.619407","200252.933358","Mapping"
"Blocked","m150","done","24","m150depth.wav","space","403.592839837","141","191077.318034","197959.750905","198709.869396","199476.496499","200243.158847","201009.906837","201776.562074","187960.57547","191843.71542","192593.128069","193359.968192","194126.384748","194893.267228","195659.639881","196427.294985","197193.619407","201018.934076","Mapping"
"Blocked","m150","done","24","m150gnash.wav","None","725.518197753","141","191077.318034","197959.750905","198709.869396","199476.496499","200243.158847","201009.906837","201776.562074","202543.624493","191843.71542","192593.128069","193359.968192","194126.384748","194893.267228","195659.639881","196427.294985","197193.619407","201785.595187","Mapping"
"Blocked","m150","cave","7","m150knife.wav","None","721.880774945","141","205660.027275","197959.750905","198709.869396","199476.496499","200243.158847","201009.906837","201776.562074","202543.624493","191843.71542","192593.128069","193359.968192","194126.384748","194893.267228","195659.639881","196427.294985","197193.619407","202553.896772","Mapping"
"Blocked","m150","cave","7","m150dime.wav","None","720.970259514","141","205660.027275","197959.750905","198709.869396","199476.496499","200243.158847","201009.906837","201776.562074","202543.624493","206410.032608","192593.128069","193359.968192","194126.384748","194893.267228","195659.639881","196427.294985","197193.619407","205669.548882","Mapping"
"Blocked","m150","cave","7","m150cave.wav","None","735.831906088","141","205660.027275","197959.750905","198709.869396","199476.496499","200243.158847","201009.906837","201776.562074","202543.624493","206410.032608","207176.368161","193359.968192","194126.384748","194893.267228","195659.639881","196427.294985","197193.619407","206419.253699","Mapping"
"Blocked","m150","cave","7","m150greet.wav","space","469.018526841","141","205660.027275","197959.750905","198709.869396","199476.496499","200243.158847","201009.906837","201776.562074","202543.624493","206410.032608","207176.368161","207943.007939","194126.384748","194893.267228","195659.639881","196427.294985","197193.619407","207185.414878","Mapping"
"Blocked","m150","cave","7","m150knife.wav","None","731.097846292","141","205660.027275","197959.750905","198709.869396","199476.496499","200243.158847","201009.906837","201776.562074","202543.624493","206410.032608","207176.368161","207943.007939","208709.666578","194893.267228","195659.639881","196427.294985","197193.619407","207952.758953","Mapping"
"Blocked","m150","cave","7","m150cave.wav","None","729.698218871","141","205660.027275","197959.750905","198709.869396","199476.496499","200243.158847","201009.906837","201776.562074","202543.624493","206410.032608","207176.368161","207943.007939","208709.666578","209476.327071","195659.639881","196427.294985","197193.619407","208718.735246","Mapping"
"Blocked","m150","cave","7","m150knife.wav","space","409.17125158","141","205660.027275","197959.750905","198709.869396","199476.496499","200243.158847","201009.906837","201776.562074","202543.624493","206410.032608","207176.368161","207943.007939","208709.666578","209476.327071","210242.744246","196427.294985","197193.619407","209485.24981","Mapping"
"Blocked","m150","cave","7","m150jaw.wav","None","725.952276494","141","205660.027275","197959.750905","198709.869396","199476.496499","200243.158847","201009.906837","201776.562074","202543.624493","206410.032608","207176.368161","207943.007939","208709.666578","209476.327071","210242.744246","211009.728444","197193.619407","210251.587527","Mapping"
"Blocked","m150","cave","7","m150cave.wav","None","723.227842245","141","205660.027275","197959.750905","198709.869396","199476.496499","200243.158847","201009.906837","201776.562074","202543.624493","206410.032608","207176.368161","207943.007939","208709.666578","209476.327071","210242.744246","211009.728444","211776.721917","211019.072276","Mapping"
"Blocked","m150","cave","7","m150dime.wav","space","468.054833822","141","205660.027275","212526.227626","198709.869396","199476.496499","200243.158847","201009.906837","201776.562074","202543.624493","206410.032608","207176.368161","207943.007939","208709.666578","209476.327071","210242.744246","211009.728444","211776.721917","211786.273204","Mapping"
"Blocked","m150","cave","7","m150cave.wav","None","735.650112387","141","205660.027275","212526.227626","213292.900177","199476.496499","200243.158847","201009.906837","201776.562074","202543.624493","206410.032608","207176.368161","207943.007939","208709.666578","209476.327071","210242.744246","211009.728444","211776.721917","212535.332777","Mapping"
"Blocked","m150","cave","7","m150reek.wav","space","512.003494892","141","205660.027275","212526.227626","213292.900177","214059.636418","200243.158847","201009.906837","201776.562074","202543.624493","206410.032608","207176.368161","207943.007939","208709.666578","209476.327071","210242.744246","211009.728444","211776.721917","213302.309864","Mapping"
"Blocked","m150","cave","7","m150park.wav","None","730.53546017","141","205660.027275","212526.227626","213292.900177","214059.636418","214825.910755","201009.906837","201776.562074","202543.624493","206410.032608","207176.368161","207943.007939","208709.666578","209476.327071","210242.744246","211009.728444","211776.721917","214069.149368","Mapping"
"Blocked","m150","cave","7","m150romp.wav","None","729.825288989","141","205660.027275","212526.227626","213292.900177","214059.636418","214825.910755","215592.866817","201776.562074","202543.624493","206410.032608","207176.368161","207943.007939","208709.666578","209476.327071","210242.744246","211009.728444","211776.721917","214834.696529","Mapping"
"Blocked","m150","cave","7","m150depth.wav","None","727.268117946","141","205660.027275","212526.227626","213292.900177","214059.636418","214825.910755","215592.866817","216359.274098","202543.624493","206410.032608","207176.368161","207943.007939","208709.666578","209476.327071","210242.744246","211009.728444","211776.721917","215601.938577","Mapping"
"Blocked","m150","cave","7","m150park.wav","None","725.940218661","141","205660.027275","212526.227626","213292.900177","214059.636418","214825.910755","215592.866817","216359.274098","217126.575508","206410.032608","207176.368161","207943.007939","208709.666578","209476.327071","210242.744246","211009.728444","211776.721917","216367.932803","Mapping"
"Blocked","m150","cave","12","m150cad.wav","None","722.521999851","141","220243.218517","212526.227626","213292.900177","214059.636418","214825.910755","215592.866817","216359.274098","217126.575508","206410.032608","207176.368161","207943.007939","208709.666578","209476.327071","210242.744246","211009.728444","211776.721917","217136.168534","Mapping"
"Blocked","m150","cave","12","m150cad.wav","None","720.460742246","141","220243.218517","212526.227626","213292.900177","214059.636418","214825.910755","215592.866817","216359.274098","217126.575508","220992.22955","207176.368161","207943.007939","208709.666578","209476.327071","210242.744246","211009.728444","211776.721917","220252.665305","Mapping"
"Blocked","m150","cave","12","m150cave.wav","None","736.857124604","141","220243.218517","212526.227626","213292.900177","214059.636418","214825.910755","215592.866817","216359.274098","217126.575508","220992.22955","221759.39214","207943.007939","208709.666578","209476.327071","210242.744246","211009.728444","211776.721917","221001.038203","Mapping"
"Blocked","m150","cave","12","m150knife.wav","space","597.118258476","141","220243.218517","212526.227626","213292.900177","214059.636418","214825.910755","215592.866817","216359.274098","217126.575508","220992.22955","221759.39214","222526.059745","208709.666578","209476.327071","210242.744246","211009.728444","211776.721917","221769.047001","Mapping"
"Blocked","m150","cave","12","m150jaw.wav","None","731.436081696","141","220243.218517","212526.227626","213292.900177","214059.636418","214825.910755","215592.866817","216359.274098","217126.575508","220992.22955","221759.39214","222526.059745","223292.867405","209476.327071","210242.744246","211009.728444","211776.721917","222535.10368","Mapping"
"Blocked","m150","cave","12","m150depth.wav","None","729.127794504","141","220243.218517","212526.227626","213292.900177","214059.636418","214825.910755","215592.866817","216359.274098","217126.575508","220992.22955","221759.39214","222526.059745","223292.867405","224059.031985","210242.744246","211009.728444","211776.721917","223302.026043","Mapping"
"Blocked","m150","cave","12","m150priest.wav","None","728.416077793","141","220243.218517","212526.227626","213292.900177","214059.636418","214825.910755","215592.866817","216359.274098","217126.575508","220992.22955","221759.39214","222526.059745","223292.867405","224059.031985","224826.067196","211009.728444","211776.721917","224067.786533","Mapping"
"Blocked","m150","cave","12","m150cave.wav","None","725.395146757","141","220243.218517","212526.227626","213292.900177","214059.636418","214825.910755","215592.866817","216359.274098","217126.575508","220992.22955","221759.39214","222526.059745","223292.867405","224059.031985","224826.067196","225592.914121","211776.721917","224835.676917","Mapping"
"Blocked","m150","cave","12","m150ball.wav","space","531.859834213","141","220243.218517","212526.227626","213292.900177","214059.636418","214825.910755","215592.866817","216359.274098","217126.575508","220992.22955","221759.39214","222526.059745","223292.867405","224059.031985","224826.067196","225592.914121","226359.747133","225602.237548","Mapping"
"Blocked","m150","cave","12","m150gnash.wav","None","719.941949472","141","220243.218517","227109.007668","213292.900177","214059.636418","214825.910755","215592.866817","216359.274098","217126.575508","220992.22955","221759.39214","222526.059745","223292.867405","224059.031985","224826.067196","225592.914121","226359.747133","226369.754761","Mapping"
"Blocked","m150","cave","12","m150depth.wav","None","736.665437464","141","220243.218517","227109.007668","227875.603545","214059.636418","214825.910755","215592.866817","216359.274098","217126.575508","220992.22955","221759.39214","222526.059745","223292.867405","224059.031985","224826.067196","225592.914121","226359.747133","227117.884958","Mapping"
"Blocked","m150","cave","12","m150cave.wav","None","728.269220795","141","220243.218517","227109.007668","227875.603545","228642.616805","214825.910755","215592.866817","216359.274098","217126.575508","220992.22955","221759.39214","222526.059745","223292.867405","224059.031985","224826.067196","225592.914121","226359.747133","227891.057876","Mapping"
"Blocked","m150","cave","12","m150cad.wav","space","570.100540295","141","220243.218517","227109.007668","227875.603545","228642.616805","229409.346244","215592.866817","216359.274098","217126.575508","220992.22955","221759.39214","222526.059745","223292.867405","224059.031985","224826.067196","225592.914121","226359.747133","228651.955381","Mapping"
"Blocked","m150","cave","12","m150bluff.wav","None","729.860534891","141","220243.218517","227109.007668","227875.603545","228642.616805","229409.346244","230175.97582","216359.274098","217126.575508","220992.22955","221759.39214","222526.059745","223292.867405","224059.031985","224826.067196","225592.914121","226359.747133","229418.413675","Mapping"
"Blocked","m150","cave","12","m150cave.wav","None","727.603571024","141","220243.218517","227109.007668","227875.603545","228642.616805","229409.346244","230175.97582","230942.30488","217126.575508","220992.22955","221759.39214","222526.059745","223292.867405","224059.031985","224826.067196","225592.914121","226359.747133","230185.524325","Mapping"
"Blocked","m150","cave","12","m150ball.wav","space","598.975461908","141","220243.218517","227109.007668","227875.603545","228642.616805","229409.346244","230175.97582","230942.30488","231709.767987","220992.22955","221759.39214","222526.059745","223292.867405","224059.031985","224826.067196","225592.914121","226359.747133","230951.005632","Mapping"
"Blocked","m150","cave","8","m150greet.wav","None","722.963499371","141","234826.365548","227109.007668","227875.603545","228642.616805","229409.346244","230175.97582","230942.30488","231709.767987","220992.22955","221759.39214","222526.059745","223292.867405","224059.031985","224826.067196","225592.914121","226359.747133","231719.263005","Mapping"
"Blocked","m150","cave","8","m150jolt.wav","None","721.133193932","141","234826.365548","227109.007668","227875.603545","228642.616805","229409.346244","230175.97582","230942.30488","231709.767987","235592.925561","221759.39214","222526.059745","223292.867405","224059.031985","224826.067196","225592.914121","226359.747133","234835.888083","Mapping"
"Blocked","m150","cave","8","m150cave.wav","None","719.104399439","141","234826.365548","227109.007668","227875.603545","228642.616805","229409.346244","230175.97582","230942.30488","231709.767987","235592.925561","236342.131681","222526.059745","223292.867405","224059.031985","224826.067196","225592.914121","226359.747133","235602.79004","Mapping"
"Blocked","m150","cave","8","m150cling.wav","space","534.940127283","141","234826.365548","227109.007668","227875.603545","228642.616805","229409.346244","230175.97582","230942.30488","231709.767987","235592.925561","236342.131681","237109.116497","223292.867405","224059.031985","224826.067196","225592.914121","226359.747133","236350.95703","Mapping"
"Blocked","m150","cave","8","m150tile.wav","None","732.662881259","141","234826.365548","227109.007668","227875.603545","228642.616805","229409.346244","230175.97582","230942.30488","231709.767987","235592.925561","236342.131681","237109.116497","237875.8784","224059.031985","224826.067196","225592.914121","226359.747133","237118.190112","Mapping"
"Blocked","m150","cave","8","m150cave.wav","None","730.563285761","141","234826.365548","227109.007668","227875.603545","228642.616805","229409.346244","230175.97582","230942.30488","231709.767987","235592.925561","236342.131681","237109.116497","237875.8784","238642.464382","224826.067196","225592.914121","226359.747133","237885.037346","Mapping"
"Blocked","m150","cave","8","m150bluff.wav","space","546.022749506","141","234826.365548","227109.007668","227875.603545","228642.616805","229409.346244","230175.97582","230942.30488","231709.767987","235592.925561","236342.131681","237109.116497","237875.8784","238642.464382","239409.185474","225592.914121","226359.747133","238651.823055","Mapping"
"Blocked","m150","cave","8","m150cave.wav","None","726.514662616","141","234826.365548","227109.007668","227875.603545","228642.616805","229409.346244","230175.97582","230942.30488","231709.767987","235592.925561","236342.131681","237109.116497","237875.8784","238642.464382","239409.185474","240175.759708","226359.747133","239418.225389","Mapping"
"Blocked","m150","cave","8","m150gnash.wav","space","693.108189385","141","234826.365548","227109.007668","227875.603545","228642.616805","229409.346244","230175.97582","230942.30488","231709.767987","235592.925561","236342.131681","237109.116497","237875.8784","238642.464382","239409.185474","240175.759708","240942.907458","240184.721712","Mapping"
"Blocked","m150","cave","8","m150cave.wav","None","720.816291403","141","234826.365548","241709.576299","227875.603545","228642.616805","229409.346244","230175.97582","230942.30488","231709.767987","235592.925561","236342.131681","237109.116497","237875.8784","238642.464382","239409.185474","240175.759708","240942.907458","240953.191487","Mapping"
"Blocked","m150","cave","8","m150dime.wav","space","494.92074782","141","234826.365548","241709.576299","242458.809936","228642.616805","229409.346244","230175.97582","230942.30488","231709.767987","235592.925561","236342.131681","237109.116497","237875.8784","238642.464382","239409.185474","240175.759708","240942.907458","241718.881486","Mapping"
"Blocked","m150","cave","8","m150lash.wav","None","735.143377446","141","234826.365548","241709.576299","242458.809936","243225.795371","229409.346244","230175.97582","230942.30488","231709.767987","235592.925561","236342.131681","237109.116497","237875.8784","238642.464382","239409.185474","240175.759708","240942.907458","242467.820171","Mapping"
"Blocked","m150","cave","8","m150depth.wav","None","733.0119377","141","234826.365548","241709.576299","242458.809936","243225.795371","243992.353219","230175.97582","230942.30488","231709.767987","235592.925561","236342.131681","237109.116497","237875.8784","238642.464382","239409.185474","240175.759708","240942.907458","243234.868986","Mapping"
"Blocked","m150","cave","8","m150park.wav","None","730.7308577","141","234826.365548","241709.576299","242458.809936","243225.795371","243992.353219","244758.706085","230942.30488","231709.767987","235592.925561","236342.131681","237109.116497","237875.8784","238642.464382","239409.185474","240175.759708","240942.907458","244002.064658","Mapping"
"Blocked","m150","cave","8","m150tile.wav","None","730.306362733","141","234826.365548","241709.576299","242458.809936","243225.795371","243992.353219","244758.706085","245525.355448","231709.767987","235592.925561","236342.131681","237109.116497","237875.8784","238642.464382","239409.185474","240175.759708","240942.907458","244767.47331","Mapping"
"Blocked","m150","cave","8","m150greet.wav","None","728.433700744","141","234826.365548","241709.576299","242458.809936","243225.795371","243992.353219","244758.706085","245525.355448","246292.319859","235592.925561","236342.131681","237109.116497","237875.8784","238642.464382","239409.185474","240175.759708","240942.907458","245534.298284","Mapping"
"Blocked","m150","done","22","m150reek.wav","None","725.961552002","141","249425.970178","241709.576299","242458.809936","243225.795371","243992.353219","244758.706085","245525.355448","246292.319859","235592.925561","236342.131681","237109.116497","237875.8784","238642.464382","239409.185474","240175.759708","240942.907458","246301.701101","Mapping"
"Blocked","m150","done","22","m150romp.wav","None","721.165657043","141","249425.970178","241709.576299","242458.809936","243225.795371","243992.353219","244758.706085","245525.355448","246292.319859","250192.686013","236342.131681","237109.116497","237875.8784","238642.464382","239409.185474","240175.759708","240942.907458","249435.527958","Mapping"
"Blocked","m150","done","22","m150dime.wav","None","719.615153503","141","249425.970178","241709.576299","242458.809936","243225.795371","243992.353219","244758.706085","245525.355448","246292.319859","250192.686013","250942.206254","237109.116497","237875.8784","238642.464382","239409.185474","240175.759708","240942.907458","250202.152278","Mapping"
"Blocked","m150","done","22","m150done.wav","space","453.954990022","141","249425.970178","241709.576299","242458.809936","243225.795371","243992.353219","244758.706085","245525.355448","246292.319859","250192.686013","250942.206254","251708.897973","237875.8784","238642.464382","239409.185474","240175.759708","240942.907458","250951.695707","Mapping"
"Blocked","m150","done","22","m150cling.wav","None","732.323408592","141","249425.970178","241709.576299","242458.809936","243225.795371","243992.353219","244758.706085","245525.355448","246292.319859","250192.686013","250942.206254","251708.897973","252475.808588","238642.464382","239409.185474","240175.759708","240942.907458","251718.60663","Mapping"
"Blocked","m150","done","22","m150greet.wav","None","734.225442167","141","249425.970178","241709.576299","242458.809936","243225.795371","243992.353219","244758.706085","245525.355448","246292.319859","250192.686013","250942.206254","251708.897973","252475.808588","253242.203811","239409.185474","240175.759708","240942.907458","252484.635174","Mapping"
"Blocked","m150","done","22","m150knife.wav","None","732.567346655","141","249425.970178","241709.576299","242458.809936","243225.795371","243992.353219","244758.706085","245525.355448","246292.319859","250192.686013","250942.206254","251708.897973","252475.808588","253242.203811","254008.842353","240175.759708","240942.907458","253251.329367","Mapping"
"Blocked","m150","done","22","m150cave.wav","None","730.967065785","141","249425.970178","241709.576299","242458.809936","243225.795371","243992.353219","244758.706085","245525.355448","246292.319859","250192.686013","250942.206254","251708.897973","252475.808588","253242.203811","254008.842353","254775.27344","240942.907458","254017.939466","Mapping"
"Blocked","m150","done","22","m150done.wav","None","729.652770329","141","249425.970178","241709.576299","242458.809936","243225.795371","243992.353219","244758.706085","245525.355448","246292.319859","250192.686013","250942.206254","251708.897973","252475.808588","253242.203811","254008.842353","254775.27344","255542.095013","254784.264197","Mapping"
"Blocked","m150","done","22","m150jolt.wav","space","534.084953833","141","249425.970178","256308.960179","242458.809936","243225.795371","243992.353219","244758.706085","245525.355448","246292.319859","250192.686013","250942.206254","251708.897973","252475.808588","253242.203811","254008.842353","254775.27344","255542.095013","255551.442246","Mapping"
"Blocked","m150","done","22","m150done.wav","None","724.852547515","141","249425.970178","256308.960179","257075.565949","243225.795371","243992.353219","244758.706085","245525.355448","246292.319859","250192.686013","250942.206254","251708.897973","252475.808588","253242.203811","254008.842353","254775.27344","255542.095013","256318.175086","Mapping"
"Blocked","m150","done","22","m150bluff.wav","space","481.15079198","141","249425.970178","256308.960179","257075.565949","257842.637334","243992.353219","244758.706085","245525.355448","246292.319859","250192.686013","250942.206254","251708.897973","252475.808588","253242.203811","254008.842353","254775.27344","255542.095013","257084.376767","Mapping"
"Blocked","m150","done","22","m150jaw.wav","None","719.715016894","141","249425.970178","256308.960179","257075.565949","257842.637334","258591.713602","244758.706085","245525.355448","246292.319859","250192.686013","250942.206254","251708.897973","252475.808588","253242.203811","254008.842353","254775.27344","255542.095013","257852.506142","Mapping"
"Blocked","m150","done","22","m150done.wav","None","736.928544007","141","249425.970178","256308.960179","257075.565949","257842.637334","258591.713602","259358.643694","245525.355448","246292.319859","250192.686013","250942.206254","251708.897973","252475.808588","253242.203811","254008.842353","254775.27344","255542.095013","258600.476188","Mapping"
"Blocked","m150","done","22","m150cling.wav","space","589.691609144","141","249425.970178","256308.960179","257075.565949","257842.637334","258591.713602","259358.643694","260125.421055","246292.319859","250192.686013","250942.206254","251708.897973","252475.808588","253242.203811","254008.842353","254775.27344","255542.095013","259367.797694","Mapping"
"Blocked","m150","done","22","m150romp.wav","None","731.458651368","141","249425.970178","256308.960179","257075.565949","257842.637334","258591.713602","259358.643694","260125.421055","260892.101645","250192.686013","250942.206254","251708.897973","252475.808588","253242.203811","254008.842353","254775.27344","255542.095013","260135.097867","Mapping"
"Blocked","m150","tile","15","m150done.wav","None","730.38272839","141","264026.030219","256308.960179","257075.565949","257842.637334","258591.713602","259358.643694","260125.421055","260892.101645","250192.686013","250942.206254","251708.897973","252475.808588","253242.203811","254008.842353","254775.27344","255542.095013","260901.380551","Mapping"
"Blocked","m150","tile","15","m150cling.wav","None","720.541745424","141","264026.030219","256308.960179","257075.565949","257842.637334","258591.713602","259358.643694","260125.421055","260892.101645","264792.513866","250942.206254","251708.897973","252475.808588","253242.203811","254008.842353","254775.27344","255542.095013","264035.969519","Mapping"
"Blocked","m150","tile","15","m150tile.wav","None","719.25342083","141","264026.030219","256308.960179","257075.565949","257842.637334","258591.713602","259358.643694","260125.421055","260892.101645","264792.513866","265541.736063","251708.897973","252475.808588","253242.203811","254008.842353","254775.27344","255542.095013","264802.397205","Mapping"
"Blocked","m150","tile","15","m150reek.wav","space","398.116145749","141","264026.030219","256308.960179","257075.565949","257842.637334","258591.713602","259358.643694","260125.421055","260892.101645","264792.513866","265541.736063","266308.768801","252475.808588","253242.203811","254008.842353","254775.27344","255542.095013","265551.254269","Mapping"
"Blocked","m150","tile","15","m150tile.wav","None","733.140244614","141","264026.030219","256308.960179","257075.565949","257842.637334","258591.713602","259358.643694","260125.421055","260892.101645","264792.513866","265541.736063","266308.768801","267074.974501","253242.203811","254008.842353","254775.27344","255542.095013","266318.051726","Mapping"
"Blocked","m150","tile","15","m150priest.wav","space","617.439903785","141","264026.030219","256308.960179","257075.565949","257842.637334","258591.713602","259358.643694","260125.421055","260892.101645","264792.513866","265541.736063","266308.768801","267074.974501","267842.232317","254008.842353","254775.27344","255542.095013","267083.904659","Mapping"
"Blocked","m150","tile","15","m150bluff.wav","None","729.7479962","141","264026.030219","256308.960179","257075.565949","257842.637334","258591.713602","259358.643694","260125.421055","260892.101645","264792.513866","265541.736063","266308.768801","267074.974501","267842.232317","268608.499851","254775.27344","255542.095013","267851.285527","Mapping"
"Blocked","m150","tile","15","m150bluff.wav","None","728.609311394","141","264026.030219","256308.960179","257075.565949","257842.637334","258591.713602","259358.643694","260125.421055","260892.101645","264792.513866","265541.736063","266308.768801","267074.974501","267842.232317","268608.499851","269374.929083","255542.095013","268617.651069","Mapping"
"Blocked","m150","tile","15","m150tile.wav","None","727.696632035","141","264026.030219","256308.960179","257075.565949","257842.637334","258591.713602","259358.643694","260125.421055","260892.101645","264792.513866","265541.736063","266308.768801","267074.974501","267842.232317","268608.499851","269374.929083","270141.597615","269383.803281","Mapping"
"Blocked","m150","tile","15","m150ball.wav","space","423.0086077","141","264026.030219","270908.374358","257075.565949","257842.637334","258591.713602","259358.643694","260125.421055","260892.101645","264792.513866","265541.736063","266308.768801","267074.974501","267842.232317","268608.499851","269374.929083","270141.597615","270150.319391","Mapping"
"Blocked","m150","tile","15","m150jaw.wav","None","723.537015729","141","264026.030219","270908.374358","271675.661545","257842.637334","258591.713602","259358.643694","260125.421055","260892.101645","264792.513866","265541.736063","266308.768801","267074.974501","267842.232317","268608.499851","269374.929083","270141.597615","270917.362332","Mapping"
"Blocked","m150","tile","15","m150jolt.wav","None","720.813509077","141","264026.030219","270908.374358","271675.661545","272442.257422","258591.713602","259358.643694","260125.421055","260892.101645","264792.513866","265541.736063","266308.768801","267074.974501","267842.232317","268608.499851","269374.929083","270141.597615","271685.140796","Mapping"
"Blocked","m150","tile","15","m150romp.wav","None","719.738513697","141","264026.030219","270908.374358","271675.661545","272442.257422","273191.841661","259358.643694","260125.421055","260892.101645","264792.513866","265541.736063","266308.768801","267074.974501","267842.232317","268608.499851","269374.929083","270141.597615","272451.885385","Mapping"
"Blocked","m150","tile","15","m150romp.wav","None","736.122529022","141","264026.030219","270908.374358","271675.661545","272442.257422","273191.841661","273958.232246","260125.421055","260892.101645","264792.513866","265541.736063","266308.768801","267074.974501","267842.232317","268608.499851","269374.929083","270141.597615","273200.949285","Mapping"
"Blocked","m150","tile","15","m150tile.wav","None","734.471544158","141","264026.030219","270908.374358","271675.661545","272442.257422","273191.841661","273958.232246","274724.796278","260892.101645","264792.513866","265541.736063","266308.768801","267074.974501","267842.232317","268608.499851","269374.929083","270141.597615","273967.760655","Mapping"
"Blocked","m150","tile","15","m150jaw.wav","space","351.518797688","141","264026.030219","270908.374358","271675.661545","272442.257422","273191.841661","273958.232246","274724.796278","275491.50222","264792.513866","265541.736063","266308.768801","267074.974501","267842.232317","268608.499851","269374.929083","270141.597615","274733.663365","Mapping"
"Blocked","m150","tile","18","m150park.wav","None","731.405782979","141","278625.473769","270908.374358","271675.661545","272442.257422","273191.841661","273958.232246","274724.796278","275491.50222","264792.513866","265541.736063","266308.768801","267074.974501","267842.232317","268608.499851","269374.929083","270141.597615","275500.223996","Mapping"
"Blocked","m150","tile","18","m150tile.wav","None","721.412068233","141","278625.473769","270908.374358","271675.661545","272442.257422","273191.841661","273958.232246","274724.796278","275491.50222","279391.550235","265541.736063","266308.768801","267074.974501","267842.232317","268608.499851","269374.929083","270141.597615","278635.028149","Mapping"
"Blocked","m150","tile","18","m150done.wav","space","660.508967005","141","278625.473769","270908.374358","271675.661545","272442.257422","273191.841661","273958.232246","274724.796278","275491.50222","279391.550235","280141.916064","266308.768801","267074.974501","267842.232317","268608.499851","269374.929083","270141.597615","279400.626323","Mapping"
"Blocked","m150","tile","18","m150gnash.wav","None","735.430289991","141","278625.473769","270908.374358","271675.661545","272442.257422","273191.841661","273958.232246","274724.796278","275491.50222","279391.550235","280141.916064","280908.315615","267074.974501","267842.232317","268608.499851","269374.929083","270141.597615","280150.924443","Mapping"
"Blocked","m150","tile","18","m150romp.wav","None","734.154641628","141","278625.473769","270908.374358","271675.661545","272442.257422","273191.841661","273958.232246","274724.796278","275491.50222","279391.550235","280141.916064","280908.315615","281675.007335","267842.232317","268608.499851","269374.929083","270141.597615","280917.388302","Mapping"
"Blocked","m150","tile","18","m150tile.wav","None","733.335641678","141","278625.473769","270908.374358","271675.661545","272442.257422","273191.841661","273958.232246","274724.796278","275491.50222","279391.550235","280141.916064","280908.315615","281675.007335","282441.706475","268608.499851","269374.929083","270141.597615","281683.989126","Mapping"
"Blocked","m150","tile","18","m150gnash.wav","space","601.630331948","141","278625.473769","270908.374358","271675.661545","272442.257422","273191.841661","273958.232246","274724.796278","275491.50222","279391.550235","280141.916064","280908.315615","281675.007335","282441.706475","283208.301115","269374.929083","270141.597615","282451.452233","Mapping"
"Blocked","m150","tile","18","m150park.wav","None","730.123023037","141","278625.473769","270908.374358","271675.661545","272442.257422","273191.841661","273958.232246","274724.796278","275491.50222","279391.550235","280141.916064","280908.315615","281675.007335","282441.706475","283208.301115","283974.72169","270141.597615","283216.974969","Mapping"
"Blocked","m150","tile","18","m150romp.wav","None","728.68629545","141","278625.473769","270908.374358","271675.661545","272442.257422","273191.841661","273958.232246","274724.796278","275491.50222","279391.550235","280141.916064","280908.315615","281675.007335","282441.706475","283208.301115","283974.72169","284741.347556","283983.634844","Mapping"
"Blocked","m150","tile","18","m150dime.wav","space","54.8501084559","141","278625.473769","285507.987026","271675.661545","272442.257422","273191.841661","273958.232246","274724.796278","275491.50222","279391.550235","280141.916064","280908.315615","281675.007335","282441.706475","283208.301115","283974.72169","284741.347556","284750.195784","Mapping"
"Blocked","m150","tile","18","m150greet.wav","None","725.528090727","141","278625.473769","285507.987026","286275.383661","272442.257422","273191.841661","273958.232246","274724.796278","275491.50222","279391.550235","280141.916064","280908.315615","281675.007335","282441.706475","283208.301115","283974.72169","284741.347556","285516.734772","Mapping"
"Blocked","m150","tile","18","m150lash.wav","None","722.613824531","141","278625.473769","285507.987026","286275.383661","287042.099496","273191.841661","273958.232246","274724.796278","275491.50222","279391.550235","280141.916064","280908.315615","281675.007335","282441.706475","283208.301115","283974.72169","284741.347556","286284.9232","Mapping"
"Blocked","m150","tile","18","m150tile.wav","None","721.136595123","141","278625.473769","285507.987026","286275.383661","287042.099496","287808.616533","273958.232246","274724.796278","275491.50222","279391.550235","280141.916064","280908.315615","281675.007335","282441.706475","283208.301115","283974.72169","284741.347556","287051.730241","Mapping"
"Blocked","m150","tile","18","m150jaw.wav","space","530.536264181","141","278625.473769","285507.987026","286275.383661","287042.099496","287808.616533","288558.038148","274724.796278","275491.50222","279391.550235","280141.916064","280908.315615","281675.007335","282441.706475","283208.301115","283974.72169","284741.347556","287818.437729","Mapping"
"Blocked","m150","tile","18","m150tile.wav","None","735.109986737","141","278625.473769","285507.987026","286275.383661","287042.099496","287808.616533","288558.038148","289324.898058","275491.50222","279391.550235","280141.916064","280908.315615","281675.007335","282441.706475","283208.301115","283974.72169","284741.347556","288567.065387","Mapping"
"Blocked","m150","tile","18","m150knife.wav","space","655.040311627","141","278625.473769","285507.987026","286275.383661","287042.099496","287808.616533","288558.038148","289324.898058","290091.587304","279391.550235","280141.916064","280908.315615","281675.007335","282441.706475","283208.301115","283974.72169","284741.347556","289333.912312","Mapping"
"Blocked","m150","done","23","m150ball.wav","None","730.627284385","141","293225.008216","285507.987026","286275.383661","287042.099496","287808.616533","288558.038148","289324.898058","290091.587304","279391.550235","280141.916064","280908.315615","281675.007335","282441.706475","283208.301115","283974.72169","284741.347556","290100.914442","Mapping"
"Blocked","m150","done","23","m150tile.wav","None","722.193348687","141","293225.008216","285507.987026","286275.383661","287042.099496","287808.616533","288558.038148","289324.898058","290091.587304","293991.856687","280141.916064","280908.315615","281675.007335","282441.706475","283208.301115","283974.72169","284741.347556","293234.097599","Mapping"
"Blocked","m150","done","23","m150done.wav","None","719.681007788","141","293225.008216","285507.987026","286275.383661","287042.099496","287808.616533","288558.038148","289324.898058","290091.587304","293991.856687","294741.196679","280908.315615","281675.007335","282441.706475","283208.301115","283974.72169","284741.347556","294001.846691","Mapping"
"Blocked","m150","done","23","m150jolt.wav","space","382.810526527","141","293225.008216","285507.987026","286275.383661","287042.099496","287808.616533","288558.038148","289324.898058","290091.587304","293991.856687","294741.196679","295508.09771","281675.007335","282441.706475","283208.301115","283974.72169","284741.347556","294750.08108","Mapping"
"Blocked","m150","done","23","m150lash.wav","None","733.743132092","141","293225.008216","285507.987026","286275.383661","287042.099496","287808.616533","288558.038148","289324.898058","290091.587304","293991.856687","294741.196679","295508.09771","296274.728523","282441.706475","283208.301115","283974.72169","284741.347556","295517.217082","Mapping"
"Blocked","m150","done","23","m150lash.wav","None","732.56549146","141","293225.008216","285507.987026","286275.383661","287042.099496","287808.616533","288558.038148","289324.898058","290091.587304","293991.856687","294741.196679","295508.09771","296274.728523","297041.11076","283208.301115","283974.72169","284741.347556","296283.772457","Mapping"
"Blocked","m150","done","23","m150done.wav","None","731.957656797","141","293225.008216","285507.987026","286275.383661","287042.099496","287808.616533","288558.038148","289324.898058","290091.587304","293991.856687","294741.196679","295508.09771","296274.728523","297041.11076","297807.721168","283974.72169","284741.347556","297049.845212","Mapping"
"Blocked","m150","done","23","m150jolt.wav","space","636.420355644","141","293225.008216","285507.987026","286275.383661","287042.099496","287808.616533","288558.038148","289324.898058","290091.587304","293991.856687","294741.196679","295508.09771","296274.728523","297041.11076","297807.721168","298574.963834","284741.347556","297816.370597","Mapping"
"Blocked","m150","done","23","m150tile.wav","None","726.428403519","141","293225.008216","285507.987026","286275.383661","287042.099496","287808.616533","288558.038148","289324.898058","290091.587304","293991.856687","294741.196679","295508.09771","296274.728523","297041.11076","297807.721168","298574.963834","299341.037517","298584.664762","Mapping"
"Blocked","m150","done","23","m150done.wav","None","726.600922178","141","293225.008216","300108.378501","286275.383661","287042.099496","287808.616533","288558.038148","289324.898058","290091.587304","293991.856687","294741.196679","295508.09771","296274.728523","297041.11076","297807.721168","298574.963834","299341.037517","299349.772278","Mapping"
"Blocked","m150","done","23","m150reek.wav","space","222.896872554","141","293225.008216","300108.378501","300875.0965","287042.099496","287808.616533","288558.038148","289324.898058","290091.587304","293991.856687","294741.196679","295508.09771","296274.728523","297041.11076","297807.721168","298574.963834","299341.037517","300117.826525","Mapping"
"Blocked","m150","done","23","m150priest.wav","None","721.350542735","141","293225.008216","300108.378501","300875.0965","301641.790385","287808.616533","288558.038148","289324.898058","290091.587304","293991.856687","294741.196679","295508.09771","296274.728523","297041.11076","297807.721168","298574.963834","299341.037517","300884.53123","Mapping"
"Blocked","m150","done","23","m150done.wav","None","719.278464094","141","293225.008216","300108.378501","300875.0965","301641.790385","302391.363494","288558.038148","289324.898058","290091.587304","293991.856687","294741.196679","295508.09771","296274.728523","297041.11076","297807.721168","298574.963834","299341.037517","301651.932811","Mapping"
"Blocked","m150","done","23","m150cling.wav","None","735.920330044","141","293225.008216","300108.378501","300875.0965","301641.790385","302391.363494","303157.697191","289324.898058","290091.587304","293991.856687","294741.196679","295508.09771","296274.728523","297041.11076","297807.721168","298574.963834","299341.037517","302400.699288","Mapping"
"Blocked","m150","done","23","m150greet.wav","space","0.0346270389855","141","293225.008216","300108.378501","300875.0965","301641.790385","302391.363494","303157.697191","303924.663766","290091.587304","293991.856687","294741.196679","295508.09771","296274.728523","297041.11076","297807.721168","298574.963834","299341.037517","303166.713919","Mapping"
"Blocked","m150","done","23","m150cad.wav","None","732.363292016","141","293225.008216","300108.378501","300875.0965","301641.790385","302391.363494","303157.697191","303924.663766","304690.989425","293991.856687","294741.196679","295508.09771","296274.728523","297041.11076","297807.721168","298574.963834","299341.037517","303933.687914","Mapping"
"Blocked","m150","cave","9","m150greet.wav","None","731.609527953","141","307824.963138","300108.378501","300875.0965","301641.790385","302391.363494","303157.697191","303924.663766","304690.989425","293991.856687","294741.196679","295508.09771","296274.728523","297041.11076","297807.721168","298574.963834","299341.037517","304699.708418","Mapping"
"Blocked","m150","cave","9","m150done.wav","None","720.584102441","141","307824.963138","300108.378501","300875.0965","301641.790385","302391.363494","303157.697191","303924.663766","304690.989425","308591.585295","294741.196679","295508.09771","296274.728523","297041.11076","297807.721168","298574.963834","299341.037517","307835.022398","Mapping"
"Blocked","m150","cave","9","m150bluff.wav","None","719.885680359","141","307824.963138","300108.378501","300875.0965","301641.790385","302391.363494","303157.697191","303924.663766","304690.989425","308591.585295","309340.742256","295508.09771","296274.728523","297041.11076","297807.721168","298574.963834","299341.037517","308601.033937","Mapping"
"Blocked","m150","cave","9","m150cave.wav","None","736.814767588","141","307824.963138","300108.378501","300875.0965","301641.790385","302391.363494","303157.697191","303924.663766","304690.989425","308591.585295","309340.742256","310107.865273","296274.728523","297041.11076","297807.721168","298574.963834","299341.037517","309349.478564","Mapping"
"Blocked","m150","cave","9","m150done.wav","space","463.595937472","141","307824.963138","300108.378501","300875.0965","301641.790385","302391.363494","303157.697191","303924.663766","304690.989425","308591.585295","309340.742256","310107.865273","310874.544935","297041.11076","297807.721168","298574.963834","299341.037517","310116.976917","Mapping"
"Blocked","m150","cave","9","m150cave.wav","None","731.960439589","141","307824.963138","300108.378501","300875.0965","301641.790385","302391.363494","303157.697191","303924.663766","304690.989425","308591.585295","309340.742256","310107.865273","310874.544935","311641.114841","297807.721168","298574.963834","299341.037517","310883.576812","Mapping"
"Blocked","m150","cave","9","m150greet.wav","space","594.30911066","141","307824.963138","300108.378501","300875.0965","301641.790385","302391.363494","303157.697191","303924.663766","304690.989425","308591.585295","309340.742256","310107.865273","310874.544935","311641.114841","312407.544692","298574.963834","299341.037517","311650.267296","Mapping"
"Blocked","m150","cave","9","m150cave.wav","None","728.443903383","141","307824.963138","300108.378501","300875.0965","301641.790385","302391.363494","303157.697191","303924.663766","304690.989425","308591.585295","309340.742256","310107.865273","310874.544935","311641.114841","312407.544692","313174.679457","299341.037517","312416.367876","Mapping"
"Blocked","m150","cave","9","m150done.wav","space","532.076873817","141","307824.963138","300108.378501","300875.0965","301641.790385","302391.363494","303157.697191","303924.663766","304690.989425","308591.585295","309340.742256","310107.865273","310874.544935","311641.114841","312407.544692","313174.679457","313941.703847","313184.437891","Mapping"
"Blocked","m150","cave","9","m150reek.wav","None","722.952987533","141","307824.963138","314707.644586","300875.0965","301641.790385","302391.363494","303157.697191","303924.663766","304690.989425","308591.585295","309340.742256","310107.865273","310874.544935","311641.114841","312407.544692","313174.679457","313941.703847","313951.381586","Mapping"
"Blocked","m150","cave","9","m150ball.wav","None","723.159824032","141","307824.963138","314707.644586","315474.362585","301641.790385","302391.363494","303157.697191","303924.663766","304690.989425","308591.585295","309340.742256","310107.865273","310874.544935","311641.114841","312407.544692","313174.679457","313941.703847","314716.450766","Mapping"
"Blocked","m150","cave","9","m150tile.wav","None","721.610557288","141","307824.963138","314707.644586","315474.362585","316240.969283","302391.363494","303157.697191","303924.663766","304690.989425","308591.585295","309340.742256","310107.865273","310874.544935","311641.114841","312407.544692","313174.679457","313941.703847","315483.334173","Mapping"
"Blocked","m150","cave","9","m150reek.wav","None","723.981915973","141","307824.963138","314707.644586","315474.362585","316240.969283","317008.178249","303157.697191","303924.663766","304690.989425","308591.585295","309340.742256","310107.865273","310874.544935","311641.114841","312407.544692","313174.679457","313941.703847","316249.580065","Mapping"
"Blocked","m150","cave","9","m150romp.wav","None","721.145251766","141","307824.963138","314707.644586","315474.362585","316240.969283","317008.178249","317774.987455","303924.663766","304690.989425","308591.585295","309340.742256","310107.865273","310874.544935","311641.114841","312407.544692","313174.679457","313941.703847","317017.751798","Mapping"
"Blocked","m150","cave","9","m150cave.wav","None","719.774686731","141","307824.963138","314707.644586","315474.362585","316240.969283","317008.178249","317774.987455","318524.263758","304690.989425","308591.585295","309340.742256","310107.865273","310874.544935","311641.114841","312407.544692","313174.679457","313941.703847","317784.352621","Mapping"
"Blocked","m150","cave","9","m150park.wav","space","495.013500098","141","307824.963138","314707.644586","315474.362585","316240.969283","317008.178249","317774.987455","318524.263758","319291.015457","308591.585295","309340.742256","310107.865273","310874.544935","311641.114841","312407.544692","313174.679457","313941.703847","318533.427652","Mapping"
"Blocked","m150","ball","5","m150bluff.wav","None","733.341206796","141","322424.717717","314707.644586","315474.362585","316240.969283","317008.178249","317774.987455","318524.263758","319291.015457","308591.585295","309340.742256","310107.865273","310874.544935","311641.114841","312407.544692","313174.679457","313941.703847","319300.181516","Mapping"
"Blocked","m150","ball","5","m150ball.wav","None","721.448860131","141","322424.717717","314707.644586","315474.362585","316240.969283","317008.178249","317774.987455","318524.263758","319291.015457","323191.385321","309340.742256","310107.865273","310874.544935","311641.114841","312407.544692","313174.679457","313941.703847","322434.085046","Mapping"
"Blocked","m150","ball","5","m150tile.wav","space","434.970209841","141","322424.717717","314707.644586","315474.362585","316240.969283","317008.178249","317774.987455","318524.263758","319291.015457","323191.385321","323941.22401","310107.865273","310874.544935","311641.114841","312407.544692","313174.679457","313941.703847","323201.409335","Mapping"
"Blocked","m150","ball","5","m150ball.wav","None","734.76464022","141","322424.717717","314707.644586","315474.362585","316240.969283","317008.178249","317774.987455","318524.263758","319291.015457","323191.385321","323941.22401","324707.606557","310874.544935","311641.114841","312407.544692","313174.679457","313941.703847","323950.284331","Mapping"
"Blocked","m150","ball","5","m150priest.wav","space","708.973102737","141","322424.717717","314707.644586","315474.362585","316240.969283","317008.178249","317774.987455","318524.263758","319291.015457","323191.385321","323941.22401","324707.606557","325474.29333","311641.114841","312407.544692","313174.679457","313941.703847","324711.322819","Mapping"
"Blocked","m150","ball","5","m150ball.wav","None","731.233573519","141","322424.717717","314707.644586","315474.362585","316240.969283","317008.178249","317774.987455","318524.263758","319291.015457","323191.385321","323941.22401","324707.606557","325474.29333","326240.661346","312407.544692","313174.679457","313941.703847","325483.349322","Mapping"
"Blocked","m150","ball","5","m150cling.wav","space","426.54678598","141","322424.717717","314707.644586","315474.362585","316240.969283","317008.178249","317774.987455","318524.263758","319291.015457","323191.385321","323941.22401","324707.606557","325474.29333","326240.661346","327007.268662","313174.679457","313941.703847","326249.767733","Mapping"
"Blocked","m150","ball","5","m150romp.wav","None","728.388252668","141","322424.717717","314707.644586","315474.362585","316240.969283","317008.178249","317774.987455","318524.263758","319291.015457","323191.385321","323941.22401","324707.606557","325474.29333","326240.661346","327007.268662","327773.926373","313941.703847","327015.929221","Mapping"
"Blocked","m150","ball","5","m150reek.wav","None","727.04334883","141","322424.717717","314707.644586","315474.362585","316240.969283","317008.178249","317774.987455","318524.263758","319291.015457","323191.385321","323941.22401","324707.606557","325474.29333","326240.661346","327007.268662","327773.926373","328541.152344","327782.817885","Mapping"
"Blocked","m150","ball","5","m150jolt.wav","None","725.141315255","141","322424.717717","329307.946091","315474.362585","316240.969283","317008.178249","317774.987455","318524.263758","319291.015457","323191.385321","323941.22401","324707.606557","325474.29333","326240.661346","327007.268662","327773.926373","328541.152344","328550.218539","Mapping"
"Blocked","m150","ball","5","m150ball.wav","None","723.129216116","141","322424.717717","329307.946091","330074.080681","316240.969283","317008.178249","317774.987455","318524.263758","319291.015457","323191.385321","323941.22401","324707.606557","325474.29333","326240.661346","327007.268662","327773.926373","328541.152344","329317.659386","Mapping"
"Blocked","m150","ball","5","m150park.wav","space","473.305521999","141","322424.717717","329307.946091","330074.080681","330841.186693","317008.178249","317774.987455","318524.263758","319291.015457","323191.385321","323941.22401","324707.606557","325474.29333","326240.661346","327007.268662","327773.926373","328541.152344","330082.910049","Mapping"
"Blocked","m150","ball","5","m150reek.wav","None","719.735112973","141","322424.717717","329307.946091","330074.080681","330841.186693","331590.567497","317774.987455","318524.263758","319291.015457","323191.385321","323941.22401","324707.606557","325474.29333","326240.661346","327007.268662","327773.926373","328541.152344","330850.799197","Mapping"
"Blocked","m150","ball","5","m150done.wav","None","736.955132335","141","322424.717717","329307.946091","330074.080681","330841.186693","331590.567497","332357.215932","318524.263758","319291.015457","323191.385321","323941.22401","324707.606557","325474.29333","326240.661346","327007.268662","327773.926373","328541.152344","331599.412633","Mapping"
"Blocked","m150","ball","5","m150greet.wav","None","735.738845076","141","322424.717717","329307.946091","330074.080681","330841.186693","331590.567497","332357.215932","333123.737607","319291.015457","323191.385321","323941.22401","324707.606557","325474.29333","326240.661346","327007.268662","327773.926373","328541.152344","332366.084565","Mapping"
"Blocked","m150","ball","5","m150jaw.wav","None","735.017234925","141","322424.717717","329307.946091","330074.080681","330841.186693","331590.567497","332357.215932","333123.737607","333890.436438","323191.385321","323941.22401","324707.606557","325474.29333","326240.661346","327007.268662","327773.926373","328541.152344","333132.598202","Mapping"
"Blocked","m150","ball","3","m150jolt.wav","None","733.932036906","141","337024.399949","329307.946091","330074.080681","330841.186693","331590.567497","332357.215932","333123.737607","333890.436438","323191.385321","323941.22401","324707.606557","325474.29333","326240.661346","327007.268662","327773.926373","328541.152344","333899.186349","Mapping"
"Blocked","m150","ball","3","m150ball.wav","None","720.567716286","141","337024.399949","329307.946091","330074.080681","330841.186693","331590.567497","332357.215932","333123.737607","333890.436438","337791.357249","323941.22401","324707.606557","325474.29333","326240.661346","327007.268662","327773.926373","328541.152344","337034.568346","Mapping"
"Blocked","m150","ball","3","m150knife.wav","space","467.068262398","141","337024.399949","329307.946091","330074.080681","330841.186693","331590.567497","332357.215932","333123.737607","333890.436438","337791.357249","338540.361479","324707.606557","325474.29333","326240.661346","327007.268662","327773.926373","328541.152344","337800.98923","Mapping"
"Blocked","m150","ball","3","m150bluff.wav","None","735.469555017","141","337024.399949","329307.946091","330074.080681","330841.186693","331590.567497","332357.215932","333123.737607","333890.436438","337791.357249","338540.361479","339307.368556","325474.29333","326240.661346","327007.268662","327773.926373","328541.152344","338549.207852","Mapping"
"Blocked","m150","ball","3","m150ball.wav","None","733.842685819","141","337024.399949","329307.946091","330074.080681","330841.186693","331590.567497","332357.215932","333123.737607","333890.436438","337791.357249","338540.361479","339307.368556","340074.026267","326240.661346","327007.268662","327773.926373","328541.152344","339316.479271","Mapping"
"Blocked","m150","ball","3","m150jolt.wav","space","640.878014732","141","337024.399949","329307.946091","330074.080681","330841.186693","331590.567497","332357.215932","333123.737607","333890.436438","337791.357249","338540.361479","339307.368556","340074.026267","340840.61194","327007.268662","327773.926373","328541.152344","340083.157079","Mapping"
"Blocked","m150","ball","3","m150ball.wav","None","729.888051283","141","337024.399949","329307.946091","330074.080681","330841.186693","331590.567497","332357.215932","333123.737607","333890.436438","337791.357249","338540.361479","339307.368556","340074.026267","340840.61194","341607.170097","327773.926373","328541.152344","340849.72513","Mapping"
"Blocked","m150","ball","3","m150romp.wav","space","667.730016168","141","337024.399949","329307.946091","330074.080681","330841.186693","331590.567497","332357.215932","333123.737607","333890.436438","337791.357249","338540.361479","339307.368556","340074.026267","340840.61194","341607.170097","342373.932618","328541.152344","341616.262881","Mapping"
"Blocked","m150","ball","3","m150knife.wav","None","726.282473654","141","337024.399949","329307.946091","330074.080681","330841.186693","331590.567497","332357.215932","333123.737607","333890.436438","337791.357249","338540.361479","339307.368556","340074.026267","340840.61194","341607.170097","342373.932618","343140.274972","342382.980572","Mapping"
"Blocked","m150","ball","3","m150jolt.wav","None","725.813766941","141","337024.399949","343908.012934","330074.080681","330841.186693","331590.567497","332357.215932","333123.737607","333890.436438","337791.357249","338540.361479","339307.368556","340074.026267","340840.61194","341607.170097","342373.932618","343140.274972","343148.930894","Mapping"
"Blocked","m150","ball","3","m150jaw.wav","None","722.522927448","141","337024.399949","343908.012934","344674.247078","330841.186693","331590.567497","332357.215932","333123.737607","333890.436438","337791.357249","338540.361479","339307.368556","340074.026267","340840.61194","341607.170097","342373.932618","343140.274972","343917.664394","Mapping"
"Blocked","m150","ball","3","m150done.wav","None","722.067206167","141","337024.399949","343908.012934","344674.247078","345440.923339","331590.567497","332357.215932","333123.737607","333890.436438","337791.357249","338540.361479","339307.368556","340074.026267","340840.61194","341607.170097","342373.932618","343140.274972","344683.77054","Mapping"
"Blocked","m150","ball","3","m150ball.wav","None","721.002413426","141","337024.399949","343908.012934","344674.247078","345440.923339","346207.484897","332357.215932","333123.737607","333890.436438","337791.357249","338540.361479","339307.368556","340074.026267","340840.61194","341607.170097","342373.932618","343140.274972","345450.389295","Mapping"
"Blocked","m150","ball","3","m150park.wav","space","491.099985782","141","337024.399949","343908.012934","344674.247078","345440.923339","346207.484897","346956.88858","333123.737607","333890.436438","337791.357249","338540.361479","339307.368556","340074.026267","340840.61194","341607.170097","342373.932618","343140.274972","346216.83244","Mapping"
"Blocked","m150","ball","3","m150bluff.wav","None","734.807615168","141","337024.399949","343908.012934","344674.247078","345440.923339","346207.484897","346956.88858","347740.128177","333890.436438","337791.357249","338540.361479","339307.368556","340074.026267","340840.61194","341607.170097","342373.932618","343140.274972","346966.244779","Mapping"
"Blocked","m150","ball","3","m150cad.wav","None","722.150064539","141","337024.399949","343908.012934","344674.247078","345440.923339","346207.484897","346956.88858","347740.128177","348507.100626","337791.357249","338540.361479","339307.368556","340074.026267","340840.61194","341607.170097","342373.932618","343140.274972","347748.752563","Mapping"
"Blocked","m150","tile","13","m150done.wav","None","720.483311918","141","351624.20554","343908.012934","344674.247078","345440.923339","346207.484897","346956.88858","347740.128177","348507.100626","337791.357249","338540.361479","339307.368556","340074.026267","340840.61194","341607.170097","342373.932618","343140.274972","348515.972351","Mapping"
"Blocked","m150","tile","13","m150ball.wav","None","721.09794803","141","351624.20554","343908.012934","344674.247078","345440.923339","346207.484897","346956.88858","347740.128177","348507.100626","352391.002998","338540.361479","339307.368556","340074.026267","340840.61194","341607.170097","342373.932618","343140.274972","351633.74879","Mapping"
"Blocked","m150","tile","13","m150tile.wav","None","719.819207676","141","351624.20554","343908.012934","344674.247078","345440.923339","346207.484897","346956.88858","347740.128177","348507.100626","352391.002998","353157.559609","339307.368556","340074.026267","340840.61194","341607.170097","342373.932618","343140.274972","352400.583966","Mapping"
"Blocked","m150","tile","13","m150done.wav","space","516.230511013","141","351624.20554","343908.012934","344674.247078","345440.923339","346207.484897","346956.88858","347740.128177","348507.100626","352391.002998","353157.559609","353907.058826","340074.026267","340840.61194","341607.170097","342373.932618","343140.274972","353167.544357","Mapping"
"Blocked","m150","tile","13","m150tile.wav","None","734.224824235","141","351624.20554","343908.012934","344674.247078","345440.923339","346207.484897","346956.88858","347740.128177","348507.100626","352391.002998","353157.559609","353907.058826","354673.725194","340840.61194","341607.170097","342373.932618","343140.274972","353916.131513","Mapping"
"Blocked","m150","tile","13","m150romp.wav","space","457.004983444","141","351624.20554","343908.012934","344674.247078","345440.923339","346207.484897","346956.88858","347740.128177","348507.100626","352391.002998","353157.559609","353907.058826","354673.725194","355440.367446","341607.170097","342373.932618","343140.274972","354682.779022","Mapping"
"Blocked","m150","tile","13","m150ball.wav","None","736.415316351","141","351624.20554","343908.012934","344674.247078","345440.923339","346207.484897","346956.88858","347740.128177","348507.100626","352391.002998","353157.559609","353907.058826","354673.725194","355440.367446","356206.974452","342373.932618","343140.274972","355444.091437","Mapping"
"Blocked","m150","tile","13","m150tile.wav","None","730.094269849","141","351624.20554","343908.012934","344674.247078","345440.923339","346207.484897","346956.88858","347740.128177","348507.100626","352391.002998","353157.559609","353907.058826","354673.725194","355440.367446","356206.974452","356973.357927","343140.274972","356216.09568","Mapping"
"Blocked","m150","tile","13","m150cling.wav","space","461.498197634","141","351624.20554","343908.012934","344674.247078","345440.923339","346207.484897","346956.88858","347740.128177","348507.100626","352391.002998","353157.559609","353907.058826","354673.725194","355440.367446","356206.974452","356973.357927","357740.043154","356982.208319","Mapping"
"Blocked","m150","tile","13","m150park.wav","None","728.003022727","141","351624.20554","358506.879876","344674.247078","345440.923339","346207.484897","346956.88858","347740.128177","348507.100626","352391.002998","353157.559609","353907.058826","354673.725194","355440.367446","356206.974452","356973.357927","357740.043154","357748.81718","Mapping"
"Blocked","m150","tile","13","m150cave.wav","None","726.578970905","141","351624.20554","358506.879876","359273.590147","345440.923339","346207.484897","346956.88858","347740.128177","348507.100626","352391.002998","353157.559609","353907.058826","354673.725194","355440.367446","356206.974452","356973.357927","357740.043154","358515.89042","Mapping"
"Blocked","m150","tile","13","m150lash.wav","None","725.613731891","141","351624.20554","358506.879876","359273.590147","360040.524568","346207.484897","346956.88858","347740.128177","348507.100626","352391.002998","353157.559609","353907.058826","354673.725194","355440.367446","356206.974452","356973.357927","357740.043154","359282.568846","Mapping"
"Blocked","m150","tile","13","m150tile.wav","None","723.398196977","141","351624.20554","358506.879876","359273.590147","360040.524568","360807.25648","346956.88858","347740.128177","348507.100626","352391.002998","353157.559609","353907.058826","354673.725194","355440.367446","356206.974452","356973.357927","357740.043154","360050.629585","Mapping"
"Blocked","m150","tile","13","m150priest.wav","space","403.062298428","141","351624.20554","358506.879876","359273.590147","360040.524568","360807.25648","361573.488769","347740.128177","348507.100626","352391.002998","353157.559609","353907.058826","354673.725194","355440.367446","356206.974452","356973.357927","357740.043154","360816.593511","Mapping"
"Blocked","m150","tile","13","m150cling.wav","None","721.697125584","141","351624.20554","358506.879876","359273.590147","360040.524568","360807.25648","361573.488769","362340.640848","348507.100626","352391.002998","353157.559609","353907.058826","354673.725194","355440.367446","356206.974452","356973.357927","357740.043154","361582.46685","Mapping"
"Blocked","m150","tile","13","m150reek.wav","None","719.549918082","141","351624.20554","358506.879876","359273.590147","360040.524568","360807.25648","361573.488769","362340.640848","363090.454803","352391.002998","353157.559609","353907.058826","354673.725194","355440.367446","356206.974452","356973.357927","357740.043154","362350.380422","Mapping"
"Blocked","m150","ball","2","m150depth.wav","None","736.128712539","141","366223.976196","358506.879876","359273.590147","360040.524568","360807.25648","361573.488769","362340.640848","363090.454803","352391.002998","353157.559609","353907.058826","354673.725194","355440.367446","356206.974452","356973.357927","357740.043154","363099.578504","Mapping"
"Blocked","m150","ball","2","m150ball.wav","None","721.2175983","141","366223.976196","358506.879876","359273.590147","360040.524568","360807.25648","361573.488769","362340.640848","363090.454803","366989.983097","353157.559609","353907.058826","354673.725194","355440.367446","356206.974452","356973.357927","357740.043154","366233.49131","Mapping"
"Blocked","m150","ball","2","m150romp.wav","space","492.597002536","141","366223.976196","358506.879876","359273.590147","360040.524568","360807.25648","361573.488769","362340.640848","363090.454803","366989.983097","367739.892896","353907.058826","354673.725194","355440.367446","356206.974452","356973.357927","357740.043154","366998.961796","Mapping"
"Blocked","m150","ball","2","m150jolt.wav","None","735.57838425","141","366223.976196","358506.879876","359273.590147","360040.524568","360807.25648","361573.488769","362340.640848","363090.454803","366989.983097","367739.892896","368506.732401","354673.725194","355440.367446","356206.974452","356973.357927","357740.043154","367749.047515","Mapping"
"Blocked","m150","ball","2","m150romp.wav","None","734.155569226","141","366223.976196","358506.879876","359273.590147","360040.524568","360807.25648","361573.488769","362340.640848","363090.454803","366989.983097","367739.892896","368506.732401","369273.114948","355440.367446","356206.974452","356973.357927","357740.043154","368516.124155","Mapping"
"Blocked","m150","ball","2","m150lash.wav","None","734.025716316","141","366223.976196","358506.879876","359273.590147","360040.524568","360807.25648","361573.488769","362340.640848","363090.454803","366989.983097","367739.892896","368506.732401","369273.114948","370040.10873","356206.974452","356973.357927","357740.043154","369282.011406","Mapping"
"Blocked","m150","ball","2","m150done.wav","None","732.185208239","141","366223.976196","358506.879876","359273.590147","360040.524568","360807.25648","361573.488769","362340.640848","363090.454803","366989.983097","367739.892896","368506.732401","369273.114948","370040.10873","370806.750364","356973.357927","357740.043154","370049.481006","Mapping"
"Blocked","m150","ball","2","m150priest.wav","None","723.996756133","141","366223.976196","358506.879876","359273.590147","360040.524568","360807.25648","361573.488769","362340.640848","363090.454803","366989.983097","367739.892896","368506.732401","369273.114948","370040.10873","370806.750364","371573.3988","357740.043154","370823.47076","Mapping"
"Blocked","m150","ball","2","m150ball.wav","None","730.303271208","141","366223.976196","358506.879876","359273.590147","360040.524568","360807.25648","361573.488769","362340.640848","363090.454803","366989.983097","367739.892896","368506.732401","369273.114948","370040.10873","370806.750364","371573.3988","372340.010444","371582.89289","Mapping"
"Blocked","m150","ball","2","m150jaw.wav","space","357.466671616","141","366223.976196","373106.738646","359273.590147","360040.524568","360807.25648","361573.488769","362340.640848","363090.454803","366989.983097","367739.892896","368506.732401","369273.114948","370040.10873","370806.750364","371573.3988","372340.010444","372349.996738","Mapping"
"Blocked","m150","ball","2","m150bluff.wav","None","726.482817903","141","366223.976196","373106.738646","373873.347199","360040.524568","360807.25648","361573.488769","362340.640848","363090.454803","366989.983097","367739.892896","368506.732401","369273.114948","370040.10873","370806.750364","371573.3988","372340.010444","373116.353005","Mapping"
"Blocked","m150","ball","2","m150knife.wav","None","725.945165846","141","366223.976196","373106.738646","373873.347199","374640.710443","360807.25648","361573.488769","362340.640848","363090.454803","366989.983097","367739.892896","368506.732401","369273.114948","370040.10873","370806.750364","371573.3988","372340.010444","373882.541082","Mapping"
"Blocked","m150","ball","2","m150ball.wav","None","723.637806252","141","366223.976196","373106.738646","373873.347199","374640.710443","375407.158534","361573.488769","362340.640848","363090.454803","366989.983097","367739.892896","368506.732401","369273.114948","370040.10873","370806.750364","371573.3988","372340.010444","374650.414462","Mapping"
