"Condition","Talker","Target","Trial","current_stimulus","response_response","response_time_response","subject_nr","time_Audio1","time_Audio10","time_Audio11","time_Audio12","time_Audio13","time_Audio14","time_Audio15","time_Audio16","time_Audio2","time_Audio3","time_Audio4","time_Audio5","time_Audio6","time_Audio7","time_Audio8","time_Audio9","time_response","title"
"Mixed","Both","cave","24","m160jaw.wav","NA","NA","183","367237.147089","NA","NA","NA","NA","NA","NA","NA","NA","NA","NA","NA","NA","NA","NA","NA","NA","Mapping"
"Mixed","Both","cave","24","m150bluff.wav","None","716.666620458","183","367237.147089","NA","NA","NA","NA","NA","NA","NA","368004.121601","NA","NA","NA","NA","NA","NA","NA","367252.710607","Mapping"
"Mixed","Both","cave","24","m160jaw.wav","None","721.516944468","183","367237.147089","NA","NA","NA","NA","NA","NA","NA","368004.121601","368753.284898","NA","NA","NA","NA","NA","NA","368014.443689","Mapping"
"Mixed","Both","cave","24","m150cave.wav","None","736.183857312","183","367237.147089","NA","NA","NA","NA","NA","NA","NA","368004.121601","368753.284898","369519.815745","NA","NA","NA","NA","NA","368762.948755","Mapping"
"Mixed","Both","cave","24","m160gnash.wav","space","652.702506632","183","367237.147089","NA","NA","NA","NA","NA","NA","NA","368004.121601","368753.284898","369519.815745","370286.351538","NA","NA","NA","NA","369529.366444","Mapping"
"Mixed","Both","cave","24","m160cave.wav","None","736.898667878","183","367237.147089","NA","NA","NA","NA","NA","NA","NA","368004.121601","368753.284898","369519.815745","370286.351538","371053.553601","NA","NA","NA","370295.762799","Mapping"
"Mixed","Both","cave","24","m150ball.wav","None","735.832017148","183","367237.147089","NA","NA","NA","NA","NA","NA","NA","368004.121601","368753.284898","369519.815745","370286.351538","371053.553601","371837.402838","NA","NA","371063.305882","Mapping"
"Mixed","Both","cave","24","m150depth.wav","space","118.413701653","183","367237.147089","NA","NA","NA","NA","NA","NA","NA","368004.121601","368753.284898","369519.815745","370286.351538","371053.553601","371837.402838","372586.804509","NA","371847.652271","Mapping"
"Mixed","Both","cave","24","m160bluff.wav","None","736.165306764","183","367237.147089","NA","NA","NA","NA","NA","NA","NA","368004.121601","368753.284898","369519.815745","370286.351538","371053.553601","371837.402838","372586.804509","373353.589187","372596.252871","Mapping"
"Mixed","Both","cave","24","m150cave.wav","None","735.558397835","183","367237.147089","374119.923708","NA","NA","NA","NA","NA","NA","368004.121601","368753.284898","369519.815745","370286.351538","371053.553601","371837.402838","372586.804509","373353.589187","373363.632401","Mapping"
"Mixed","Both","cave","24","m150romp.wav","space","340.708373813","183","367237.147089","374119.923708","374886.803922","NA","NA","NA","NA","NA","368004.121601","368753.284898","369519.815745","370286.351538","371053.553601","371837.402838","372586.804509","373353.589187","374129.321057","Mapping"
"Mixed","Both","cave","24","m150priest.wav","None","732.73749277","183","367237.147089","374119.923708","374886.803922","375653.308179","NA","NA","NA","NA","368004.121601","368753.284898","369519.815745","370286.351538","371053.553601","371837.402838","372586.804509","373353.589187","374895.969699","Mapping"
"Mixed","Both","cave","24","m160cave.wav","None","732.449342497","183","367237.147089","374119.923708","374886.803922","375653.308179","376420.070906","NA","NA","NA","368004.121601","368753.284898","369519.815745","370286.351538","371053.553601","371837.402838","372586.804509","373353.589187","375662.866607","Mapping"
"Mixed","Both","cave","24","m150dime.wav","space","400.554287247","183","367237.147089","374119.923708","374886.803922","375653.308179","376420.070906","377186.769943","NA","NA","368004.121601","368753.284898","369519.815745","370286.351538","371053.553601","371837.402838","372586.804509","373353.589187","376429.400236","Mapping"
"Mixed","Both","cave","24","m160greet.wav","None","728.912390303","183","367237.147089","374119.923708","374886.803922","375653.308179","376420.070906","377186.769943","377953.307282","NA","368004.121601","368753.284898","369519.815745","370286.351538","371053.553601","371837.402838","372586.804509","373353.589187","377196.541083","Mapping"
"Mixed","Both","cave","24","m160cad.wav","None","729.234549683","183","367237.147089","374119.923708","374886.803922","375653.308179","376420.070906","377186.769943","377953.307282","378720.289832","368004.121601","368753.284898","369519.815745","370286.351538","371053.553601","371837.402838","372586.804509","373353.589187","377962.833866","Mapping"
"Mixed","Both","done","40","m160knife.wav","space","347.686434397","183","381886.662629","374119.923708","374886.803922","375653.308179","376420.070906","377186.769943","377953.307282","378720.289832","368004.121601","368753.284898","369519.815745","370286.351538","371053.553601","371837.402838","372586.804509","373353.589187","378730.235656","Mapping"
"Mixed","Both","done","40","m160done.wav","None","725.011849077","183","381886.662629","374119.923708","374886.803922","375653.308179","376420.070906","377186.769943","377953.307282","378720.289832","382654.17634","368753.284898","369519.815745","370286.351538","371053.553601","371837.402838","372586.804509","373353.589187","381895.882202","Mapping"
"Mixed","Both","done","40","m150lash.wav","space","533.130947966","183","381886.662629","374119.923708","374886.803922","375653.308179","376420.070906","377186.769943","377953.307282","378720.289832","382654.17634","383419.901479","369519.815745","370286.351538","371053.553601","371837.402838","372586.804509","373353.589187","382664.666001","Mapping"
"Mixed","Both","done","40","m150reek.wav","None","725.127171027","183","381886.662629","374119.923708","374886.803922","375653.308179","376420.070906","377186.769943","377953.307282","378720.289832","382654.17634","383419.901479","384187.80815","370286.351538","371053.553601","371837.402838","372586.804509","373353.589187","383429.053343","Mapping"
"Mixed","Both","done","40","m160depth.wav","None","723.230696749","183","381886.662629","374119.923708","374886.803922","375653.308179","376420.070906","377186.769943","377953.307282","378720.289832","382654.17634","383419.901479","384187.80815","384953.433116","371053.553601","371837.402838","372586.804509","373353.589187","384197.731713","Mapping"
"Mixed","Both","done","40","m160cave.wav","None","724.24355126","183","381886.662629","374119.923708","374886.803922","375653.308179","376420.070906","377186.769943","377953.307282","378720.289832","382654.17634","383419.901479","384187.80815","384953.433116","385720.492651","371837.402838","372586.804509","373353.589187","384963.579903","Mapping"
"Mixed","Both","done","40","m160depth.wav","None","719.77691236","183","381886.662629","374119.923708","374886.803922","375653.308179","376420.070906","377186.769943","377953.307282","378720.289832","382654.17634","383419.901479","384187.80815","384953.433116","385720.492651","386469.812699","372586.804509","373353.589187","385731.348683","Mapping"
"Mixed","Both","done","40","m150priest.wav","None","735.20934023","183","381886.662629","374119.923708","374886.803922","375653.308179","376420.070906","377186.769943","377953.307282","378720.289832","382654.17634","383419.901479","384187.80815","384953.433116","385720.492651","386469.812699","387236.675599","373353.589187","386479.343611","Mapping"
"Mixed","Both","done","40","m150done.wav","None","731.773178792","183","381886.662629","374119.923708","374886.803922","375653.308179","376420.070906","377186.769943","377953.307282","378720.289832","382654.17634","383419.901479","384187.80815","384953.433116","385720.492651","386469.812699","387236.675599","388003.422867","387246.061508","Mapping"
"Mixed","Both","done","40","m160cad.wav","space","544.531745138","183","381886.662629","388770.071818","374886.803922","375653.308179","376420.070906","377186.769943","377953.307282","378720.289832","382654.17634","383419.901479","384187.80815","384953.433116","385720.492651","386469.812699","387236.675599","388003.422867","388013.266045","Mapping"
"Mixed","Both","done","40","m160done.wav","None","733.048212714","183","381886.662629","388770.071818","389536.550105","375653.308179","376420.070906","377186.769943","377953.307282","378720.289832","382654.17634","383419.901479","384187.80815","384953.433116","385720.492651","386469.812699","387236.675599","388003.422867","388774.736638","Mapping"
"Mixed","Both","done","40","m150greet.wav","space","595.629885094","183","381886.662629","388770.071818","389536.550105","390303.441449","376420.070906","377186.769943","377953.307282","378720.289832","382654.17634","383419.901479","384187.80815","384953.433116","385720.492651","386469.812699","387236.675599","388003.422867","389546.181189","Mapping"
"Mixed","Both","done","40","m150bluff.wav","None","725.710273487","183","381886.662629","388770.071818","389536.550105","390303.441449","391070.403284","377186.769943","377953.307282","378720.289832","382654.17634","383419.901479","384187.80815","384953.433116","385720.492651","386469.812699","387236.675599","388003.422867","390312.644017","Mapping"
"Mixed","Both","done","40","m150done.wav","None","721.112544648","183","381886.662629","388770.071818","389536.550105","390303.441449","391070.403284","391819.546176","377953.307282","378720.289832","382654.17634","383419.901479","384187.80815","384953.433116","385720.492651","386469.812699","387236.675599","388003.422867","391080.641586","Mapping"
"Mixed","Both","done","40","m160greet.wav","space","496.575123398","183","381886.662629","388770.071818","389536.550105","390303.441449","391070.403284","391819.546176","392586.565517","378720.289832","382654.17634","383419.901479","384187.80815","384953.433116","385720.492651","386469.812699","387236.675599","388003.422867","391829.129647","Mapping"
"Mixed","Both","done","40","m150gnash.wav","None","731.955591356","183","381886.662629","388770.071818","389536.550105","390303.441449","391070.403284","391819.546176","392586.565517","393353.350814","382654.17634","383419.901479","384187.80815","384953.433116","385720.492651","386469.812699","387236.675599","388003.422867","392596.151771","Mapping"
"Mixed","Both","cave","15","m150ball.wav","None","732.283316087","183","396486.884059","388770.071818","389536.550105","390303.441449","391070.403284","391819.546176","392586.565517","393353.350814","382654.17634","383419.901479","384187.80815","384953.433116","385720.492651","386469.812699","387236.675599","388003.422867","393362.778462","Mapping"
"Mixed","Both","cave","15","m150cave.wav","None","719.748468138","183","396486.884059","388770.071818","389536.550105","390303.441449","391070.403284","391819.546176","392586.565517","393353.350814","397236.482365","383419.901479","384187.80815","384953.433116","385720.492651","386469.812699","387236.675599","388003.422867","396497.115251","Mapping"
"Mixed","Both","cave","15","m160jolt.wav","space","431.486234069","183","396486.884059","388770.071818","389536.550105","390303.441449","391070.403284","391819.546176","392586.565517","393353.350814","397236.482365","398003.18233","384187.80815","384953.433116","385720.492651","386469.812699","387236.675599","388003.422867","397246.143439","Mapping"
"Mixed","Both","cave","15","m160done.wav","None","733.471781481","183","396486.884059","388770.071818","389536.550105","390303.441449","391070.403284","391819.546176","392586.565517","393353.350814","397236.482365","398003.18233","398769.89126","384953.433116","385720.492651","386469.812699","387236.675599","388003.422867","398013.437327","Mapping"
"Mixed","Both","cave","15","m160cave.wav","None","730.799280107","183","396486.884059","388770.071818","389536.550105","390303.441449","391070.403284","391819.546176","392586.565517","393353.350814","397236.482365","398003.18233","398769.89126","399536.639147","385720.492651","386469.812699","387236.675599","388003.422867","398779.413515","Mapping"
"Mixed","Both","cave","15","m150done.wav","space","370.695174905","183","396486.884059","388770.071818","389536.550105","390303.441449","391070.403284","391819.546176","392586.565517","393353.350814","397236.482365","398003.18233","398769.89126","399536.639147","400303.191018","386469.812699","387236.675599","388003.422867","399546.912386","Mapping"
"Mixed","Both","cave","15","m150depth.wav","None","724.287763238","183","396486.884059","388770.071818","389536.550105","390303.441449","391070.403284","391819.546176","392586.565517","393353.350814","397236.482365","398003.18233","398769.89126","399536.639147","400303.191018","401070.218398","387236.675599","388003.422867","400312.847145","Mapping"
"Mixed","Both","cave","15","m160knife.wav","None","720.158742275","183","396486.884059","388770.071818","389536.550105","390303.441449","391070.403284","391819.546176","392586.565517","393353.350814","397236.482365","398003.18233","398769.89126","399536.639147","400303.191018","401070.218398","401819.839891","388003.422867","401080.279234","Mapping"
"Mixed","Both","cave","15","m150jolt.wav","None","733.799197013","183","396486.884059","388770.071818","389536.550105","390303.441449","391070.403284","391819.546176","392586.565517","393353.350814","397236.482365","398003.18233","398769.89126","399536.639147","400303.191018","401070.218398","401819.839891","402586.21244","401829.957615","Mapping"
"Mixed","Both","cave","15","m150knife.wav","None","734.708787408","183","396486.884059","403352.781934","389536.550105","390303.441449","391070.403284","391819.546176","392586.565517","393353.350814","397236.482365","398003.18233","398769.89126","399536.639147","400303.191018","401070.218398","401819.839891","402586.21244","402595.922982","Mapping"
"Mixed","Both","cave","15","m160cave.wav","None","735.718240961","183","396486.884059","403352.781934","404119.515907","390303.441449","391070.403284","391819.546176","392586.565517","393353.350814","397236.482365","398003.18233","398769.89126","399536.639147","400303.191018","401070.218398","401819.839891","402586.21244","403362.011091","Mapping"
"Mixed","Both","cave","15","m160knife.wav","space","418.013351969","183","396486.884059","403352.781934","404119.515907","404886.398594","391070.403284","391819.546176","392586.565517","393353.350814","397236.482365","398003.18233","398769.89126","399536.639147","400303.191018","401070.218398","401819.839891","402586.21244","404123.546611","Mapping"
"Mixed","Both","cave","15","m150gnash.wav","None","727.87727532","183","396486.884059","403352.781934","404119.515907","404886.398594","405653.192857","391819.546176","392586.565517","393353.350814","397236.482365","398003.18233","398769.89126","399536.639147","400303.191018","401070.218398","401819.839891","402586.21244","404896.230023","Mapping"
"Mixed","Both","cave","15","m150cave.wav","None","724.485325627","183","396486.884059","403352.781934","404119.515907","404886.398594","405653.192857","406419.943526","392586.565517","393353.350814","397236.482365","398003.18233","398769.89126","399536.639147","400303.191018","401070.218398","401819.839891","402586.21244","405662.978219","Mapping"
"Mixed","Both","cave","15","m160tile.wav","space","375.931966817","183","396486.884059","403352.781934","404119.515907","404886.398594","405653.192857","406419.943526","407186.715529","393353.350814","397236.482365","398003.18233","398769.89126","399536.639147","400303.191018","401070.218398","401819.839891","402586.21244","406429.583886","Mapping"
"Mixed","Both","cave","15","m160depth.wav","None","720.30343581","183","396486.884059","403352.781934","404119.515907","404886.398594","405653.192857","406419.943526","407186.715529","407936.060311","397236.482365","398003.18233","398769.89126","399536.639147","400303.191018","401070.218398","401819.839891","402586.21244","407197.125732","Mapping"
"Mixed","Both","cave","20","m150cad.wav","space","603.640896734","183","411070.189644","403352.781934","404119.515907","404886.398594","405653.192857","406419.943526","407186.715529","407936.060311","397236.482365","398003.18233","398769.89126","399536.639147","400303.191018","401070.218398","401819.839891","402586.21244","407945.868861","Mapping"
"Mixed","Both","cave","20","m160cave.wav","None","722.475693561","183","411070.189644","403352.781934","404119.515907","404886.398594","405653.192857","406419.943526","407186.715529","407936.060311","411836.737805","398003.18233","398769.89126","399536.639147","400303.191018","401070.218398","401819.839891","402586.21244","411080.36302","Mapping"
"Mixed","Both","cave","20","m160cad.wav","space","606.257128529","183","411070.189644","403352.781934","404119.515907","404886.398594","405653.192857","406419.943526","407186.715529","407936.060311","411836.737805","412586.102993","398769.89126","399536.639147","400303.191018","401070.218398","401819.839891","402586.21244","411847.149863","Mapping"
"Mixed","Both","cave","20","m160cave.wav","None","733.874944504","183","411070.189644","403352.781934","404119.515907","404886.398594","405653.192857","406419.943526","407186.715529","407936.060311","411836.737805","412586.102993","413352.719481","399536.639147","400303.191018","401070.218398","401819.839891","402586.21244","412595.323803","Mapping"
"Mixed","Both","cave","20","m160lash.wav","space","547.512183664","183","411070.189644","403352.781934","404119.515907","404886.398594","405653.192857","406419.943526","407186.715529","407936.060311","411836.737805","412586.102993","413352.719481","414119.709451","400303.191018","401070.218398","401819.839891","402586.21244","413361.920813","Mapping"
"Mixed","Both","cave","20","m150depth.wav","None","730.971490033","183","411070.189644","403352.781934","404119.515907","404886.398594","405653.192857","406419.943526","407186.715529","407936.060311","411836.737805","412586.102993","413352.719481","414119.709451","414885.728614","401070.218398","401819.839891","402586.21244","414130.332984","Mapping"
"Mixed","Both","cave","20","m150gnash.wav","None","730.893887347","183","411070.189644","403352.781934","404119.515907","404886.398594","405653.192857","406419.943526","407186.715529","407936.060311","411836.737805","412586.102993","413352.719481","414119.709451","414885.728614","415653.321164","401819.839891","402586.21244","414895.042485","Mapping"
"Mixed","Both","cave","20","m160jolt.wav","None","726.444871398","183","411070.189644","403352.781934","404119.515907","404886.398594","405653.192857","406419.943526","407186.715529","407936.060311","411836.737805","412586.102993","413352.719481","414119.709451","414885.728614","415653.321164","416420.201687","402586.21244","415663.012847","Mapping"
"Mixed","Both","cave","20","m160cling.wav","None","722.554532811","183","411070.189644","403352.781934","404119.515907","404886.398594","405653.192857","406419.943526","407186.715529","407936.060311","411836.737805","412586.102993","413352.719481","414119.709451","414885.728614","415653.321164","416420.201687","417186.732842","416430.246137","Mapping"
"Mixed","Both","cave","20","m150cave.wav","None","722.792597022","183","411070.189644","417953.069218","404119.515907","404886.398594","405653.192857","406419.943526","407186.715529","407936.060311","411836.737805","412586.102993","413352.719481","414119.709451","414885.728614","415653.321164","416420.201687","417186.732842","417196.913329","Mapping"
"Mixed","Both","cave","20","m160priest.wav","space","450.097590918","183","411070.189644","417953.069218","418719.963035","404886.398594","405653.192857","406419.943526","407186.715529","407936.060311","411836.737805","412586.102993","413352.719481","414119.709451","414885.728614","415653.321164","416420.201687","417186.732842","417963.259598","Mapping"
"Mixed","Both","cave","20","m160dime.wav","None","719.573166687","183","411070.189644","417953.069218","418719.963035","419486.541804","405653.192857","406419.943526","407186.715529","407936.060311","411836.737805","412586.102993","413352.719481","414119.709451","414885.728614","415653.321164","416420.201687","417186.732842","418730.164546","Mapping"
"Mixed","Both","cave","20","m150cave.wav","None","725.063481135","183","411070.189644","417953.069218","418719.963035","419486.541804","420236.117539","406419.943526","407186.715529","407936.060311","411836.737805","412586.102993","413352.719481","414119.709451","414885.728614","415653.321164","416420.201687","417186.732842","419491.608859","Mapping"
"Mixed","Both","cave","20","m150done.wav","space","543.669767445","183","411070.189644","417953.069218","418719.963035","419486.541804","420236.117539","421002.861716","407186.715529","407936.060311","411836.737805","412586.102993","413352.719481","414119.709451","414885.728614","415653.321164","416420.201687","417186.732842","420245.659891","Mapping"
"Mixed","Both","cave","20","m150jolt.wav","None","730.786603875","183","411070.189644","417953.069218","418719.963035","419486.541804","420236.117539","421002.861716","421769.604656","407936.060311","411836.737805","412586.102993","413352.719481","414119.709451","414885.728614","415653.321164","416420.201687","417186.732842","421012.598847","Mapping"
"Mixed","Both","cave","20","m150jaw.wav","None","727.648177184","183","411070.189644","417953.069218","418719.963035","419486.541804","420236.117539","421002.861716","421769.604656","422536.069648","411836.737805","412586.102993","413352.719481","414119.709451","414885.728614","415653.321164","416420.201687","417186.732842","421779.174214","Mapping"
"Mixed","Both","done","44","m150jolt.wav","None","727.876347722","183","425669.995236","417953.069218","418719.963035","419486.541804","420236.117539","421002.861716","421769.604656","422536.069648","411836.737805","412586.102993","413352.719481","414119.709451","414885.728614","415653.321164","416420.201687","417186.732842","422545.933541","Mapping"
"Mixed","Both","done","44","m150reek.wav","None","718.724174192","183","425669.995236","417953.069218","418719.963035","419486.541804","420236.117539","421002.861716","421769.604656","422536.069648","426419.484403","412586.102993","413352.719481","414119.709451","414885.728614","415653.321164","416420.201687","417186.732842","425680.331546","Mapping"
"Mixed","Both","done","44","m150knife.wav","None","733.405309264","183","425669.995236","417953.069218","418719.963035","419486.541804","420236.117539","421002.861716","421769.604656","422536.069648","426419.484403","427186.013085","413352.719481","414119.709451","414885.728614","415653.321164","416420.201687","417186.732842","426429.213495","Mapping"
"Mixed","Both","done","44","m150done.wav","None","730.573273962","183","425669.995236","417953.069218","418719.963035","419486.541804","420236.117539","421002.861716","421769.604656","422536.069648","426419.484403","427186.013085","427952.774575","414119.709451","414885.728614","415653.321164","416420.201687","417186.732842","427195.631802","Mapping"
"Mixed","Both","done","44","m160cad.wav","space","370.166177861","183","425669.995236","417953.069218","418719.963035","419486.541804","420236.117539","421002.861716","421769.604656","422536.069648","426419.484403","427186.013085","427952.774575","428719.157327","414885.728614","415653.321164","416420.201687","417186.732842","427963.070384","Mapping"
"Mixed","Both","done","44","m160cave.wav","None","724.406486144","183","425669.995236","417953.069218","418719.963035","419486.541804","420236.117539","421002.861716","421769.604656","422536.069648","426419.484403","427186.013085","427952.774575","428719.157327","429486.470694","415653.321164","416420.201687","417186.732842","428728.717611","Mapping"
"Mixed","Both","done","44","m160bluff.wav","None","725.5482662","183","425669.995236","417953.069218","418719.963035","419486.541804","420236.117539","421002.861716","421769.604656","422536.069648","426419.484403","427186.013085","427952.774575","428719.157327","429486.470694","430235.825061","416420.201687","417186.732842","429491.056674","Mapping"
"Mixed","Both","done","44","m160reek.wav","None","734.38353627","183","425669.995236","417953.069218","418719.963035","419486.541804","420236.117539","421002.861716","421769.604656","422536.069648","426419.484403","427186.013085","427952.774575","428719.157327","429486.470694","430235.825061","431002.34354","417186.732842","430245.763464","Mapping"
"Mixed","Both","done","44","m150done.wav","None","735.038366867","183","425669.995236","417953.069218","418719.963035","419486.541804","420236.117539","421002.861716","421769.604656","422536.069648","426419.484403","427186.013085","427952.774575","428719.157327","429486.470694","430235.825061","431002.34354","431769.141204","431012.063976","Mapping"
"Mixed","Both","done","44","m160greet.wav","space","442.973599769","183","425669.995236","432536.028528","418719.963035","419486.541804","420236.117539","421002.861716","421769.604656","422536.069648","426419.484403","427186.013085","427952.774575","428719.157327","429486.470694","430235.825061","431002.34354","431769.141204","431778.183002","Mapping"
"Mixed","Both","done","44","m150priest.wav","None","727.944365935","183","425669.995236","432536.028528","433302.715817","419486.541804","420236.117539","421002.861716","421769.604656","422536.069648","426419.484403","427186.013085","427952.774575","428719.157327","429486.470694","430235.825061","431002.34354","431769.141204","432545.606744","Mapping"
"Mixed","Both","done","44","m160done.wav","None","725.230744341","183","425669.995236","432536.028528","433302.715817","434069.773187","420236.117539","421002.861716","421769.604656","422536.069648","426419.484403","427186.013085","427952.774575","428719.157327","429486.470694","430235.825061","431002.34354","431769.141204","433312.41461","Mapping"
"Mixed","Both","done","44","m150priest.wav","space","517.287009163","183","425669.995236","432536.028528","433302.715817","434069.773187","434819.398391","421002.861716","421769.604656","422536.069648","426419.484403","427186.013085","427952.774575","428719.157327","429486.470694","430235.825061","431002.34354","431769.141204","434079.819183","Mapping"
"Mixed","Both","done","44","m160bluff.wav","None","740.573821124","183","425669.995236","432536.028528","433302.715817","434069.773187","434819.398391","435585.931092","421769.604656","422536.069648","426419.484403","427186.013085","427952.774575","428719.157327","429486.470694","430235.825061","431002.34354","431769.141204","434823.914807","Mapping"
"Mixed","Both","done","44","m160done.wav","None","732.444704976","183","425669.995236","432536.028528","433302.715817","434069.773187","434819.398391","435585.931092","436352.656718","422536.069648","426419.484403","427186.013085","427952.774575","428719.157327","429486.470694","430235.825061","431002.34354","431769.141204","435595.634523","Mapping"
"Mixed","Both","done","44","m150lash.wav","space","650.217055576","183","425669.995236","432536.028528","433302.715817","434069.773187","434819.398391","435585.931092","436352.656718","437119.044726","426419.484403","427186.013085","427952.774575","428719.157327","429486.470694","430235.825061","431002.34354","431769.141204","436362.844934","Mapping"
"Mixed","Both","ball","11","m150park.wav","None","726.632540114","183","440236.310773","432536.028528","433302.715817","434069.773187","434819.398391","435585.931092","436352.656718","437119.044726","426419.484403","427186.013085","427952.774575","428719.157327","429486.470694","430235.825061","431002.34354","431769.141204","437128.419196","Mapping"
"Mixed","Both","ball","11","m160ball.wav","None","723.119084956","183","440236.310773","432536.028528","433302.715817","434069.773187","434819.398391","435585.931092","436352.656718","437119.044726","441003.046911","427186.013085","427952.774575","428719.157327","429486.470694","430235.825061","431002.34354","431769.141204","440246.240829","Mapping"
"Mixed","Both","ball","11","m160depth.wav","space","391.693665413","183","440236.310773","432536.028528","433302.715817","434069.773187","434819.398391","435585.931092","436352.656718","437119.044726","441003.046911","441769.658143","427952.774575","428719.157327","429486.470694","430235.825061","431002.34354","431769.141204","441013.306546","Mapping"
"Mixed","Both","ball","11","m150romp.wav","None","719.787424197","183","440236.310773","432536.028528","433302.715817","434069.773187","434819.398391","435585.931092","436352.656718","437119.044726","441003.046911","441769.658143","442519.251502","428719.157327","429486.470694","430235.825061","431002.34354","431769.141204","441779.652198","Mapping"
"Mixed","Both","ball","11","m160park.wav","None","733.47456404","183","440236.310773","432536.028528","433302.715817","434069.773187","434819.398391","435585.931092","436352.656718","437119.044726","441003.046911","441769.658143","442519.251502","443285.687741","429486.470694","430235.825061","431002.34354","431769.141204","442529.515156","Mapping"
"Mixed","Both","ball","11","m150ball.wav","None","735.1475053","183","440236.310773","432536.028528","433302.715817","434069.773187","434819.398391","435585.931092","436352.656718","437119.044726","441003.046911","441769.658143","442519.251502","443285.687741","444052.581558","430235.825061","431002.34354","431769.141204","443295.423635","Mapping"
"Mixed","Both","ball","11","m160bluff.wav","space","430.469051003","183","440236.310773","432536.028528","433302.715817","434069.773187","434819.398391","435585.931092","436352.656718","437119.044726","441003.046911","441769.658143","442519.251502","443285.687741","444052.581558","444819.220615","431002.34354","431769.141204","444062.508522","Mapping"
"Mixed","Both","ball","11","m160ball.wav","None","729.192192899","183","440236.310773","432536.028528","433302.715817","434069.773187","434819.398391","435585.931092","436352.656718","437119.044726","441003.046911","441769.658143","442519.251502","443285.687741","444052.581558","444819.220615","445585.787017","431769.141204","444828.936722","Mapping"
"Mixed","Both","ball","11","m160park.wav","None","726.030887105","183","440236.310773","432536.028528","433302.715817","434069.773187","434819.398391","435585.931092","436352.656718","437119.044726","441003.046911","441769.658143","442519.251502","443285.687741","444052.581558","444819.220615","445585.787017","446352.941777","445595.764376","Mapping"
"Mixed","Both","ball","11","m150jaw.wav","space","121.525230352","183","440236.310773","447119.484372","433302.715817","434069.773187","434819.398391","435585.931092","436352.656718","437119.044726","441003.046911","441769.658143","442519.251502","443285.687741","444052.581558","444819.220615","445585.787017","446352.941777","446363.421544","Mapping"
"Mixed","Both","ball","11","m160greet.wav","None","718.863302842","183","440236.310773","447119.484372","447869.151623","434069.773187","434819.398391","435585.931092","436352.656718","437119.044726","441003.046911","441769.658143","442519.251502","443285.687741","444052.581558","444819.220615","445585.787017","446352.941777","447129.633013","Mapping"
"Mixed","Both","ball","11","m160reek.wav","None","733.075111173","183","440236.310773","447119.484372","447869.151623","448635.751725","434819.398391","435585.931092","436352.656718","437119.044726","441003.046911","441769.658143","442519.251502","443285.687741","444052.581558","444819.220615","445585.787017","446352.941777","447879.211532","Mapping"
"Mixed","Both","ball","11","m150knife.wav","None","730.553795816","183","440236.310773","447119.484372","447869.151623","448635.751725","449402.433757","435585.931092","436352.656718","437119.044726","441003.046911","441769.658143","442519.251502","443285.687741","444052.581558","444819.220615","445585.787017","446352.941777","448645.628911","Mapping"
"Mixed","Both","ball","11","m150priest.wav","None","727.4005285","183","440236.310773","447119.484372","447869.151623","448635.751725","449402.433757","450168.911426","436352.656718","437119.044726","441003.046911","441769.658143","442519.251502","443285.687741","444052.581558","444819.220615","445585.787017","446352.941777","449412.491811","Mapping"
"Mixed","Both","ball","11","m150ball.wav","None","725.846000947","183","440236.310773","447119.484372","447869.151623","448635.751725","449402.433757","450168.911426","450936.071751","437119.044726","441003.046911","441769.658143","442519.251502","443285.687741","444052.581558","444819.220615","445585.787017","446352.941777","450178.364116","Mapping"
"Mixed","Both","ball","11","m150gnash.wav","space","498.678125907","183","440236.310773","447119.484372","447869.151623","448635.751725","449402.433757","450168.911426","450936.071751","451702.963403","441003.046911","441769.658143","442519.251502","443285.687741","444052.581558","444819.220615","445585.787017","446352.941777","450946.160413","Mapping"
"Mixed","Both","tile","32","m160cad.wav","None","718.623692635","183","454819.441675","447119.484372","447869.151623","448635.751725","449402.433757","450168.911426","450936.071751","451702.963403","441003.046911","441769.658143","442519.251502","443285.687741","444052.581558","444819.220615","445585.787017","446352.941777","451713.321975","Mapping"
"Mixed","Both","tile","32","m160tile.wav","None","719.136612723","183","454819.441675","447119.484372","447869.151623","448635.751725","449402.433757","450168.911426","450936.071751","451702.963403","455569.064714","441769.658143","442519.251502","443285.687741","444052.581558","444819.220615","445585.787017","446352.941777","454829.579186","Mapping"
"Mixed","Both","tile","32","m160cling.wav","space","473.553088028","183","454819.441675","447119.484372","447869.151623","448635.751725","449402.433757","450168.911426","450936.071751","451702.963403","455569.064714","456335.636063","442519.251502","443285.687741","444052.581558","444819.220615","445585.787017","446352.941777","455579.223559","Mapping"
"Mixed","Both","tile","32","m150romp.wav","None","730.389315169","183","454819.441675","447119.484372","447869.151623","448635.751725","449402.433757","450168.911426","450936.071751","451702.963403","455569.064714","456335.636063","457102.391988","443285.687741","444052.581558","444819.220615","445585.787017","446352.941777","456345.593325","Mapping"
"Mixed","Both","tile","32","m160knife.wav","None","727.386306506","183","454819.441675","447119.484372","447869.151623","448635.751725","449402.433757","450168.911426","450936.071751","451702.963403","455569.064714","456335.636063","457102.391988","457869.099373","444052.581558","444819.220615","445585.787017","446352.941777","457112.284943","Mapping"
"Mixed","Both","tile","32","m150cling.wav","None","724.465229083","183","454819.441675","447119.484372","447869.151623","448635.751725","449402.433757","450168.911426","450936.071751","451702.963403","455569.064714","456335.636063","457102.391988","457869.099373","458635.545196","444819.220615","445585.787017","446352.941777","457879.032211","Mapping"
"Mixed","Both","tile","32","m150cave.wav","None","726.056857733","183","454819.441675","447119.484372","447869.151623","448635.751725","449402.433757","450168.911426","450936.071751","451702.963403","455569.064714","456335.636063","457102.391988","457869.099373","458635.545196","459402.775086","445585.787017","446352.941777","458645.364567","Mapping"
"Mixed","Both","tile","32","m160depth.wav","None","722.248141421","183","454819.441675","447119.484372","447869.151623","448635.751725","449402.433757","450168.911426","450936.071751","451702.963403","455569.064714","456335.636063","457102.391988","457869.099373","458635.545196","459402.775086","460169.283981","446352.941777","459413.043377","Mapping"
"Mixed","Both","tile","32","m160tile.wav","None","719.544413267","183","454819.441675","447119.484372","447869.151623","448635.751725","449402.433757","450168.911426","450936.071751","451702.963403","455569.064714","456335.636063","457102.391988","457869.099373","458635.545196","459402.775086","460169.283981","460918.992352","460179.702222","Mapping"
"Mixed","Both","tile","32","m150cling.wav","space","532.040799735","183","454819.441675","461685.455799","447869.151623","448635.751725","449402.433757","450168.911426","450936.071751","451702.963403","455569.064714","456335.636063","457102.391988","457869.099373","458635.545196","459402.775086","460169.283981","460918.992352","460928.660846","Mapping"
"Mixed","Both","tile","32","m150knife.wav","None","732.19767469","183","454819.441675","461685.455799","462452.304476","448635.751725","449402.433757","450168.911426","450936.071751","451702.963403","455569.064714","456335.636063","457102.391988","457869.099373","458635.545196","459402.775086","460169.283981","460918.992352","461694.914364","Mapping"
"Mixed","Both","tile","32","m150tile.wav","None","728.850555606","183","454819.441675","461685.455799","462452.304476","463219.007223","449402.433757","450168.911426","450936.071751","451702.963403","455569.064714","456335.636063","457102.391988","457869.099373","458635.545196","459402.775086","460169.283981","460918.992352","462462.196503","Mapping"
"Mixed","Both","tile","32","m160cave.wav","None","729.025548091","183","454819.441675","461685.455799","462452.304476","463219.007223","463985.465723","450168.911426","450936.071751","451702.963403","455569.064714","456335.636063","457102.391988","457869.099373","458635.545196","459402.775086","460169.283981","460918.992352","463229.226666","Mapping"
"Mixed","Both","tile","32","m150tile.wav","None","726.801658282","183","454819.441675","461685.455799","462452.304476","463219.007223","463985.465723","464751.885267","450936.071751","451702.963403","455569.064714","456335.636063","457102.391988","457869.099373","458635.545196","459402.775086","460169.283981","460918.992352","463995.504608","Mapping"
"Mixed","Both","tile","32","m150dime.wav","space","411.462260876","183","454819.441675","461685.455799","462452.304476","463219.007223","463985.465723","464751.885267","465518.972008","451702.963403","455569.064714","456335.636063","457102.391988","457869.099373","458635.545196","459402.775086","460169.283981","460918.992352","464761.218307","Mapping"
"Mixed","Both","tile","32","m160ball.wav","None","720.736279851","183","454819.441675","461685.455799","462452.304476","463219.007223","463985.465723","464751.885267","465518.972008","466268.516827","455569.064714","456335.636063","457102.391988","457869.099373","458635.545196","459402.775086","460169.283981","460918.992352","465528.481278","Mapping"
"Mixed","Both","ball","7","m160reek.wav","None","735.147196334","183","469402.533002","461685.455799","462452.304476","463219.007223","463985.465723","464751.885267","465518.972008","466268.516827","455569.064714","456335.636063","457102.391988","457869.099373","458635.545196","459402.775086","460169.283981","460918.992352","466278.001981","Mapping"
"Mixed","Both","ball","7","m150bluff.wav","None","718.392430572","183","469402.533002","461685.455799","462452.304476","463219.007223","463985.465723","464751.885267","465518.972008","466268.516827","470152.170573","456335.636063","457102.391988","457869.099373","458635.545196","459402.775086","460169.283981","460918.992352","469413.104594","Mapping"
"Mixed","Both","ball","7","m150jaw.wav","None","733.354913769","183","469402.533002","461685.455799","462452.304476","463219.007223","463985.465723","464751.885267","465518.972008","466268.516827","470152.170573","470918.658753","457102.391988","457869.099373","458635.545196","459402.775086","460169.283981","460918.992352","470161.93893","Mapping"
"Mixed","Both","ball","7","m150romp.wav","None","730.795569951","183","469402.533002","461685.455799","462452.304476","463219.007223","463985.465723","464751.885267","465518.972008","466268.516827","470152.170573","470918.658753","471685.364901","457869.099373","458635.545196","459402.775086","460169.283981","460918.992352","470928.224911","Mapping"
"Mixed","Both","ball","7","m150lash.wav","None","728.120286018","183","469402.533002","461685.455799","462452.304476","463219.007223","463985.465723","464751.885267","465518.972008","466268.516827","470152.170573","470918.658753","471685.364901","472452.12701","458635.545196","459402.775086","460169.283981","460918.992352","471695.044526","Mapping"
"Mixed","Both","ball","7","m160dime.wav","None","724.965163739","183","469402.533002","461685.455799","462452.304476","463219.007223","463985.465723","464751.885267","465518.972008","466268.516827","470152.170573","470918.658753","471685.364901","472452.12701","473219.125328","459402.775086","460169.283981","460918.992352","472461.909899","Mapping"
"Mixed","Both","ball","7","m150ball.wav","None","721.595474752","183","469402.533002","461685.455799","462452.304476","463219.007223","463985.465723","464751.885267","465518.972008","466268.516827","470152.170573","470918.658753","471685.364901","472452.12701","473219.125328","473985.708734","460169.283981","460918.992352","473229.431957","Mapping"
"Mixed","Both","ball","7","m150knife.wav","space","384.782077046","183","469402.533002","461685.455799","462452.304476","463219.007223","463985.465723","464751.885267","465518.972008","466268.516827","470152.170573","470918.658753","471685.364901","472452.12701","473219.125328","473985.708734","474735.328063","460918.992352","473995.770807","Mapping"
"Mixed","Both","ball","7","m160cave.wav","None","732.958243461","183","469402.533002","461685.455799","462452.304476","463219.007223","463985.465723","464751.885267","465518.972008","466268.516827","470152.170573","470918.658753","471685.364901","472452.12701","473219.125328","473985.708734","474735.328063","475501.785017","474744.960384","Mapping"
"Mixed","Both","ball","7","m150ball.wav","None","730.630471138","183","469402.533002","476268.759528","462452.304476","463219.007223","463985.465723","464751.885267","465518.972008","466268.516827","470152.170573","470918.658753","471685.364901","472452.12701","473219.125328","473985.708734","474735.328063","475501.785017","475511.15454","Mapping"
"Mixed","Both","ball","7","m150tile.wav","space","397.555607371","183","469402.533002","476268.759528","477035.670968","463219.007223","463985.465723","464751.885267","465518.972008","466268.516827","470152.170573","470918.658753","471685.364901","472452.12701","473219.125328","473985.708734","474735.328063","475501.785017","476278.902296","Mapping"
"Mixed","Both","ball","7","m160ball.wav","None","722.875146428","183","469402.533002","476268.759528","477035.670968","477802.359184","463985.465723","464751.885267","465518.972008","466268.516827","470152.170573","470918.658753","471685.364901","472452.12701","473219.125328","473985.708734","474735.328063","475501.785017","477045.774471","Mapping"
"Mixed","Both","ball","7","m160done.wav","space","575.627553975","183","469402.533002","476268.759528","477035.670968","477802.359184","478551.622036","464751.885267","465518.972008","466268.516827","470152.170573","470918.658753","471685.364901","472452.12701","473219.125328","473985.708734","474735.328063","475501.785017","477812.786701","Mapping"
"Mixed","Both","ball","7","m160ball.wav","None","736.712854123","183","469402.533002","476268.759528","477035.670968","477802.359184","478551.622036","479318.698884","465518.972008","466268.516827","470152.170573","470918.658753","471685.364901","472452.12701","473219.125328","473985.708734","474735.328063","475501.785017","478560.633844","Mapping"
"Mixed","Both","ball","7","m160bluff.wav","space","457.258991664","183","469402.533002","476268.759528","477035.670968","477802.359184","478551.622036","479318.698884","480085.236841","466268.516827","470152.170573","470918.658753","471685.364901","472452.12701","473219.125328","473985.708734","474735.328063","475501.785017","479323.191185","Mapping"
"Mixed","Both","ball","7","m160depth.wav","None","729.042243212","183","469402.533002","476268.759528","477035.670968","477802.359184","478551.622036","479318.698884","480085.236841","480852.006989","470152.170573","470918.658753","471685.364901","472452.12701","473219.125328","473985.708734","474735.328063","475501.785017","480095.336015","Mapping"
"Mixed","Both","ball","6","m150romp.wav","None","726.324911695","183","483968.830298","476268.759528","477035.670968","477802.359184","478551.622036","479318.698884","480085.236841","480852.006989","470152.170573","470918.658753","471685.364901","472452.12701","473219.125328","473985.708734","474735.328063","475501.785017","480861.913547","Mapping"
"Mixed","Both","ball","6","m160gnash.wav","None","724.746577675","183","483968.830298","476268.759528","477035.670968","477802.359184","478551.622036","479318.698884","480085.236841","480852.006989","484718.616273","470918.658753","471685.364901","472452.12701","473219.125328","473985.708734","474735.328063","475501.785017","483973.600237","Mapping"
"Mixed","Both","ball","6","m160ball.wav","None","733.89689601","183","483968.830298","476268.759528","477035.670968","477802.359184","478551.622036","479318.698884","480085.236841","480852.006989","484718.616273","485485.184838","471685.364901","472452.12701","473219.125328","473985.708734","474735.328063","475501.785017","484728.379065","Mapping"
"Mixed","Both","ball","6","m150jolt.wav","space","701.351987664","183","483968.830298","476268.759528","477035.670968","477802.359184","478551.622036","479318.698884","480085.236841","480852.006989","484718.616273","485485.184838","486251.929943","472452.12701","473219.125328","473985.708734","474735.328063","475501.785017","485494.968036","Mapping"
"Mixed","Both","ball","6","m160jaw.wav","None","727.050852729","183","483968.830298","476268.759528","477035.670968","477802.359184","478551.622036","479318.698884","480085.236841","480852.006989","484718.616273","485485.184838","486251.929943","487018.286105","473219.125328","473985.708734","474735.328063","475501.785017","486262.129598","Mapping"
"Mixed","Both","ball","6","m160dime.wav","None","725.557541475","183","483968.830298","476268.759528","477035.670968","477802.359184","478551.622036","479318.698884","480085.236841","480852.006989","484718.616273","485485.184838","486251.929943","487018.286105","487785.514449","473985.708734","474735.328063","475501.785017","487027.555147","Mapping"
"Mixed","Both","ball","6","m160lash.wav","None","721.443979535","183","483968.830298","476268.759528","477035.670968","477802.359184","478551.622036","479318.698884","480085.236841","480852.006989","484718.616273","485485.184838","486251.929943","487018.286105","487785.514449","488552.279649","474735.328063","475501.785017","487795.626299","Mapping"
"Mixed","Both","ball","6","m150knife.wav","None","718.512080843","183","483968.830298","476268.759528","477035.670968","477802.359184","478551.622036","479318.698884","480085.236841","480852.006989","484718.616273","485485.184838","486251.929943","487018.286105","487785.514449","488552.279649","489301.851675","475501.785017","488562.536193","Mapping"
"Mixed","Both","ball","6","m150ball.wav","None","733.128598193","183","483968.830298","476268.759528","477035.670968","477802.359184","478551.622036","479318.698884","480085.236841","480852.006989","484718.616273","485485.184838","486251.929943","487018.286105","487785.514449","488552.279649","489301.851675","490068.580393","489312.034944","Mapping"
"Mixed","Both","ball","6","m160jolt.wav","space","0.0936796423048","183","483968.830298","490835.054042","477035.670968","477802.359184","478551.622036","479318.698884","480085.236841","480852.006989","484718.616273","485485.184838","486251.929943","487018.286105","487785.514449","488552.279649","489301.851675","490068.580393","490078.477985","Mapping"
"Mixed","Both","ball","6","m160ball.wav","None","728.035263019","183","483968.830298","490835.054042","491601.869638","477802.359184","478551.622036","479318.698884","480085.236841","480852.006989","484718.616273","485485.184838","486251.929943","487018.286105","487785.514449","488552.279649","489301.851675","490068.580393","490844.276089","Mapping"
"Mixed","Both","ball","6","m150jolt.wav","None","724.753997987","183","483968.830298","490835.054042","491601.869638","492369.044185","478551.622036","479318.698884","480085.236841","480852.006989","484718.616273","485485.184838","486251.929943","487018.286105","487785.514449","488552.279649","489301.851675","490068.580393","491611.512162","Mapping"
"Mixed","Both","ball","6","m150park.wav","space","0.0340093392879","183","483968.830298","490835.054042","491601.869638","492369.044185","493118.049494","479318.698884","480085.236841","480852.006989","484718.616273","485485.184838","486251.929943","487018.286105","487785.514449","488552.279649","489301.851675","490068.580393","492379.234874","Mapping"
"Mixed","Both","ball","6","m150knife.wav","None","735.16079993","183","483968.830298","490835.054042","491601.869638","492369.044185","493118.049494","493885.049358","480085.236841","480852.006989","484718.616273","485485.184838","486251.929943","487018.286105","487785.514449","488552.279649","489301.851675","490068.580393","493128.241112","Mapping"
"Mixed","Both","ball","6","m150ball.wav","None","732.838283759","183","483968.830298","490835.054042","491601.869638","492369.044185","493118.049494","493885.049358","494651.776221","480852.006989","484718.616273","485485.184838","486251.929943","487018.286105","487785.514449","488552.279649","489301.851675","490068.580393","493894.558628","Mapping"
"Mixed","Both","ball","6","m160romp.wav","space","638.658889104","183","483968.830298","490835.054042","491601.869638","492369.044185","493118.049494","493885.049358","494651.776221","495418.475877","484718.616273","485485.184838","486251.929943","487018.286105","487785.514449","488552.279649","489301.851675","490068.580393","494661.580133","Mapping"
"Mixed","Both","tile","30","m150cling.wav","None","729.516825872","183","498552.192153","490835.054042","491601.869638","492369.044185","493118.049494","493885.049358","494651.776221","495418.475877","484718.616273","485485.184838","486251.929943","487018.286105","487785.514449","488552.279649","489301.851675","490068.580393","495428.332658","Mapping"
"Mixed","Both","tile","30","m150cad.wav","None","719.845239772","183","498552.192153","490835.054042","491601.869638","492369.044185","493118.049494","493885.049358","494651.776221","495418.475877","499301.545284","485485.184838","486251.929943","487018.286105","487785.514449","488552.279649","489301.851675","490068.580393","498562.389026","Mapping"
"Mixed","Both","tile","30","m160dime.wav","None","734.681579983","183","498552.192153","490835.054042","491601.869638","492369.044185","493118.049494","493885.049358","494651.776221","495418.475877","499301.545284","500068.610692","486251.929943","487018.286105","487785.514449","488552.279649","489301.851675","490068.580393","499311.713094","Mapping"
"Mixed","Both","tile","30","m160greet.wav","None","732.128729112","183","498552.192153","490835.054042","491601.869638","492369.044185","493118.049494","493885.049358","494651.776221","495418.475877","499301.545284","500068.610692","500834.89018","487018.286105","487785.514449","488552.279649","489301.851675","490068.580393","500078.358644","Mapping"
"Mixed","Both","tile","30","m150jaw.wav","None","730.013359338","183","498552.192153","490835.054042","491601.869638","492369.044185","493118.049494","493885.049358","494651.776221","495418.475877","499301.545284","500068.610692","500834.89018","501601.678568","487785.514449","488552.279649","489301.851675","490068.580393","500844.49282","Mapping"
"Mixed","Both","tile","30","m160tile.wav","None","726.995510515","183","498552.192153","490835.054042","491601.869638","492369.044185","493118.049494","493885.049358","494651.776221","495418.475877","499301.545284","500068.610692","500834.89018","501601.678568","502368.392755","488552.279649","489301.851675","490068.580393","501611.403332","Mapping"
"Mixed","Both","tile","30","m160jolt.wav","space","457.695854828","183","498552.192153","490835.054042","491601.869638","492369.044185","493118.049494","493885.049358","494651.776221","495418.475877","499301.545284","500068.610692","500834.89018","501601.678568","502368.392755","503135.32862","489301.851675","490068.580393","502378.411235","Mapping"
"Mixed","Both","tile","30","m160tile.wav","None","720.445655985","183","498552.192153","490835.054042","491601.869638","492369.044185","493118.049494","493885.049358","494651.776221","495418.475877","499301.545284","500068.610692","500834.89018","501601.678568","502368.392755","503135.32862","503885.145202","490068.580393","503145.809314","Mapping"
"Mixed","Both","tile","30","m160lash.wav","None","735.49594474","183","498552.192153","490835.054042","491601.869638","492369.044185","493118.049494","493885.049358","494651.776221","495418.475877","499301.545284","500068.610692","500834.89018","501601.678568","502368.392755","503135.32862","503885.145202","504651.623489","503894.803185","Mapping"
"Mixed","Both","tile","30","m150depth.wav","space","150.780525524","183","498552.192153","505418.292846","491601.869638","492369.044185","493118.049494","493885.049358","494651.776221","495418.475877","499301.545284","500068.610692","500834.89018","501601.678568","502368.392755","503135.32862","503885.145202","504651.623489","504661.256119","Mapping"
"Mixed","Both","tile","30","m150tile.wav","None","729.369658744","183","498552.192153","505418.292846","506184.893874","492369.044185","493118.049494","493885.049358","494651.776221","495418.475877","499301.545284","500068.610692","500834.89018","501601.678568","502368.392755","503135.32862","503885.145202","504651.623489","505428.086246","Mapping"
"Mixed","Both","tile","30","m150bluff.wav","space","489.125881111","183","498552.192153","505418.292846","506184.893874","506952.104286","493118.049494","493885.049358","494651.776221","495418.475877","499301.545284","500068.610692","500834.89018","501601.678568","502368.392755","503135.32862","503885.145202","504651.623489","506194.900605","Mapping"
"Mixed","Both","tile","30","m160ball.wav","None","722.700772341","183","498552.192153","505418.292846","506184.893874","506952.104286","507718.578553","493885.049358","494651.776221","495418.475877","499301.545284","500068.610692","500834.89018","501601.678568","502368.392755","503135.32862","503885.145202","504651.623489","506962.414626","Mapping"
"Mixed","Both","tile","30","m150knife.wav","None","720.362178981","183","498552.192153","505418.292846","506184.893874","506952.104286","507718.578553","508468.159854","494651.776221","495418.475877","499301.545284","500068.610692","500834.89018","501601.678568","502368.392755","503135.32862","503885.145202","504651.623489","507728.832314","Mapping"
"Mixed","Both","tile","30","m150tile.wav","None","735.533354804","183","498552.192153","505418.292846","506184.893874","506952.104286","507718.578553","508468.159854","509234.757792","495418.475877","499301.545284","500068.610692","500834.89018","501601.678568","502368.392755","503135.32862","503885.145202","504651.623489","508477.894821","Mapping"
"Mixed","Both","tile","30","m160park.wav","space","495.841143886","183","498552.192153","505418.292846","506184.893874","506952.104286","507718.578553","508468.159854","509234.757792","510001.543707","499301.545284","500068.610692","500834.89018","501601.678568","502368.392755","503135.32862","503885.145202","504651.623489","509244.115256","Mapping"
"Mixed","Both","done","47","m160jolt.wav","None","729.247225914","183","513134.978944","505418.292846","506184.893874","506952.104286","507718.578553","508468.159854","509234.757792","510001.543707","499301.545284","500068.610692","500834.89018","501601.678568","502368.392755","503135.32862","503885.145202","504651.623489","510011.500351","Mapping"
"Mixed","Both","done","47","m150cave.wav","None","720.375473611","183","513134.978944","505418.292846","506184.893874","506952.104286","507718.578553","508468.159854","509234.757792","510001.543707","513884.55468","500068.610692","500834.89018","501601.678568","502368.392755","503135.32862","503885.145202","504651.623489","513144.431634","Mapping"
"Mixed","Both","done","47","m150done.wav","None","734.819471836","183","513134.978944","505418.292846","506184.893874","506952.104286","507718.578553","508468.159854","509234.757792","510001.543707","513884.55468","514651.186008","500834.89018","501601.678568","502368.392755","503135.32862","503885.145202","504651.623489","513893.973052","Mapping"
"Mixed","Both","done","47","m150greet.wav","space","391.452818643","183","513134.978944","505418.292846","506184.893874","506952.104286","507718.578553","508468.159854","509234.757792","510001.543707","513884.55468","514651.186008","515418.162992","501601.678568","502368.392755","503135.32862","503885.145202","504651.623489","514660.438353","Mapping"
"Mixed","Both","done","47","m160gnash.wav","None","727.720214752","183","513134.978944","505418.292846","506184.893874","506952.104286","507718.578553","508468.159854","509234.757792","510001.543707","513884.55468","514651.186008","515418.162992","516184.774533","502368.392755","503135.32862","503885.145202","504651.623489","515428.180544","Mapping"
"Mixed","Both","done","47","m160done.wav","None","725.244038738","183","513134.978944","505418.292846","506184.893874","506952.104286","507718.578553","508468.159854","509234.757792","510001.543707","513884.55468","514651.186008","515418.162992","516184.774533","516951.501087","503135.32862","503885.145202","504651.623489","516194.776627","Mapping"
"Mixed","Both","done","47","m160jaw.wav","space","394.118827302","183","513134.978944","505418.292846","506184.893874","506952.104286","507718.578553","508468.159854","509234.757792","510001.543707","513884.55468","514651.186008","515418.162992","516184.774533","516951.501087","517718.56495","503885.145202","504651.623489","516961.776181","Mapping"
"Mixed","Both","done","47","m150priest.wav","None","719.212051248","183","513134.978944","505418.292846","506184.893874","506952.104286","507718.578553","508468.159854","509234.757792","510001.543707","513884.55468","514651.186008","515418.162992","516184.774533","516951.501087","517718.56495","518467.982079","504651.623489","517728.640935","Mapping"
"Mixed","Both","done","47","m160knife.wav","None","734.369314043","183","513134.978944","505418.292846","506184.893874","506952.104286","507718.578553","508468.159854","509234.757792","510001.543707","513884.55468","514651.186008","515418.162992","516184.774533","516951.501087","517718.56495","518467.982079","519234.567959","518477.648409","Mapping"
"Mixed","Both","done","47","m150done.wav","None","732.57641308","183","513134.978944","520001.458993","506184.893874","506952.104286","507718.578553","508468.159854","509234.757792","510001.543707","513884.55468","514651.186008","515418.162992","516184.774533","516951.501087","517718.56495","518467.982079","519234.567959","519244.036108","Mapping"
"Mixed","Both","done","47","m160gnash.wav","space","527.777906507","183","513134.978944","520001.458993","520768.098359","506952.104286","507718.578553","508468.159854","509234.757792","510001.543707","513884.55468","514651.186008","515418.162992","516184.774533","516951.501087","517718.56495","518467.982079","519234.567959","520012.032131","Mapping"
"Mixed","Both","done","47","m150jaw.wav","None","726.171870483","183","513134.978944","520001.458993","520768.098359","521535.126358","507718.578553","508468.159854","509234.757792","510001.543707","513884.55468","514651.186008","515418.162992","516184.774533","516951.501087","517718.56495","518467.982079","519234.567959","520777.69729","Mapping"
"Mixed","Both","done","47","m150cave.wav","None","722.745911917","183","513134.978944","520001.458993","520768.098359","521535.126358","522301.764488","508468.159854","509234.757792","510001.543707","513884.55468","514651.186008","515418.162992","516184.774533","516951.501087","517718.56495","518467.982079","519234.567959","521545.089186","Mapping"
"Mixed","Both","done","47","m160lash.wav","None","720.828722697","183","513134.978944","520001.458993","520768.098359","521535.126358","522301.764488","523051.713397","509234.757792","510001.543707","513884.55468","514651.186008","515418.162992","516184.774533","516951.501087","517718.56495","518467.982079","519234.567959","522311.985476","Mapping"
"Mixed","Both","done","47","m160done.wav","None","735.283542192","183","513134.978944","520001.458993","520768.098359","521535.126358","522301.764488","523051.713397","523818.042662","510001.543707","513884.55468","514651.186008","515418.162992","516184.774533","516951.501087","517718.56495","518467.982079","519234.567959","523061.698176","Mapping"
"Mixed","Both","done","47","m150depth.wav","space","488.059230382","183","513134.978944","520001.458993","520768.098359","521535.126358","522301.764488","523051.713397","523818.042662","524584.58031","513884.55468","514651.186008","515418.162992","516184.774533","516951.501087","517718.56495","518467.982079","519234.567959","523827.708992","Mapping"
"Mixed","Both","ball","1","m160jaw.wav","None","730.523805832","183","527718.211255","520001.458993","520768.098359","521535.126358","522301.764488","523051.713397","523818.042662","524584.58031","513884.55468","514651.186008","515418.162992","516184.774533","516951.501087","517718.56495","518467.982079","519234.567959","524593.67776","Mapping"
"Mixed","Both","ball","1","m160greet.wav","None","719.055299647","183","527718.211255","520001.458993","520768.098359","521535.126358","522301.764488","523051.713397","523818.042662","524584.58031","528467.901694","514651.186008","515418.162992","516184.774533","516951.501087","517718.56495","518467.982079","519234.567959","527728.495624","Mapping"
"Mixed","Both","ball","1","m160tile.wav","None","732.818805613","183","527718.211255","520001.458993","520768.098359","521535.126358","522301.764488","523051.713397","523818.042662","524584.58031","528467.901694","529234.838177","515418.162992","516184.774533","516951.501087","517718.56495","518467.982079","519234.567959","528478.92468","Mapping"
"Mixed","Both","ball","1","m150reek.wav","None","731.531095225","183","527718.211255","520001.458993","520768.098359","521535.126358","522301.764488","523051.713397","523818.042662","524584.58031","528467.901694","529234.838177","530001.289256","516184.774533","516951.501087","517718.56495","518467.982079","519234.567959","529244.287467","Mapping"
"Mixed","Both","ball","1","m150depth.wav","None","728.395760292","183","527718.211255","520001.458993","520768.098359","521535.126358","522301.764488","523051.713397","523818.042662","524584.58031","528467.901694","529234.838177","530001.289256","530767.650675","516951.501087","517718.56495","518467.982079","519234.567959","530011.540235","Mapping"
"Mixed","Both","ball","1","m160lash.wav","None","727.437938564","183","527718.211255","520001.458993","520768.098359","521535.126358","522301.764488","523051.713397","523818.042662","524584.58031","528467.901694","529234.838177","530001.289256","530767.650675","531534.482348","517718.56495","518467.982079","519234.567959","530776.739159","Mapping"
"Mixed","Both","ball","1","m150cave.wav","None","724.861590657","183","527718.211255","520001.458993","520768.098359","521535.126358","522301.764488","523051.713397","523818.042662","524584.58031","528467.901694","529234.838177","530001.289256","530767.650675","531534.482348","532301.267954","518467.982079","519234.567959","531543.565267","Mapping"
"Mixed","Both","ball","1","m150ball.wav","None","722.377376165","183","527718.211255","520001.458993","520768.098359","521535.126358","522301.764488","523051.713397","523818.042662","524584.58031","528467.901694","529234.838177","530001.289256","530767.650675","531534.482348","532301.267954","533068.259779","519234.567959","532310.749089","Mapping"
"Mixed","Both","ball","1","m150priest.wav","space","412.707305048","183","527718.211255","520001.458993","520768.098359","521535.126358","522301.764488","523051.713397","523818.042662","524584.58031","528467.901694","529234.838177","530001.289256","530767.650675","531534.482348","532301.267954","533068.259779","533817.995667","533078.920414","Mapping"
"Mixed","Both","ball","1","m160depth.wav","None","733.161061537","183","527718.211255","534584.45324","520768.098359","521535.126358","522301.764488","523051.713397","523818.042662","524584.58031","528467.901694","529234.838177","530001.289256","530767.650675","531534.482348","532301.267954","533068.259779","533817.995667","533827.886767","Mapping"
"Mixed","Both","ball","1","m160ball.wav","None","731.381454971","183","527718.211255","534584.45324","535351.243792","521535.126358","522301.764488","523051.713397","523818.042662","524584.58031","528467.901694","529234.838177","530001.289256","530767.650675","531534.482348","532301.267954","533068.259779","533817.995667","534593.871612","Mapping"
"Mixed","Both","ball","1","m150priest.wav","space","578.478757991","183","527718.211255","534584.45324","535351.243792","536117.90882","522301.764488","523051.713397","523818.042662","524584.58031","528467.901694","529234.838177","530001.289256","530767.650675","531534.482348","532301.267954","533068.259779","533817.995667","535361.139839","Mapping"
"Mixed","Both","ball","1","m150ball.wav","None","724.526136415","183","527718.211255","534584.45324","535351.243792","536117.90882","536884.665982","523051.713397","523818.042662","524584.58031","528467.901694","529234.838177","530001.289256","530767.650675","531534.482348","532301.267954","533068.259779","533817.995667","536128.046641","Mapping"
"Mixed","Both","ball","1","m160priest.wav","None","722.927087685","183","527718.211255","534584.45324","535351.243792","536117.90882","536884.665982","537651.606175","523818.042662","524584.58031","528467.901694","529234.838177","530001.289256","530767.650675","531534.482348","532301.267954","533068.259779","533817.995667","536894.536676","Mapping"
"Mixed","Both","ball","1","m160ball.wav","space","0.0336999073625","183","527718.211255","534584.45324","535351.243792","536117.90882","536884.665982","537651.606175","538401.02516","524584.58031","528467.901694","529234.838177","530001.289256","530767.650675","531534.482348","532301.267954","533068.259779","533817.995667","537661.676905","Mapping"
"Mixed","Both","ball","1","m150romp.wav","space","528.94627559","183","527718.211255","534584.45324","535351.243792","536117.90882","536884.665982","537651.606175","538401.02516","539167.848794","528467.901694","529234.838177","530001.289256","530767.650675","531534.482348","532301.267954","533068.259779","533817.995667","538410.600593","Mapping"
"Mixed","Both","cave","17","m150ball.wav","None","730.421160115","183","542300.926935","534584.45324","535351.243792","536117.90882","536884.665982","537651.606175","538401.02516","539167.848794","528467.901694","529234.838177","530001.289256","530767.650675","531534.482348","532301.267954","533068.259779","533817.995667","539177.543568","Mapping"
"Mixed","Both","cave","17","m150romp.wav","space","669.201276498","183","542300.926935","534584.45324","535351.243792","536117.90882","536884.665982","537651.606175","538401.02516","539167.848794","543068.406328","529234.838177","530001.289256","530767.650675","531534.482348","532301.267954","533068.259779","533817.995667","542310.301405","Mapping"
"Mixed","Both","cave","17","m160cave.wav","None","718.525684439","183","542300.926935","534584.45324","535351.243792","536117.90882","536884.665982","537651.606175","538401.02516","539167.848794","543068.406328","543817.449047","530001.289256","530767.650675","531534.482348","532301.267954","533068.259779","533817.995667","543078.390489","Mapping"
"Mixed","Both","cave","17","m160depth.wav","space","696.950893383","183","542300.926935","534584.45324","535351.243792","536117.90882","536884.665982","537651.606175","538401.02516","539167.848794","543068.406328","543817.449047","544584.408718","530767.650675","531534.482348","532301.267954","533068.259779","533817.995667","543826.550516","Mapping"
"Mixed","Both","cave","17","m150romp.wav","None","730.215250049","183","542300.926935","534584.45324","535351.243792","536117.90882","536884.665982","537651.606175","538401.02516","539167.848794","543068.406328","543817.449047","544584.408718","545351.155987","531534.482348","532301.267954","533068.259779","533817.995667","544594.192225","Mapping"
"Mixed","Both","cave","17","m160lash.wav","None","727.236666484","183","542300.926935","534584.45324","535351.243792","536117.90882","536884.665982","537651.606175","538401.02516","539167.848794","543068.406328","543817.449047","544584.408718","545351.155987","546117.719606","532301.267954","533068.259779","533817.995667","545361.419641","Mapping"
"Mixed","Both","cave","17","m150tile.wav","None","725.45644152","183","542300.926935","534584.45324","535351.243792","536117.90882","536884.665982","537651.606175","538401.02516","539167.848794","543068.406328","543817.449047","544584.408718","545351.155987","546117.719606","546884.673093","533068.259779","533817.995667","546127.360584","Mapping"
"Mixed","Both","cave","17","m160cling.wav","None","721.518490463","183","542300.926935","534584.45324","535351.243792","536117.90882","536884.665982","537651.606175","538401.02516","539167.848794","543068.406328","543817.449047","544584.408718","545351.155987","546117.719606","546884.673093","547651.487452","533817.995667","546895.474402","Mapping"
"Mixed","Both","cave","17","m160romp.wav","None","720.521712909","183","542300.926935","534584.45324","535351.243792","536117.90882","536884.665982","537651.606175","538401.02516","539167.848794","543068.406328","543817.449047","544584.408718","545351.155987","546117.719606","546884.673093","547651.487452","548400.937663","547661.283017","Mapping"
"Mixed","Both","cave","17","m150cave.wav","None","735.47059251","183","542300.926935","549167.722651","535351.243792","536117.90882","536884.665982","537651.606175","538401.02516","539167.848794","543068.406328","543817.449047","544584.408718","545351.155987","546117.719606","546884.673093","547651.487452","548400.937663","548410.703238","Mapping"
"Mixed","Both","cave","17","m150cad.wav","space","426.011996577","183","542300.926935","549167.722651","549934.202175","536117.90882","536884.665982","537651.606175","538401.02516","539167.848794","543068.406328","543817.449047","544584.408718","545351.155987","546117.719606","546884.673093","547651.487452","548400.937663","549177.388672","Mapping"
"Mixed","Both","cave","17","m150cave.wav","None","729.371513706","183","542300.926935","549167.722651","549934.202175","550700.653563","536884.665982","537651.606175","538401.02516","539167.848794","543068.406328","543817.449047","544584.408718","545351.155987","546117.719606","546884.673093","547651.487452","548400.937663","549944.196229","Mapping"
"Mixed","Both","cave","17","m160jaw.wav","None","727.717122994","183","542300.926935","549167.722651","549934.202175","550700.653563","551467.642606","537651.606175","538401.02516","539167.848794","543068.406328","543817.449047","544584.408718","545351.155987","546117.719606","546884.673093","547651.487452","548400.937663","550710.037617","Mapping"
"Mixed","Both","cave","17","m160cave.wav","None","725.044003222","183","542300.926935","549167.722651","549934.202175","550700.653563","551467.642606","552234.396676","538401.02516","539167.848794","543068.406328","543817.449047","544584.408718","545351.155987","546117.719606","546884.673093","547651.487452","548400.937663","551477.184339","Mapping"
"Mixed","Both","cave","17","m160cad.wav","space","350.771992235","183","542300.926935","549167.722651","549934.202175","550700.653563","551467.642606","552234.396676","553001.005434","539167.848794","543068.406328","543817.449047","544584.408718","545351.155987","546117.719606","546884.673093","547651.487452","548400.937663","552244.590148","Mapping"
"Mixed","Both","cave","17","m150cad.wav","None","718.965948559","183","542300.926935","549167.722651","549934.202175","550700.653563","551467.642606","552234.396676","553001.005434","553750.544069","543068.406328","543817.449047","544584.408718","545351.155987","546117.719606","546884.673093","547651.487452","548400.937663","553010.907973","Mapping"
"Mixed","Both","tile","36","m150lash.wav","space","339.228666155","183","556884.559935","549167.722651","549934.202175","550700.653563","551467.642606","552234.396676","553001.005434","553750.544069","543068.406328","543817.449047","544584.408718","545351.155987","546117.719606","546884.673093","547651.487452","548400.937663","553760.142381","Mapping"
"Mixed","Both","tile","36","m160tile.wav","None","719.513495918","183","556884.559935","549167.722651","549934.202175","550700.653563","551467.642606","552234.396676","553001.005434","553750.544069","557634.024059","543817.449047","544584.408718","545351.155987","546117.719606","546884.673093","547651.487452","548400.937663","556894.68879","Mapping"
"Mixed","Both","tile","36","m150bluff.wav","space","575.449160533","183","556884.559935","549167.722651","549934.202175","550700.653563","551467.642606","552234.396676","553001.005434","553750.544069","557634.024059","558400.70671","544584.408718","545351.155987","546117.719606","546884.673093","547651.487452","548400.937663","557643.828281","Mapping"
"Mixed","Both","tile","36","m150tile.wav","None","731.703614583","183","556884.559935","549167.722651","549934.202175","550700.653563","551467.642606","552234.396676","553001.005434","553750.544069","557634.024059","558400.70671","559167.539311","545351.155987","546117.719606","546884.673093","547651.487452","548400.937663","558410.131266","Mapping"
"Mixed","Both","tile","36","m160priest.wav","None","729.079035111","183","556884.559935","549167.722651","549934.202175","550700.653563","551467.642606","552234.396676","553001.005434","553750.544069","557634.024059","558400.70671","559167.539311","559934.021617","546117.719606","546884.673093","547651.487452","548400.937663","559177.439067","Mapping"
"Mixed","Both","tile","36","m160tile.wav","None","727.711248444","183","556884.559935","549167.722651","549934.202175","550700.653563","551467.642606","552234.396676","553001.005434","553750.544069","557634.024059","558400.70671","559167.539311","559934.021617","560700.473933","546884.673093","547651.487452","548400.937663","559943.717319","Mapping"
"Mixed","Both","tile","36","m150romp.wav","space","372.943798546","183","556884.559935","549167.722651","549934.202175","550700.653563","551467.642606","552234.396676","553001.005434","553750.544069","557634.024059","558400.70671","559167.539311","559934.021617","560700.473933","561467.616017","547651.487452","548400.937663","560710.318966","Mapping"
"Mixed","Both","tile","36","m150done.wav","None","721.491592005","183","556884.559935","549167.722651","549934.202175","550700.653563","551467.642606","552234.396676","553001.005434","553750.544069","557634.024059","558400.70671","559167.539311","559934.021617","560700.473933","561467.616017","562234.497467","548400.937663","561477.721683","Mapping"
"Mixed","Both","tile","36","m150cad.wav","None","719.224727247","183","556884.559935","549167.722651","549934.202175","550700.653563","551467.642606","552234.396676","553001.005434","553750.544069","557634.024059","558400.70671","559167.539311","559934.021617","560700.473933","561467.616017","562234.497467","562984.039503","562244.493067","Mapping"
"Mixed","Both","tile","36","m150cad.wav","None","739.943724126","183","556884.559935","563750.53263","549934.202175","550700.653563","551467.642606","552234.396676","553001.005434","553750.544069","557634.024059","558400.70671","559167.539311","559934.021617","560700.473933","561467.616017","562234.497467","562984.039503","562988.193257","Mapping"
"Mixed","Both","tile","36","m160cad.wav","None","732.312378474","183","556884.559935","563750.53263","564517.452417","550700.653563","551467.642606","552234.396676","553001.005434","553750.544069","557634.024059","558400.70671","559167.539311","559934.021617","560700.473933","561467.616017","562234.497467","562984.039503","563760.308717","Mapping"
"Mixed","Both","tile","36","m160cad.wav","None","729.597829282","183","556884.559935","563750.53263","564517.452417","565283.953583","551467.642606","552234.396676","553001.005434","553750.544069","557634.024059","558400.70671","559167.539311","559934.021617","560700.473933","561467.616017","562234.497467","562984.039503","564527.429468","Mapping"
"Mixed","Both","tile","36","m160depth.wav","None","728.301153053","183","556884.559935","563750.53263","564517.452417","565283.953583","566050.689721","552234.396676","553001.005434","553750.544069","557634.024059","558400.70671","559167.539311","559934.021617","560700.473933","561467.616017","562234.497467","562984.039503","565293.149968","Mapping"
"Mixed","Both","tile","36","m160knife.wav","None","725.311129587","183","556884.559935","563750.53263","564517.452417","565283.953583","566050.689721","566817.75513","553001.005434","553750.544069","557634.024059","558400.70671","559167.539311","559934.021617","560700.473933","561467.616017","562234.497467","562984.039503","566060.648839","Mapping"
"Mixed","Both","tile","36","m150tile.wav","None","721.89011774","183","556884.559935","563750.53263","564517.452417","565283.953583","566050.689721","566817.75513","567584.111602","553750.544069","557634.024059","558400.70671","559167.539311","559934.021617","560700.473933","561467.616017","562234.497467","562984.039503","566828.500787","Mapping"
"Mixed","Both","tile","36","m160cling.wav","space","433.380853385","183","556884.559935","563750.53263","564517.452417","565283.953583","566050.689721","566817.75513","567584.111602","568333.794621","557634.024059","558400.70671","559167.539311","559934.021617","560700.473933","561467.616017","562234.497467","562984.039503","567593.722281","Mapping"
"Mixed","Both","done","37","m150reek.wav","None","734.909132123","183","571467.796265","563750.53263","564517.452417","565283.953583","566050.689721","566817.75513","567584.111602","568333.794621","557634.024059","558400.70671","559167.539311","559934.021617","560700.473933","561467.616017","562234.497467","562984.039503","568342.959471","Mapping"
"Mixed","Both","done","37","m150done.wav","None","719.380241819","183","571467.796265","563750.53263","564517.452417","565283.953583","566050.689721","566817.75513","567584.111602","568333.794621","572217.153106","558400.70671","559167.539311","559934.021617","560700.473933","561467.616017","562234.497467","562984.039503","571477.790629","Mapping"
"Mixed","Both","done","37","m150greet.wav","space","399.958509021","183","571467.796265","563750.53263","564517.452417","565283.953583","566050.689721","566817.75513","567584.111602","568333.794621","572217.153106","572983.724454","559167.539311","559934.021617","560700.473933","561467.616017","562234.497467","562984.039503","572227.085016","Mapping"
"Mixed","Both","done","37","m160gnash.wav","None","731.360431295","183","571467.796265","563750.53263","564517.452417","565283.953583","566050.689721","566817.75513","567584.111602","568333.794621","572217.153106","572983.724454","573750.619508","559934.021617","560700.473933","561467.616017","562234.497467","562984.039503","572993.475498","Mapping"
"Mixed","Both","done","37","m150knife.wav","None","728.475527139","183","571467.796265","563750.53263","564517.452417","565283.953583","566050.689721","566817.75513","567584.111602","568333.794621","572217.153106","572983.724454","573750.619508","574517.407278","560700.473933","561467.616017","562234.497467","562984.039503","573760.767222","Mapping"
"Mixed","Both","done","37","m160lash.wav","None","726.623883005","183","571467.796265","563750.53263","564517.452417","565283.953583","566050.689721","566817.75513","567584.111602","568333.794621","572217.153106","572983.724454","573750.619508","574517.407278","575283.630496","561467.616017","562234.497467","562984.039503","574527.221393","Mapping"
"Mixed","Both","done","37","m160gnash.wav","None","725.33648205","183","571467.796265","563750.53263","564517.452417","565283.953583","566050.689721","566817.75513","567584.111602","568333.794621","572217.153106","572983.724454","573750.619508","574517.407278","575283.630496","576050.738262","562234.497467","562984.039503","575292.893663","Mapping"
"Mixed","Both","done","37","m150dime.wav","None","721.326802392","183","571467.796265","563750.53263","564517.452417","565283.953583","566050.689721","566817.75513","567584.111602","568333.794621","572217.153106","572983.724454","573750.619508","574517.407278","575283.630496","576050.738262","576817.235099","562984.039503","576061.3485","Mapping"
"Mixed","Both","done","37","m160reek.wav","None","720.323841553","183","571467.796265","563750.53263","564517.452417","565283.953583","566050.689721","566817.75513","567584.111602","568333.794621","572217.153106","572983.724454","573750.619508","574517.407278","575283.630496","576050.738262","576817.235099","577567.0186","576826.918124","Mapping"
"Mixed","Both","done","37","m160reek.wav","None","734.628711129","183","571467.796265","578333.760303","564517.452417","565283.953583","566050.689721","566817.75513","567584.111602","568333.794621","572217.153106","572983.724454","573750.619508","574517.407278","575283.630496","576050.738262","576817.235099","577567.0186","577576.952056","Mapping"
"Mixed","Both","done","37","m150done.wav","None","733.099535806","183","571467.796265","578333.760303","579100.160987","565283.953583","566050.689721","566817.75513","567584.111602","568333.794621","572217.153106","572983.724454","573750.619508","574517.407278","575283.630496","576050.738262","576817.235099","577567.0186","578342.90753","Mapping"
"Mixed","Both","done","37","m150dime.wav","None","730.738991173","183","571467.796265","578333.760303","579100.160987","579867.229796","566050.689721","566817.75513","567584.111602","568333.794621","572217.153106","572983.724454","573750.619508","574517.407278","575283.630496","576050.738262","576817.235099","577567.0186","579109.728072","Mapping"
"Mixed","Both","done","37","m160done.wav","space","117.79040657","183","571467.796265","578333.760303","579100.160987","579867.229796","580633.760952","566817.75513","567584.111602","568333.794621","572217.153106","572983.724454","573750.619508","574517.407278","575283.630496","576050.738262","576817.235099","577567.0186","579877.176547","Mapping"
"Mixed","Both","done","37","m160park.wav","None","724.677941063","183","571467.796265","578333.760303","579100.160987","579867.229796","580633.760952","581401.153158","567584.111602","568333.794621","572217.153106","572983.724454","573750.619508","574517.407278","575283.630496","576050.738262","576817.235099","577567.0186","580643.641849","Mapping"
"Mixed","Both","done","37","m160done.wav","None","721.958445152","183","571467.796265","578333.760303","579100.160987","579867.229796","580633.760952","581401.153158","582167.058236","568333.794621","572217.153106","572983.724454","573750.619508","574517.407278","575283.630496","576050.738262","576817.235099","577567.0186","581411.139483","Mapping"
"Mixed","Both","done","37","m150bluff.wav","space","362.227204023","183","571467.796265","578333.760303","579100.160987","579867.229796","580633.760952","581401.153158","582167.058236","582917.178118","572217.153106","572983.724454","573750.619508","574517.407278","575283.630496","576050.738262","576817.235099","577567.0186","582176.701069","Mapping"
"Mixed","Both","done","45","m150greet.wav","None","733.822694281","183","586050.837507","578333.760303","579100.160987","579867.229796","580633.760952","581401.153158","582167.058236","582917.178118","572217.153106","572983.724454","573750.619508","574517.407278","575283.630496","576050.738262","576817.235099","577567.0186","582926.925452","Mapping"
"Mixed","Both","done","45","m160jolt.wav","None","719.502365682","183","586050.837507","578333.760303","579100.160987","579867.229796","580633.760952","581401.153158","582167.058236","582917.178118","586800.546496","572983.724454","573750.619508","574517.407278","575283.630496","576050.738262","576817.235099","577567.0186","586061.300578","Mapping"
"Mixed","Both","done","45","m150cave.wav","None","736.004227074","183","586050.837507","578333.760303","579100.160987","579867.229796","580633.760952","581401.153158","582167.058236","582917.178118","586800.546496","587566.687165","573750.619508","574517.407278","575283.630496","576050.738262","576817.235099","577567.0186","586810.123166","Mapping"
"Mixed","Both","done","45","m150done.wav","None","734.695801977","183","586050.837507","578333.760303","579100.160987","579867.229796","580633.760952","581401.153158","582167.058236","582917.178118","586800.546496","587566.687165","588333.565832","574517.407278","575283.630496","576050.738262","576817.235099","577567.0186","587576.042466","Mapping"
"Mixed","Both","done","45","m150jaw.wav","space","411.530279089","183","586050.837507","578333.760303","579100.160987","579867.229796","580633.760952","581401.153158","582167.058236","582917.178118","586800.546496","587566.687165","588333.565832","589100.086785","575283.630496","576050.738262","576817.235099","577567.0186","588343.280703","Mapping"
"Mixed","Both","done","45","m160done.wav","None","728.50335273","183","586050.837507","578333.760303","579100.160987","579867.229796","580633.760952","581401.153158","582167.058236","582917.178118","586800.546496","587566.687165","588333.565832","589100.086785","589867.062533","576050.738262","576817.235099","577567.0186","589109.640885","Mapping"
"Mixed","Both","done","45","m160jolt.wav","None","726.580908056","183","586050.837507","578333.760303","579100.160987","579867.229796","580633.760952","581401.153158","582167.058236","582917.178118","586800.546496","587566.687165","588333.565832","589100.086785","589867.062533","590633.622442","576817.235099","577567.0186","589876.786679","Mapping"
"Mixed","Both","done","45","m160depth.wav","space","0.0386468600482","183","586050.837507","578333.760303","579100.160987","579867.229796","580633.760952","581401.153158","582167.058236","582917.178118","586800.546496","587566.687165","588333.565832","589100.086785","589867.062533","590633.622442","591401.043401","577567.0186","590642.928893","Mapping"
"Mixed","Both","done","45","m160romp.wav","None","720.000445144","183","586050.837507","578333.760303","579100.160987","579867.229796","580633.760952","581401.153158","582167.058236","582917.178118","586800.546496","587566.687165","588333.565832","589100.086785","589867.062533","590633.622442","591401.043401","592150.266369","591411.004992","Mapping"
"Mixed","Both","done","45","m160cave.wav","None","735.392989824","183","586050.837507","592917.057849","579100.160987","579867.229796","580633.760952","581401.153158","582167.058236","582917.178118","586800.546496","587566.687165","588333.565832","589100.086785","589867.062533","590633.622442","591401.043401","592150.266369","592160.103054","Mapping"
"Mixed","Both","done","45","m150cad.wav","None","733.226297423","183","586050.837507","592917.057849","593683.417413","579867.229796","580633.760952","581401.153158","582167.058236","582917.178118","586800.546496","587566.687165","588333.565832","589100.086785","589867.062533","590633.622442","591401.043401","592150.266369","592927.04572","Mapping"
"Mixed","Both","done","45","m160done.wav","None","731.921582483","183","586050.837507","592917.057849","593683.417413","594450.031118","580633.760952","581401.153158","582167.058236","582917.178118","586800.546496","587566.687165","588333.565832","589100.086785","589867.062533","590633.622442","591401.043401","592150.266369","593692.863611","Mapping"
"Mixed","Both","done","45","m150bluff.wav","space","727.060746169","183","586050.837507","592917.057849","593683.417413","594450.031118","595216.97935","581401.153158","582167.058236","582917.178118","586800.546496","587566.687165","588333.565832","589100.086785","589867.062533","590633.622442","591401.043401","592150.266369","594459.655401","Mapping"
"Mixed","Both","done","45","m150done.wav","None","684.291757643","183","586050.837507","592917.057849","593683.417413","594450.031118","595216.97935","595983.843795","582167.058236","582917.178118","586800.546496","587566.687165","588333.565832","589100.086785","589867.062533","590633.622442","591401.043401","592150.266369","595268.123867","Mapping"
"Mixed","Both","done","45","m150cave.wav","None","707.985937595","183","586050.837507","592917.057849","593683.417413","594450.031118","595216.97935","595983.843795","596751.395226","582917.178118","586800.546496","587566.687165","588333.565832","589100.086785","589867.062533","590633.622442","591401.043401","592150.266369","596009.069624","Mapping"
"Mixed","Both","done","45","m160park.wav","space","113.342008786","183","586050.837507","592917.057849","593683.417413","594450.031118","595216.97935","595983.843795","596751.395226","597500.123206","586800.546496","587566.687165","588333.565832","589100.086785","589867.062533","590633.622442","591401.043401","592150.266369","596761.316006","Mapping"
"Mixed","Both","done","38","m150jolt.wav","None","734.937267145","183","600633.792488","592917.057849","593683.417413","594450.031118","595216.97935","595983.843795","596751.395226","597500.123206","586800.546496","587566.687165","588333.565832","589100.086785","589867.062533","590633.622442","591401.043401","592150.266369","597509.664939","Mapping"
"Mixed","Both","done","38","m160jolt.wav","None","719.958088361","183","600633.792488","592917.057849","593683.417413","594450.031118","595216.97935","595983.843795","596751.395226","597500.123206","601383.247955","587566.687165","588333.565832","589100.086785","589867.062533","590633.622442","591401.043401","592150.266369","600643.657308","Mapping"
"Mixed","Both","done","38","m160bluff.wav","None","735.518205212","183","600633.792488","592917.057849","593683.417413","594450.031118","595216.97935","595983.843795","596751.395226","597500.123206","601383.247955","602150.132806","588333.565832","589100.086785","589867.062533","590633.622442","591401.043401","592150.266369","601392.58687","Mapping"
"Mixed","Both","done","38","m150done.wav","None","733.126124833","183","600633.792488","592917.057849","593683.417413","594450.031118","595216.97935","595983.843795","596751.395226","597500.123206","601383.247955","602150.132806","602916.877601","589100.086785","589867.062533","590633.622442","591401.043401","592150.266369","602159.687833","Mapping"
"Mixed","Both","done","38","m150reek.wav","space","500.237291213","183","600633.792488","592917.057849","593683.417413","594450.031118","595216.97935","595983.843795","596751.395226","597500.123206","601383.247955","602150.132806","602916.877601","603683.435964","589867.062533","590633.622442","591401.043401","592150.266369","602926.37945","Mapping"
"Mixed","Both","done","38","m150done.wav","None","727.506575407","183","600633.792488","592917.057849","593683.417413","594450.031118","595216.97935","595983.843795","596751.395226","597500.123206","601383.247955","602150.132806","602916.877601","603683.435964","604450.152933","590633.622442","591401.043401","592150.266369","603692.850008","Mapping"
"Mixed","Both","done","38","m150priest.wav","space","518.898115726","183","600633.792488","592917.057849","593683.417413","594450.031118","595216.97935","595983.843795","596751.395226","597500.123206","601383.247955","602150.132806","602916.877601","603683.435964","604450.152933","605217.194226","591401.043401","592150.266369","604459.686937","Mapping"
"Mixed","Both","done","38","m160done.wav","None","722.220933996","183","600633.792488","592917.057849","593683.417413","594450.031118","595216.97935","595983.843795","596751.395226","597500.123206","601383.247955","602150.132806","602916.877601","603683.435964","604450.152933","605217.194226","605983.046126","592150.266369","605227.023491","Mapping"
"Mixed","Both","done","38","m160park.wav","space","474.736915901","183","600633.792488","592917.057849","593683.417413","594450.031118","595216.97935","595983.843795","596751.395226","597500.123206","601383.247955","602150.132806","602916.877601","603683.435964","604450.152933","605217.194226","605983.046126","606750.430293","605991.796064","Mapping"
"Mixed","Both","done","38","m160lash.wav","None","718.921118183","183","600633.792488","607500.025198","593683.417413","594450.031118","595216.97935","595983.843795","596751.395226","597500.123206","601383.247955","602150.132806","602916.877601","603683.435964","604450.152933","605217.194226","605983.046126","606750.430293","606760.730739","Mapping"
"Mixed","Both","done","38","m160cling.wav","None","734.29634911","183","600633.792488","607500.025198","608266.81977","594450.031118","595216.97935","595983.843795","596751.395226","597500.123206","601383.247955","602150.132806","602916.877601","603683.435964","604450.152933","605217.194226","605983.046126","606750.430293","607509.780261","Mapping"
"Mixed","Both","done","38","m150bluff.wav","None","732.361227972","183","600633.792488","607500.025198","608266.81977","609033.325882","595216.97935","595983.843795","596751.395226","597500.123206","601383.247955","602150.132806","602916.877601","603683.435964","604450.152933","605217.194226","605983.046126","606750.430293","608276.422719","Mapping"
"Mixed","Both","done","38","m150jolt.wav","None","730.696015991","183","600633.792488","607500.025198","608266.81977","609033.325882","609799.812208","595983.843795","596751.395226","597500.123206","601383.247955","602150.132806","602916.877601","603683.435964","604450.152933","605217.194226","605983.046126","606750.430293","609042.711173","Mapping"
"Mixed","Both","done","38","m160done.wav","None","728.797995718","183","600633.792488","607500.025198","608266.81977","609033.325882","609799.812208","610566.885036","596751.395226","597500.123206","601383.247955","602150.132806","602916.877601","603683.435964","604450.152933","605217.194226","605983.046126","606750.430293","609809.191315","Mapping"
"Mixed","Both","done","38","m150cad.wav","space","457.550543128","183","600633.792488","607500.025198","608266.81977","609033.325882","609799.812208","610566.885036","611333.668787","597500.123206","601383.247955","602150.132806","602916.877601","603683.435964","604450.152933","605217.194226","605983.046126","606750.430293","610576.906298","Mapping"
"Mixed","Both","done","38","m160cling.wav","None","721.988125937","183","600633.792488","607500.025198","608266.81977","609033.325882","609799.812208","610566.885036","611333.668787","612100.458413","601383.247955","602150.132806","602916.877601","603683.435964","604450.152933","605217.194226","605983.046126","606750.430293","611343.682629","Mapping"
"Mixed","Both","tile","28","m160knife.wav","None","719.969218597","183","615217.023562","607500.025198","608266.81977","609033.325882","609799.812208","610566.885036","611333.668787","612100.458413","601383.247955","602150.132806","602916.877601","603683.435964","604450.152933","605217.194226","605983.046126","606750.430293","612110.340237","Mapping"
"Mixed","Both","tile","28","m150park.wav","None","719.471139135","183","615217.023562","607500.025198","608266.81977","609033.325882","609799.812208","610566.885036","611333.668787","612100.458413","615966.402663","602150.132806","602916.877601","603683.435964","604450.152933","605217.194226","605983.046126","606750.430293","615226.831494","Mapping"
"Mixed","Both","tile","28","m150tile.wav","None","735.433182446","183","615217.023562","607500.025198","608266.81977","609033.325882","609799.812208","610566.885036","611333.668787","612100.458413","615966.402663","616733.203419","602916.877601","603683.435964","604450.152933","605217.194226","605983.046126","606750.430293","615975.867721","Mapping"
"Mixed","Both","tile","28","m160cling.wav","space","563.633451704","183","615217.023562","607500.025198","608266.81977","609033.325882","609799.812208","610566.885036","611333.668787","612100.458413","615966.402663","616733.203419","617499.959035","603683.435964","604450.152933","605217.194226","605983.046126","606750.430293","616742.835121","Mapping"
"Mixed","Both","tile","28","m160romp.wav","None","729.80806767","183","615217.023562","607500.025198","608266.81977","609033.325882","609799.812208","610566.885036","611333.668787","612100.458413","615966.402663","616733.203419","617499.959035","618266.683733","604450.152933","605217.194226","605983.046126","606750.430293","617509.568167","Mapping"
"Mixed","Both","tile","28","m160lash.wav","None","727.976210881","183","615217.023562","607500.025198","608266.81977","609033.325882","609799.812208","610566.885036","611333.668787","612100.458413","615966.402663","616733.203419","617499.959035","618266.683733","619033.0535","605217.194226","605983.046126","606750.430293","618276.279571","Mapping"
"Mixed","Both","tile","28","m160tile.wav","None","726.953153498","183","615217.023562","607500.025198","608266.81977","609033.325882","609799.812208","610566.885036","611333.668787","612100.458413","615966.402663","616733.203419","617499.959035","618266.683733","619033.0535","619799.648655","605983.046126","606750.430293","619042.262561","Mapping"
"Mixed","Both","tile","28","m150cad.wav","space","537.217921112","183","615217.023562","607500.025198","608266.81977","609033.325882","609799.812208","610566.885036","611333.668787","612100.458413","615966.402663","616733.203419","617499.959035","618266.683733","619033.0535","619799.648655","620566.50197","606750.430293","619809.133499","Mapping"
"Mixed","Both","tile","28","m160tile.wav","None","721.611860907","183","615217.023562","607500.025198","608266.81977","609033.325882","609799.812208","610566.885036","611333.668787","612100.458413","615966.402663","616733.203419","617499.959035","618266.683733","619033.0535","619799.648655","620566.50197","621333.03869","620576.028862","Mapping"
"Mixed","Both","tile","28","m150knife.wav","None","720.383512089","183","615217.023562","622082.838887","608266.81977","609033.325882","609799.812208","610566.885036","611333.668787","612100.458413","615966.402663","616733.203419","617499.959035","618266.683733","619033.0535","619799.648655","620566.50197","621333.03869","621342.285162","Mapping"
"Mixed","Both","tile","28","m160cling.wav","None","735.19697343","183","615217.023562","622082.838887","622849.873378","609033.325882","609799.812208","610566.885036","611333.668787","612100.458413","615966.402663","616733.203419","617499.959035","618266.683733","619033.0535","619799.648655","620566.50197","621333.03869","622092.192951","Mapping"
"Mixed","Both","tile","28","m150done.wav","None","732.885587262","183","615217.023562","622082.838887","622849.873378","623616.255821","609799.812208","610566.885036","611333.668787","612100.458413","615966.402663","616733.203419","617499.959035","618266.683733","619033.0535","619799.648655","620566.50197","621333.03869","622859.614219","Mapping"
"Mixed","Both","tile","28","m150dime.wav","None","732.004131889","183","615217.023562","622082.838887","622849.873378","623616.255821","624382.962278","610566.885036","611333.668787","612100.458413","615966.402663","616733.203419","617499.959035","618266.683733","619033.0535","619799.648655","620566.50197","621333.03869","623625.207958","Mapping"
"Mixed","Both","tile","28","m160lash.wav","None","730.545757106","183","615217.023562","622082.838887","622849.873378","623616.255821","624382.962278","625149.844656","611333.668787","612100.458413","615966.402663","616733.203419","617499.959035","618266.683733","619033.0535","619799.648655","620566.50197","621333.03869","624392.07024","Mapping"
