"Condition","Talker","Target","Trial","current_stimulus","response_response","response_time_response","subject_nr","time_Audio1","time_Audio10","time_Audio11","time_Audio12","time_Audio13","time_Audio14","time_Audio15","time_Audio16","time_Audio2","time_Audio3","time_Audio4","time_Audio5","time_Audio6","time_Audio7","time_Audio8","time_Audio9","time_response","title"
"Blocked","m160","cave","8","m160jaw.wav","NA","NA","130","283348.839194","NA","NA","NA","NA","NA","NA","NA","NA","NA","NA","NA","NA","NA","NA","NA","NA","Mapping"
"Blocked","m160","cave","8","m160dime.wav","None","717.967260629","130","283348.839194","NA","NA","NA","NA","NA","NA","NA","284115.465987","NA","NA","NA","NA","NA","NA","NA","283363.116503","Mapping"
"Blocked","m160","cave","8","m160priest.wav","None","722.874457482","130","283348.839194","NA","NA","NA","NA","NA","NA","NA","284115.465987","284882.019816","NA","NA","NA","NA","NA","NA","284124.739637","Mapping"
"Blocked","m160","cave","8","m160knife.wav","None","722.133987583","130","283348.839194","NA","NA","NA","NA","NA","NA","NA","284115.465987","284882.019816","285648.542418","NA","NA","NA","NA","NA","284892.03981","Mapping"
"Blocked","m160","cave","8","m160cave.wav","None","722.152846865","130","283348.839194","NA","NA","NA","NA","NA","NA","NA","284115.465987","284882.019816","285648.542418","286415.447777","NA","NA","NA","NA","285658.463786","Mapping"
"Blocked","m160","cave","8","m160bluff.wav","space","419.335011858","130","283348.839194","NA","NA","NA","NA","NA","NA","NA","284115.465987","284882.019816","285648.542418","286415.447777","287182.520708","NA","NA","NA","286425.392333","Mapping"
"Blocked","m160","cave","8","m160cave.wav","None","720.720138401","130","283348.839194","NA","NA","NA","NA","NA","NA","NA","284115.465987","284882.019816","285648.542418","286415.447777","287182.520708","287931.293367","NA","NA","287192.884502","Mapping"
"Blocked","m160","cave","8","m160knife.wav","space","405.113972258","130","283348.839194","NA","NA","NA","NA","NA","NA","NA","284115.465987","284882.019816","285648.542418","286415.447777","287182.520708","287931.293367","288698.332289","NA","287935.626739","Mapping"
"Blocked","m160","cave","8","m160greet.wav","None","731.693313923","130","283348.839194","NA","NA","NA","NA","NA","NA","NA","284115.465987","284882.019816","285648.542418","286415.447777","287182.520708","287931.293367","288698.332289","289465.001439","288708.454001","Mapping"
"Blocked","m160","cave","8","m160priest.wav","None","732.011761982","130","283348.839194","290231.417377","NA","NA","NA","NA","NA","NA","284115.465987","284882.019816","285648.542418","286415.447777","287182.520708","287931.293367","288698.332289","289465.001439","289474.580552","Mapping"
"Blocked","m160","cave","8","m160cave.wav","None","729.470049031","130","283348.839194","290231.417377","290998.54534","NA","NA","NA","NA","NA","284115.465987","284882.019816","285648.542418","286415.447777","287182.520708","287931.293367","288698.332289","289465.001439","290240.214591","Mapping"
"Blocked","m160","cave","8","m160cad.wav","space","516.668609343","130","283348.839194","290231.417377","290998.54534","291764.847811","NA","NA","NA","NA","284115.465987","284882.019816","285648.542418","286415.447777","287182.520708","287931.293367","288698.332289","289465.001439","291007.976978","Mapping"
"Blocked","m160","cave","8","m160cling.wav","None","686.341933906","130","283348.839194","290231.417377","290998.54534","291764.847811","292531.79769","NA","NA","NA","284115.465987","284882.019816","285648.542418","286415.447777","287182.520708","287931.293367","288698.332289","289465.001439","291812.679069","Mapping"
"Blocked","m160","cave","8","m160lash.wav","None","724.100329448","130","283348.839194","290231.417377","290998.54534","291764.847811","292531.79769","293298.347809","NA","NA","284115.465987","284882.019816","285648.542418","286415.447777","287182.520708","287931.293367","288698.332289","289465.001439","292541.271685","Mapping"
"Blocked","m160","cave","8","m160cave.wav","None","724.18813454","130","283348.839194","290231.417377","290998.54534","291764.847811","292531.79769","293298.347809","294065.512255","NA","284115.465987","284882.019816","285648.542418","286415.447777","287182.520708","287931.293367","288698.332289","289465.001439","293307.579721","Mapping"
"Blocked","m160","cave","8","m160cad.wav","space","441.079162993","130","283348.839194","290231.417377","290998.54534","291764.847811","292531.79769","293298.347809","294065.512255","294815.041771","284115.465987","284882.019816","285648.542418","286415.447777","287182.520708","287931.293367","288698.332289","289465.001439","294075.504424","Mapping"
"Blocked","m160","tile","13","m160greet.wav","None","732.861370314","130","297998.689724","290231.417377","290998.54534","291764.847811","292531.79769","293298.347809","294065.512255","294815.041771","284115.465987","284882.019816","285648.542418","286415.447777","287182.520708","287931.293367","288698.332289","289465.001439","294825.058673","Mapping"
"Blocked","m160","tile","13","m160cave.wav","None","719.035763294","130","297998.689724","290231.417377","290998.54534","291764.847811","292531.79769","293298.347809","294065.512255","294815.041771","298748.247374","284882.019816","285648.542418","286415.447777","287182.520708","287931.293367","288698.332289","289465.001439","298009.469356","Mapping"
"Blocked","m160","tile","13","m160greet.wav","None","731.469163205","130","297998.689724","290231.417377","290998.54534","291764.847811","292531.79769","293298.347809","294065.512255","294815.041771","298748.247374","299514.772141","285648.542418","286415.447777","287182.520708","287931.293367","288698.332289","289465.001439","298760.348722","Mapping"
"Blocked","m160","tile","13","m160greet.wav","None","731.256761122","130","297998.689724","290231.417377","290998.54534","291764.847811","292531.79769","293298.347809","294065.512255","294815.041771","298748.247374","299514.772141","300282.201857","286415.447777","287182.520708","287931.293367","288698.332289","289465.001439","299524.567366","Mapping"
"Blocked","m160","tile","13","m160reek.wav","None","727.401062381","130","297998.689724","290231.417377","290998.54534","291764.847811","292531.79769","293298.347809","294065.512255","294815.041771","298748.247374","299514.772141","300282.201857","301048.352215","287182.520708","287931.293367","288698.332289","289465.001439","300291.780352","Mapping"
"Blocked","m160","tile","13","m160tile.wav","None","710.35881713","130","297998.689724","290231.417377","290998.54534","291764.847811","292531.79769","293298.347809","294065.512255","294815.041771","298748.247374","299514.772141","300282.201857","301048.352215","301814.674164","287931.293367","288698.332289","289465.001439","301075.764129","Mapping"
"Blocked","m160","tile","13","m160ball.wav","space","548.908262979","130","297998.689724","290231.417377","290998.54534","291764.847811","292531.79769","293298.347809","294065.512255","294815.041771","298748.247374","299514.772141","300282.201857","301048.352215","301814.674164","302581.563445","288698.332289","289465.001439","301823.566913","Mapping"
"Blocked","m160","tile","13","m160tile.wav","None","729.240024462","130","297998.689724","290231.417377","290998.54534","291764.847811","292531.79769","293298.347809","294065.512255","294815.041771","298748.247374","299514.772141","300282.201857","301048.352215","301814.674164","302581.563445","303348.332149","289465.001439","302590.561313","Mapping"
"Blocked","m160","tile","13","m160romp.wav","space","439.050368033","130","297998.689724","290231.417377","290998.54534","291764.847811","292531.79769","293298.347809","294065.512255","294815.041771","298748.247374","299514.772141","300282.201857","301048.352215","301814.674164","302581.563445","303348.332149","304114.898654","303357.39247","Mapping"
"Blocked","m160","tile","13","m160park.wav","None","725.474913139","130","297998.689724","304881.507516","290998.54534","291764.847811","292531.79769","293298.347809","294065.512255","294815.041771","298748.247374","299514.772141","300282.201857","301048.352215","301814.674164","302581.563445","303348.332149","304114.898654","304124.279278","Mapping"
"Blocked","m160","tile","13","m160knife.wav","None","725.514178164","130","297998.689724","304881.507516","305648.74369","291764.847811","292531.79769","293298.347809","294065.512255","294815.041771","298748.247374","299514.772141","300282.201857","301048.352215","301814.674164","302581.563445","303348.332149","304114.898654","304891.123421","Mapping"
"Blocked","m160","tile","13","m160priest.wav","None","721.516568679","130","297998.689724","304881.507516","305648.74369","306397.932188","292531.79769","293298.347809","294065.512255","294815.041771","298748.247374","299514.772141","300282.201857","301048.352215","301814.674164","302581.563445","303348.332149","304114.898654","305658.304253","Mapping"
"Blocked","m160","tile","13","m160tile.wav","None","736.018337775","130","297998.689724","304881.507516","305648.74369","306397.932188","307164.777257","293298.347809","294065.512255","294815.041771","298748.247374","299514.772141","300282.201857","301048.352215","301814.674164","302581.563445","303348.332149","304114.898654","306407.299826","Mapping"
"Blocked","m160","tile","13","m160knife.wav","space","518.307536375","130","297998.689724","304881.507516","305648.74369","306397.932188","307164.777257","307931.455374","294065.512255","294815.041771","298748.247374","299514.772141","300282.201857","301048.352215","301814.674164","302581.563445","303348.332149","304114.898654","307174.051835","Mapping"
"Blocked","m160","tile","13","m160tile.wav","None","728.55149582","130","297998.689724","304881.507516","305648.74369","306397.932188","307164.777257","307931.455374","308698.194706","294815.041771","298748.247374","299514.772141","300282.201857","301048.352215","301814.674164","302581.563445","303348.332149","304114.898654","307941.104051","Mapping"
"Blocked","m160","tile","13","m160cling.wav","space","632.996262517","130","297998.689724","304881.507516","305648.74369","306397.932188","307164.777257","307931.455374","308698.194706","309464.853036","298748.247374","299514.772141","300282.201857","301048.352215","301814.674164","302581.563445","303348.332149","304114.898654","308707.332321","Mapping"
"Blocked","m160","ball","1","m160bluff.wav","None","722.193039488","130","312581.98794","304881.507516","305648.74369","306397.932188","307164.777257","307931.455374","308698.194706","309464.853036","298748.247374","299514.772141","300282.201857","301048.352215","301814.674164","302581.563445","303348.332149","304114.898654","309473.740529","Mapping"
"Blocked","m160","ball","1","m160ball.wav","None","718.985058833","130","312581.98794","304881.507516","305648.74369","306397.932188","307164.777257","307931.455374","308698.194706","309464.853036","313331.194061","299514.772141","300282.201857","301048.352215","301814.674164","302581.563445","303348.332149","304114.898654","312592.116454","Mapping"
"Blocked","m160","ball","1","m160jaw.wav","space","424.086076207","130","312581.98794","304881.507516","305648.74369","306397.932188","307164.777257","307931.455374","308698.194706","309464.853036","313331.194061","314098.24504","300282.201857","301048.352215","301814.674164","302581.563445","303348.332149","304114.898654","313340.199039","Mapping"
"Blocked","m160","ball","1","m160park.wav","None","730.196297169","130","312581.98794","304881.507516","305648.74369","306397.932188","307164.777257","307931.455374","308698.194706","309464.853036","313331.194061","314098.24504","314864.594505","301048.352215","301814.674164","302581.563445","303348.332149","304114.898654","314107.303506","Mapping"
"Blocked","m160","ball","1","m160romp.wav","None","727.062517311","130","312581.98794","304881.507516","305648.74369","306397.932188","307164.777257","307931.455374","308698.194706","309464.853036","313331.194061","314098.24504","314864.594505","315631.579631","301814.674164","302581.563445","303348.332149","304114.898654","314873.647406","Mapping"
"Blocked","m160","ball","1","m160gnash.wav","None","722.929490265","130","312581.98794","304881.507516","305648.74369","306397.932188","307164.777257","307931.455374","308698.194706","309464.853036","313331.194061","314098.24504","314864.594505","315631.579631","316398.208898","302581.563445","303348.332149","304114.898654","315641.202337","Mapping"
"Blocked","m160","ball","1","m160ball.wav","None","723.703041673","130","312581.98794","304881.507516","305648.74369","306397.932188","307164.777257","307931.455374","308698.194706","309464.853036","313331.194061","314098.24504","314864.594505","315631.579631","316398.208898","317165.339953","303348.332149","304114.898654","316406.994054","Mapping"
"Blocked","m160","ball","1","m160reek.wav","space","437.185435556","130","312581.98794","304881.507516","305648.74369","306397.932188","307164.777257","307931.455374","308698.194706","309464.853036","313331.194061","314098.24504","314864.594505","315631.579631","316398.208898","317165.339953","317914.753838","304114.898654","317175.018311","Mapping"
"Blocked","m160","ball","1","m160ball.wav","None","733.237633947","130","312581.98794","304881.507516","305648.74369","306397.932188","307164.777257","307931.455374","308698.194706","309464.853036","313331.194061","314098.24504","314864.594505","315631.579631","316398.208898","317165.339953","317914.753838","318681.015807","317923.926388","Mapping"
"Blocked","m160","ball","1","m160cling.wav","space","658.464095555","130","312581.98794","319448.036796","305648.74369","306397.932188","307164.777257","307931.455374","308698.194706","309464.853036","313331.194061","314098.24504","314864.594505","315631.579631","316398.208898","317165.339953","317914.753838","318681.015807","318689.702337","Mapping"
"Blocked","m160","ball","1","m160priest.wav","None","726.313699968","130","312581.98794","319448.036796","320214.720478","306397.932188","307164.777257","307931.455374","308698.194706","309464.853036","313331.194061","314098.24504","314864.594505","315631.579631","316398.208898","317165.339953","317914.753838","318681.015807","319457.093716","Mapping"
"Blocked","m160","ball","1","m160jaw.wav","None","723.01605856","130","312581.98794","319448.036796","320214.720478","320981.644387","307164.777257","307931.455374","308698.194706","309464.853036","313331.194061","314098.24504","314864.594505","315631.579631","316398.208898","317165.339953","317914.753838","318681.015807","320223.606734","Mapping"
"Blocked","m160","ball","1","m160ball.wav","None","718.277052045","130","312581.98794","319448.036796","320214.720478","320981.644387","321731.216878","307931.455374","308698.194706","309464.853036","313331.194061","314098.24504","314864.594505","315631.579631","316398.208898","317165.339953","317914.753838","318681.015807","320991.536074","Mapping"
"Blocked","m160","ball","1","m160jaw.wav","space","383.921386208","130","312581.98794","319448.036796","320214.720478","320981.644387","321731.216878","322497.60097","308698.194706","309464.853036","313331.194061","314098.24504","314864.594505","315631.579631","316398.208898","317165.339953","317914.753838","318681.015807","321740.183828","Mapping"
"Blocked","m160","ball","1","m160depth.wav","None","729.79560867","130","312581.98794","319448.036796","320214.720478","320981.644387","321731.216878","322497.60097","323264.551777","309464.853036","313331.194061","314098.24504","314864.594505","315631.579631","316398.208898","317165.339953","317914.753838","318681.015807","322506.400658","Mapping"
"Blocked","m160","ball","1","m160romp.wav","None","729.295057245","130","312581.98794","319448.036796","320214.720478","320981.644387","321731.216878","322497.60097","323264.551777","324031.169914","313331.194061","314098.24504","314864.594505","315631.579631","316398.208898","317165.339953","317914.753838","318681.015807","323273.680425","Mapping"
"Blocked","m160","cave","10","m160lash.wav","None","725.413387641","130","327148.194444","319448.036796","320214.720478","320981.644387","321731.216878","322497.60097","323264.551777","324031.169914","313331.194061","314098.24504","314864.594505","315631.579631","316398.208898","317165.339953","317914.753838","318681.015807","324040.847654","Mapping"
"Blocked","m160","cave","10","m160cad.wav","None","719.854144379","130","327148.194444","319448.036796","320214.720478","320981.644387","321731.216878","322497.60097","323264.551777","324031.169914","327897.448795","314098.24504","314864.594505","315631.579631","316398.208898","317165.339953","317914.753838","318681.015807","327158.00791","Mapping"
"Blocked","m160","cave","10","m160dime.wav","None","735.128228087","130","327148.194444","319448.036796","320214.720478","320981.644387","321731.216878","322497.60097","323264.551777","324031.169914","327897.448795","328664.096613","314864.594505","315631.579631","316398.208898","317165.339953","317914.753838","318681.015807","327906.246937","Mapping"
"Blocked","m160","cave","10","m160cave.wav","None","731.839552522","130","327148.194444","319448.036796","320214.720478","320981.644387","321731.216878","322497.60097","323264.551777","324031.169914","327897.448795","328664.096613","329431.044637","315631.579631","316398.208898","317165.339953","317914.753838","318681.015807","328672.828591","Mapping"
"Blocked","m160","cave","10","m160tile.wav","space","427.733083256","130","327148.194444","319448.036796","320214.720478","320981.644387","321731.216878","322497.60097","323264.551777","324031.169914","327897.448795","328664.096613","329431.044637","330198.106437","316398.208898","317165.339953","317914.753838","318681.015807","329440.220589","Mapping"
"Blocked","m160","cave","10","m160done.wav","None","723.12797932","130","327148.194444","319448.036796","320214.720478","320981.644387","321731.216878","322497.60097","323264.551777","324031.169914","327897.448795","328664.096613","329431.044637","330198.106437","330964.555148","317165.339953","317914.753838","318681.015807","330207.916194","Mapping"
"Blocked","m160","cave","10","m160cave.wav","None","723.361405078","130","327148.194444","319448.036796","320214.720478","320981.644387","321731.216878","322497.60097","323264.551777","324031.169914","327897.448795","328664.096613","329431.044637","330198.106437","330964.555148","331731.410729","317914.753838","318681.015807","330974.858345","Mapping"
"Blocked","m160","cave","10","m160cad.wav","space","438.825908583","130","327148.194444","319448.036796","320214.720478","320981.644387","321731.216878","322497.60097","323264.551777","324031.169914","327897.448795","328664.096613","329431.044637","330198.106437","330964.555148","331731.410729","332480.518533","318681.015807","331741.114439","Mapping"
"Blocked","m160","cave","10","m160done.wav","None","735.5604521","130","327148.194444","319448.036796","320214.720478","320981.644387","321731.216878","322497.60097","323264.551777","324031.169914","327897.448795","328664.096613","329431.044637","330198.106437","330964.555148","331731.410729","332480.518533","333247.811904","332489.33337","Mapping"
"Blocked","m160","cave","10","m160cave.wav","None","731.291388627","130","327148.194444","334014.35151","320214.720478","320981.644387","321731.216878","322497.60097","323264.551777","324031.169914","327897.448795","328664.096613","329431.044637","330198.106437","330964.555148","331731.410729","332480.518533","333247.811904","333256.858312","Mapping"
"Blocked","m160","cave","10","m160depth.wav","space","492.054094095","130","327148.194444","334014.35151","334780.756627","320981.644387","321731.216878","322497.60097","323264.551777","324031.169914","327897.448795","328664.096613","329431.044637","330198.106437","330964.555148","331731.410729","332480.518533","333247.811904","334023.812211","Mapping"
"Blocked","m160","cave","10","m160lash.wav","None","725.122764707","130","327148.194444","334014.35151","334780.756627","335547.640653","321731.216878","322497.60097","323264.551777","324031.169914","327897.448795","328664.096613","329431.044637","330198.106437","330964.555148","331731.410729","332480.518533","333247.811904","334789.523542","Mapping"
"Blocked","m160","cave","10","m160knife.wav","None","721.623542719","130","327148.194444","334014.35151","334780.756627","335547.640653","336297.296311","322497.60097","323264.551777","324031.169914","327897.448795","328664.096613","329431.044637","330198.106437","330964.555148","331731.410729","332480.518533","333247.811904","335556.464147","Mapping"
"Blocked","m160","cave","10","m160cave.wav","None","735.491197556","130","327148.194444","334014.35151","334780.756627","335547.640653","336297.296311","337064.312663","323264.551777","324031.169914","327897.448795","328664.096613","329431.044637","330198.106437","330964.555148","331731.410729","332480.518533","333247.811904","336306.045294","Mapping"
"Blocked","m160","cave","10","m160depth.wav","space","410.076201893","130","327148.194444","334014.35151","334780.756627","335547.640653","336297.296311","337064.312663","337831.048286","324031.169914","327897.448795","328664.096613","329431.044637","330198.106437","330964.555148","331731.410729","332480.518533","333247.811904","337073.748938","Mapping"
"Blocked","m160","cave","10","m160ball.wav","None","727.209065575","130","327148.194444","334014.35151","334780.756627","335547.640653","336297.296311","337064.312663","337831.048286","338597.825646","327897.448795","328664.096613","329431.044637","330198.106437","330964.555148","331731.410729","332480.518533","333247.811904","337840.682741","Mapping"
"Blocked","m160","done","23","m160ball.wav","None","723.828565795","130","341714.548114","334014.35151","334780.756627","335547.640653","336297.296311","337064.312663","337831.048286","338597.825646","327897.448795","328664.096613","329431.044637","330198.106437","330964.555148","331731.410729","332480.518533","333247.811904","338607.452991","Mapping"
"Blocked","m160","done","23","m160done.wav","None","719.95740803","130","341714.548114","334014.35151","334780.756627","335547.640653","336297.296311","337064.312663","337831.048286","338597.825646","342480.555324","328664.096613","329431.044637","330198.106437","330964.555148","331731.410729","332480.518533","333247.811904","341724.497617","Mapping"
"Blocked","m160","done","23","m160greet.wav","space","458.563525695","130","341714.548114","334014.35151","334780.756627","335547.640653","336297.296311","337064.312663","337831.048286","338597.825646","342480.555324","343230.746471","329431.044637","330198.106437","330964.555148","331731.410729","332480.518533","333247.811904","342489.196715","Mapping"
"Blocked","m160","done","23","m160done.wav","None","734.338599723","130","341714.548114","334014.35151","334780.756627","335547.640653","336297.296311","337064.312663","337831.048286","338597.825646","342480.555324","343230.746471","343997.552585","330198.106437","330964.555148","331731.410729","332480.518533","333247.811904","343239.707856","Mapping"
"Blocked","m160","done","23","m160bluff.wav","space","445.075535681","130","341714.548114","334014.35151","334780.756627","335547.640653","336297.296311","337064.312663","337831.048286","338597.825646","342480.555324","343230.746471","343997.552585","344763.956155","330964.555148","331731.410729","332480.518533","333247.811904","344006.623108","Mapping"
"Blocked","m160","done","23","m160done.wav","None","727.623048704","130","341714.548114","334014.35151","334780.756627","335547.640653","336297.296311","337064.312663","337831.048286","338597.825646","342480.555324","343230.746471","343997.552585","344763.956155","345531.24458","331731.410729","332480.518533","333247.811904","344772.792635","Mapping"
"Blocked","m160","done","23","m160tile.wav","space","439.057169948","130","341714.548114","334014.35151","334780.756627","335547.640653","336297.296311","337064.312663","337831.048286","338597.825646","342480.555324","343230.746471","343997.552585","344763.956155","345531.24458","346297.480887","332480.518533","333247.811904","345540.630769","Mapping"
"Blocked","m160","done","23","m160lash.wav","None","720.518557355","130","341714.548114","334014.35151","334780.756627","335547.640653","336297.296311","337064.312663","337831.048286","338597.825646","342480.555324","343230.746471","343997.552585","344763.956155","345531.24458","346297.480887","347047.537853","333247.811904","346306.347047","Mapping"
"Blocked","m160","done","23","m160dime.wav","None","733.825681265","130","341714.548114","334014.35151","334780.756627","335547.640653","336297.296311","337064.312663","337831.048286","338597.825646","342480.555324","343230.746471","343997.552585","344763.956155","345531.24458","346297.480887","347047.537853","347814.082715","347056.544995","Mapping"
"Blocked","m160","done","23","m160depth.wav","None","730.876478367","130","341714.548114","348580.759904","334780.756627","335547.640653","336297.296311","337064.312663","337831.048286","338597.825646","342480.555324","343230.746471","343997.552585","344763.956155","345531.24458","346297.480887","347047.537853","347814.082715","347823.123867","Mapping"
"Blocked","m160","done","23","m160bluff.wav","None","727.043039631","130","341714.548114","348580.759904","349347.765126","335547.640653","336297.296311","337064.312663","337831.048286","338597.825646","342480.555324","343230.746471","343997.552585","344763.956155","345531.24458","346297.480887","347047.537853","347814.082715","348590.334689","Mapping"
"Blocked","m160","done","23","m160depth.wav","None","723.232171033","130","341714.548114","348580.759904","349347.765126","350113.807891","336297.296311","337064.312663","337831.048286","338597.825646","342480.555324","343230.746471","343997.552585","344763.956155","345531.24458","346297.480887","347047.537853","347814.082715","349357.612601","Mapping"
"Blocked","m160","done","23","m160done.wav","None","721.610248089","130","341714.548114","348580.759904","349347.765126","350113.807891","350863.856818","337064.312663","337831.048286","338597.825646","342480.555324","343230.746471","343997.552585","344763.956155","345531.24458","346297.480887","347047.537853","347814.082715","350122.679616","Mapping"
"Blocked","m160","done","23","m160tile.wav","space","490.374974441","130","341714.548114","348580.759904","349347.765126","350113.807891","350863.856818","351630.798659","337831.048286","338597.825646","342480.555324","343230.746471","343997.552585","344763.956155","345531.24458","346297.480887","347047.537853","347814.082715","350873.204052","Mapping"
"Blocked","m160","done","23","m160priest.wav","None","730.766103137","130","341714.548114","348580.759904","349347.765126","350113.807891","350863.856818","351630.798659","352397.356816","338597.825646","342480.555324","343230.746471","343997.552585","344763.956155","345531.24458","346297.480887","347047.537853","347814.082715","351639.92236","Mapping"
"Blocked","m160","done","23","m160lash.wav","None","727.749191225","130","341714.548114","348580.759904","349347.765126","350113.807891","350863.856818","351630.798659","352397.356816","353164.396356","342480.555324","343230.746471","343997.552585","344763.956155","345531.24458","346297.480887","347047.537853","347814.082715","352406.310472","Mapping"
"Blocked","m160","cave","12","m160bluff.wav","None","723.558657803","130","356281.024525","348580.759904","349347.765126","350113.807891","350863.856818","351630.798659","352397.356816","353164.396356","342480.555324","343230.746471","343997.552585","344763.956155","345531.24458","346297.480887","347047.537853","347814.082715","353174.062656","Mapping"
"Blocked","m160","cave","12","m160cad.wav","None","719.636795577","130","356281.024525","348580.759904","349347.765126","350113.807891","350863.856818","351630.798659","352397.356816","353164.396356","357030.544457","343230.746471","343997.552585","344763.956155","345531.24458","346297.480887","347047.537853","347814.082715","356290.828717","Mapping"
"Blocked","m160","cave","12","m160cave.wav","None","733.88967989","130","356281.024525","348580.759904","349347.765126","350113.807891","350863.856818","351630.798659","352397.356816","353164.396356","357030.544457","357797.368812","343997.552585","344763.956155","345531.24458","346297.480887","347047.537853","347814.082715","357040.118933","Mapping"
"Blocked","m160","cave","12","m160cad.wav","space","501.100192778","130","356281.024525","348580.759904","349347.765126","350113.807891","350863.856818","351630.798659","352397.356816","353164.396356","357030.544457","357797.368812","358563.857405","344763.956155","345531.24458","346297.480887","347047.537853","347814.082715","357806.368844","Mapping"
"Blocked","m160","cave","12","m160cave.wav","None","727.51421947","130","356281.024525","348580.759904","349347.765126","350113.807891","350863.856818","351630.798659","352397.356816","353164.396356","357030.544457","357797.368812","358563.857405","359331.042566","345531.24458","346297.480887","347047.537853","347814.082715","358573.041395","Mapping"
"Blocked","m160","cave","12","m160park.wav","space","462.783739902","130","356281.024525","348580.759904","349347.765126","350113.807891","350863.856818","351630.798659","352397.356816","353164.396356","357030.544457","357797.368812","358563.857405","359331.042566","360097.669668","346297.480887","347047.537853","347814.082715","359340.695881","Mapping"
"Blocked","m160","cave","12","m160dime.wav","None","720.108284615","130","356281.024525","348580.759904","349347.765126","350113.807891","350863.856818","351630.798659","352397.356816","353164.396356","357030.544457","357797.368812","358563.857405","359331.042566","360097.669668","360847.075515","347047.537853","347814.082715","360107.139644","Mapping"
"Blocked","m160","cave","12","m160gnash.wav","None","734.272745904","130","356281.024525","348580.759904","349347.765126","350113.807891","350863.856818","351630.798659","352397.356816","353164.396356","357030.544457","357797.368812","358563.857405","359331.042566","360097.669668","360847.075515","361614.213063","347814.082715","360856.423367","Mapping"
"Blocked","m160","cave","12","m160cave.wav","None","731.105575804","130","356281.024525","348580.759904","349347.765126","350113.807891","350863.856818","351630.798659","352397.356816","353164.396356","357030.544457","357797.368812","358563.857405","359331.042566","360097.669668","360847.075515","361614.213063","362380.451844","361623.206602","Mapping"
"Blocked","m160","cave","12","m160knife.wav","space","469.116843771","130","356281.024525","363147.530958","349347.765126","350113.807891","350863.856818","351630.798659","352397.356816","353164.396356","357030.544457","357797.368812","358563.857405","359331.042566","360097.669668","360847.075515","361614.213063","362380.451844","362390.239958","Mapping"
"Blocked","m160","cave","12","m160cad.wav","None","723.293387331","130","356281.024525","363147.530958","363914.198872","350113.807891","350863.856818","351630.798659","352397.356816","353164.396356","357030.544457","357797.368812","358563.857405","359331.042566","360097.669668","360847.075515","361614.213063","362380.451844","363157.354009","Mapping"
"Blocked","m160","cave","12","m160cave.wav","None","720.473418478","130","356281.024525","363147.530958","363914.198872","364663.346249","350863.856818","351630.798659","352397.356816","353164.396356","357030.544457","357797.368812","358563.857405","359331.042566","360097.669668","360847.075515","361614.213063","362380.451844","363923.849713","Mapping"
"Blocked","m160","cave","12","m160jolt.wav","space","475.163653027","130","356281.024525","363147.530958","363914.198872","364663.346249","365430.414542","351630.798659","352397.356816","353164.396356","357030.544457","357797.368812","358563.857405","359331.042566","360097.669668","360847.075515","361614.213063","362380.451844","364672.162323","Mapping"
"Blocked","m160","cave","12","m160cad.wav","None","736.433866434","130","356281.024525","363147.530958","363914.198872","364663.346249","365430.414542","366197.213236","352397.356816","353164.396356","357030.544457","357797.368812","358563.857405","359331.042566","360097.669668","360847.075515","361614.213063","362380.451844","365439.351194","Mapping"
"Blocked","m160","cave","12","m160jolt.wav","None","732.999879867","130","356281.024525","363147.530958","363914.198872","364663.346249","365430.414542","366197.213236","366963.849305","353164.396356","357030.544457","357797.368812","358563.857405","359331.042566","360097.669668","360847.075515","361614.213063","362380.451844","366206.314368","Mapping"
"Blocked","m160","cave","12","m160done.wav","None","729.859916959","130","356281.024525","363147.530958","363914.198872","364663.346249","365430.414542","366197.213236","366963.849305","367730.182075","357030.544457","357797.368812","358563.857405","359331.042566","360097.669668","360847.075515","361614.213063","362380.451844","366972.976098","Mapping"
"Blocked","m160","tile","15","m160lash.wav","None","727.279556915","130","370847.623679","363147.530958","363914.198872","364663.346249","365430.414542","366197.213236","366963.849305","367730.182075","357030.544457","357797.368812","358563.857405","359331.042566","360097.669668","360847.075515","361614.213063","362380.451844","367739.067713","Mapping"
"Blocked","m160","tile","15","m160tile.wav","None","719.674515072","130","370847.623679","363147.530958","363914.198872","364663.346249","365430.414542","366197.213236","366963.849305","367730.182075","371596.832582","357797.368812","358563.857405","359331.042566","360097.669668","360847.075515","361614.213063","362380.451844","370857.559578","Mapping"
"Blocked","m160","tile","15","m160reek.wav","space","516.7697086","130","370847.623679","363147.530958","363914.198872","364663.346249","365430.414542","366197.213236","366963.849305","367730.182075","371596.832582","372363.703004","358563.857405","359331.042566","360097.669668","360847.075515","361614.213063","362380.451844","371606.435811","Mapping"
"Blocked","m160","tile","15","m160knife.wav","None","731.07404029","130","370847.623679","363147.530958","363914.198872","364663.346249","365430.414542","366197.213236","366963.849305","367730.182075","371596.832582","372363.703004","373130.229317","359331.042566","360097.669668","360847.075515","361614.213063","362380.451844","372373.110526","Mapping"
"Blocked","m160","tile","15","m160tile.wav","None","729.087911081","130","370847.623679","363147.530958","363914.198872","364663.346249","365430.414542","366197.213236","366963.849305","367730.182075","371596.832582","372363.703004","373130.229317","373897.042851","360097.669668","360847.075515","361614.213063","362380.451844","373139.221929","Mapping"
"Blocked","m160","tile","15","m160gnash.wav","space","473.096521106","130","370847.623679","363147.530958","363914.198872","364663.346249","365430.414542","366197.213236","366963.849305","367730.182075","371596.832582","372363.703004","373130.229317","373897.042851","374663.596679","360847.075515","361614.213063","362380.451844","373906.044738","Mapping"
"Blocked","m160","tile","15","m160dime.wav","None","722.731928807","130","370847.623679","363147.530958","363914.198872","364663.346249","365430.414542","366197.213236","366963.849305","367730.182075","371596.832582","372363.703004","373130.229317","373897.042851","374663.596679","375413.99961","361614.213063","362380.451844","374672.827664","Mapping"
"Blocked","m160","tile","15","m160tile.wav","None","736.286699772","130","370847.623679","363147.530958","363914.198872","364663.346249","365430.414542","366197.213236","366963.849305","367730.182075","371596.832582","372363.703004","373130.229317","373897.042851","374663.596679","375413.99961","376180.170063","362380.451844","375422.986656","Mapping"
"Blocked","m160","tile","15","m160dime.wav","space","445.99656295","130","370847.623679","363147.530958","363914.198872","364663.346249","365430.414542","366197.213236","366963.849305","367730.182075","371596.832582","372363.703004","373130.229317","373897.042851","374663.596679","375413.99961","376180.170063","376947.00153","376189.13856","Mapping"
"Blocked","m160","tile","15","m160tile.wav","None","730.02192378","130","370847.623679","377713.553504","363914.198872","364663.346249","365430.414542","366197.213236","366963.849305","367730.182075","371596.832582","372363.703004","373130.229317","373897.042851","374663.596679","375413.99961","376180.170063","376947.00153","376956.074527","Mapping"
"Blocked","m160","tile","15","m160lash.wav","space","408.098730259","130","370847.623679","377713.553504","378480.602937","364663.346249","365430.414542","366197.213236","366963.849305","367730.182075","371596.832582","372363.703004","373130.229317","373897.042851","374663.596679","375413.99961","376180.170063","376947.00153","377723.028116","Mapping"
"Blocked","m160","tile","15","m160dime.wav","None","722.675967962","130","370847.623679","377713.553504","378480.602937","379247.32712","365430.414542","366197.213236","366963.849305","367730.182075","371596.832582","372363.703004","373130.229317","373897.042851","374663.596679","375413.99961","376180.170063","376947.00153","378490.553986","Mapping"
"Blocked","m160","tile","15","m160cling.wav","None","720.208457205","130","370847.623679","377713.553504","378480.602937","379247.32712","379996.748425","366197.213236","366963.849305","367730.182075","371596.832582","372363.703004","373130.229317","373897.042851","374663.596679","375413.99961","376180.170063","376947.00153","379256.962812","Mapping"
"Blocked","m160","tile","15","m160gnash.wav","None","735.015998129","130","370847.623679","377713.553504","378480.602937","379247.32712","379996.748425","380763.456531","366963.849305","367730.182075","371596.832582","372363.703004","373130.229317","373897.042851","374663.596679","375413.99961","376180.170063","376947.00153","380005.831316","Mapping"
"Blocked","m160","tile","15","m160priest.wav","None","731.950545684","130","370847.623679","377713.553504","378480.602937","379247.32712","379996.748425","380763.456531","381530.111769","367730.182075","371596.832582","372363.703004","373130.229317","373897.042851","374663.596679","375413.99961","376180.170063","376947.00153","380772.599401","Mapping"
"Blocked","m160","tile","15","m160jolt.wav","None","729.223329108","130","370847.623679","377713.553504","378480.602937","379247.32712","379996.748425","380763.456531","381530.111769","382296.880473","371596.832582","372363.703004","373130.229317","373897.042851","374663.596679","375413.99961","376180.170063","376947.00153","381539.079029","Mapping"
"Blocked","m160","cave","9","m160park.wav","None","726.115210913","130","385413.921389","377713.553504","378480.602937","379247.32712","379996.748425","380763.456531","381530.111769","382296.880473","371596.832582","372363.703004","373130.229317","373897.042851","374663.596679","375413.99961","376180.170063","376947.00153","382305.989334","Mapping"
"Blocked","m160","cave","9","m160cave.wav","None","724.284287076","130","385413.921389","377713.553504","378480.602937","379247.32712","379996.748425","380763.456531","381530.111769","382296.880473","386163.197382","372363.703004","373130.229317","373897.042851","374663.596679","375413.99961","376180.170063","376947.00153","385418.869397","Mapping"
"Blocked","m160","cave","9","m160cad.wav","space","542.3358595","130","385413.921389","377713.553504","378480.602937","379247.32712","379996.748425","380763.456531","381530.111769","382296.880473","386163.197382","386930.114799","373130.229317","373897.042851","374663.596679","375413.99961","376180.170063","376947.00153","386172.61016","Mapping"
"Blocked","m160","cave","9","m160done.wav","None","730.635632295","130","385413.921389","377713.553504","378480.602937","379247.32712","379996.748425","380763.456531","381530.111769","382296.880473","386163.197382","386930.114799","387696.694907","373897.042851","374663.596679","375413.99961","376180.170063","376947.00153","386939.200162","Mapping"
"Blocked","m160","cave","9","m160cave.wav","None","727.760321461","130","385413.921389","377713.553504","378480.602937","379247.32712","379996.748425","380763.456531","381530.111769","382296.880473","386163.197382","386930.114799","387696.694907","388463.454646","374663.596679","375413.99961","376180.170063","376947.00153","387705.749354","Mapping"
"Blocked","m160","cave","9","m160depth.wav","space","433.930769563","130","385413.921389","377713.553504","378480.602937","379247.32712","379996.748425","380763.456531","381530.111769","382296.880473","386163.197382","386930.114799","387696.694907","388463.454646","389230.287967","375413.99961","376180.170063","376947.00153","388472.99202","Mapping"
"Blocked","m160","cave","9","m160ball.wav","None","720.599560998","130","385413.921389","377713.553504","378480.602937","379247.32712","379996.748425","380763.456531","381530.111769","382296.880473","386163.197382","386930.114799","387696.694907","388463.454646","389230.287967","389979.778527","376180.170063","376947.00153","389239.774019","Mapping"
"Blocked","m160","cave","9","m160knife.wav","None","735.291780904","130","385413.921389","377713.553504","378480.602937","379247.32712","379996.748425","380763.456531","381530.111769","382296.880473","386163.197382","386930.114799","387696.694907","388463.454646","389230.287967","389979.778527","390746.391098","376947.00153","389988.892952","Mapping"
"Blocked","m160","cave","9","m160cave.wav","None","732.495308854","130","385413.921389","377713.553504","378480.602937","379247.32712","379996.748425","380763.456531","381530.111769","382296.880473","386163.197382","386930.114799","387696.694907","388463.454646","389230.287967","389979.778527","390746.391098","391512.904734","390755.380928","Mapping"
"Blocked","m160","cave","9","m160knife.wav","space","409.285955597","130","385413.921389","392279.869454","378480.602937","379247.32712","379996.748425","380763.456531","381530.111769","382296.880473","386163.197382","386930.114799","387696.694907","388463.454646","389230.287967","389979.778527","390746.391098","391512.904734","391521.594665","Mapping"
"Blocked","m160","cave","9","m160done.wav","None","725.29250104","130","385413.921389","392279.869454","393047.103773","379247.32712","379996.748425","380763.456531","381530.111769","382296.880473","386163.197382","386930.114799","387696.694907","388463.454646","389230.287967","389979.778527","390746.391098","391512.904734","392289.242349","Mapping"
"Blocked","m160","cave","9","m160depth.wav","None","721.620141529","130","385413.921389","392279.869454","393047.103773","393796.3337","379996.748425","380763.456531","381530.111769","382296.880473","386163.197382","386930.114799","387696.694907","388463.454646","389230.287967","389979.778527","390746.391098","391512.904734","393056.729572","Mapping"
"Blocked","m160","cave","9","m160done.wav","None","736.945238896","130","385413.921389","392279.869454","393047.103773","393796.3337","394563.147544","380763.456531","381530.111769","382296.880473","386163.197382","386930.114799","387696.694907","388463.454646","389230.287967","389979.778527","390746.391098","391512.904734","393805.243763","Mapping"
"Blocked","m160","cave","9","m160cave.wav","None","733.409534208","130","385413.921389","392279.869454","393047.103773","393796.3337","394563.147544","395329.688387","381530.111769","382296.880473","386163.197382","386930.114799","387696.694907","388463.454646","389230.287967","389979.778527","390746.391098","391512.904734","394572.442218","Mapping"
"Blocked","m160","cave","9","m160done.wav","space","569.992947858","130","385413.921389","392279.869454","393047.103773","393796.3337","394563.147544","395329.688387","396096.63332","382296.880473","386163.197382","386930.114799","387696.694907","388463.454646","389230.287967","389979.778527","390746.391098","391512.904734","395336.775255","Mapping"
"Blocked","m160","cave","9","m160tile.wav","None","727.004083805","130","385413.921389","392279.869454","393047.103773","393796.3337","394563.147544","395329.688387","396096.63332","396863.26506","386163.197382","386930.114799","387696.694907","388463.454646","389230.287967","389979.778527","390746.391098","391512.904734","396105.64541","Mapping"
"Blocked","m160","ball","2","m160reek.wav","None","723.825783469","130","399980.395637","392279.869454","393047.103773","393796.3337","394563.147544","395329.688387","396096.63332","396863.26506","386163.197382","386930.114799","387696.694907","388463.454646","389230.287967","389979.778527","390746.391098","391512.904734","396872.356298","Mapping"
"Blocked","m160","ball","2","m160cling.wav","None","720.170119312","130","399980.395637","392279.869454","393047.103773","393796.3337","394563.147544","395329.688387","396096.63332","396863.26506","400729.656481","386930.114799","387696.694907","388463.454646","389230.287967","389979.778527","390746.391098","391512.904734","399989.566641","Mapping"
"Blocked","m160","ball","2","m160reek.wav","None","740.122611634","130","399980.395637","392279.869454","393047.103773","393796.3337","394563.147544","395329.688387","396096.63332","396863.26506","400729.656481","401496.366442","387696.694907","388463.454646","389230.287967","389979.778527","390746.391098","391512.904734","400733.552372","Mapping"
"Blocked","m160","ball","2","m160reek.wav","None","732.162329834","130","399980.395637","392279.869454","393047.103773","393796.3337","394563.147544","395329.688387","396096.63332","396863.26506","400729.656481","401496.366442","402263.23099","388463.454646","389230.287967","389979.778527","390746.391098","391512.904734","401505.233529","Mapping"
"Blocked","m160","ball","2","m160ball.wav","None","728.697425686","130","399980.395637","392279.869454","393047.103773","393796.3337","394563.147544","395329.688387","396096.63332","396863.26506","400729.656481","401496.366442","402263.23099","403029.789456","389230.287967","389979.778527","390746.391098","391512.904734","402272.662318","Mapping"
"Blocked","m160","ball","2","m160reek.wav","space","475.721092429","130","399980.395637","392279.869454","393047.103773","393796.3337","394563.147544","395329.688387","396096.63332","396863.26506","400729.656481","401496.366442","402263.23099","403029.789456","403796.270629","389979.778527","390746.391098","391512.904734","403038.926451","Mapping"
"Blocked","m160","ball","2","m160bluff.wav","None","722.858998924","130","399980.395637","392279.869454","393047.103773","393796.3337","394563.147544","395329.688387","396096.63332","396863.26506","400729.656481","401496.366442","402263.23099","403029.789456","403796.270629","404563.428273","390746.391098","391512.904734","403805.278699","Mapping"
"Blocked","m160","ball","2","m160ball.wav","None","719.109964557","130","399980.395637","392279.869454","393047.103773","393796.3337","394563.147544","395329.688387","396096.63332","396863.26506","400729.656481","401496.366442","402263.23099","403029.789456","403796.270629","404563.428273","405313.155969","391512.904734","404572.938441","Mapping"
"Blocked","m160","ball","2","m160priest.wav","space","424.082984682","130","399980.395637","392279.869454","393047.103773","393796.3337","394563.147544","395329.688387","396096.63332","396863.26506","400729.656481","401496.366442","402263.23099","403029.789456","403796.270629","404563.428273","405313.155969","406079.167817","405322.516805","Mapping"
"Blocked","m160","ball","2","m160jaw.wav","None","734.58253732","130","399980.395637","406846.524877","393047.103773","393796.3337","394563.147544","395329.688387","396096.63332","396863.26506","400729.656481","401496.366442","402263.23099","403029.789456","403796.270629","404563.428273","405313.155969","406079.167817","406087.815701","Mapping"
"Blocked","m160","ball","2","m160ball.wav","None","730.523093138","130","399980.395637","406846.524877","407613.078397","393796.3337","394563.147544","395329.688387","396096.63332","396863.26506","400729.656481","401496.366442","402263.23099","403029.789456","403796.270629","404563.428273","405313.155969","406079.167817","406855.614879","Mapping"
"Blocked","m160","ball","2","m160knife.wav","space","468.064418063","130","399980.395637","406846.524877","407613.078397","408380.018074","394563.147544","395329.688387","396096.63332","396863.26506","400729.656481","401496.366442","402263.23099","403029.789456","403796.270629","404563.428273","405313.155969","406079.167817","407622.487156","Mapping"
"Blocked","m160","ball","2","m160ball.wav","None","723.502696957","130","399980.395637","406846.524877","407613.078397","408380.018074","409146.189146","395329.688387","396096.63332","396863.26506","400729.656481","401496.366442","402263.23099","403029.789456","403796.270629","404563.428273","405313.155969","406079.167817","408389.450021","Mapping"
"Blocked","m160","ball","2","m160tile.wav","space","519.478065893","130","399980.395637","406846.524877","407613.078397","408380.018074","409146.189146","409896.188914","396096.63332","396863.26506","400729.656481","401496.366442","402263.23099","403029.789456","403796.270629","404563.428273","405313.155969","406079.167817","409155.077567","Mapping"
"Blocked","m160","ball","2","m160romp.wav","None","740.489291493","130","399980.395637","406846.524877","407613.078397","408380.018074","409146.189146","409896.188914","410663.085616","396863.26506","400729.656481","401496.366442","402263.23099","403029.789456","403796.270629","404563.428273","405313.155969","406079.167817","409899.587346","Mapping"
"Blocked","m160","ball","2","m160cad.wav","None","731.20172834","130","399980.395637","406846.524877","407613.078397","408380.018074","409146.189146","409896.188914","410663.085616","411429.198255","400729.656481","401496.366442","402263.23099","403029.789456","403796.270629","404563.428273","405313.155969","406079.167817","410672.781906","Mapping"
"Blocked","m160","ball","4","m160knife.wav","None","729.719243012","130","414563.316352","406846.524877","407613.078397","408380.018074","409146.189146","409896.188914","410663.085616","411429.198255","400729.656481","401496.366442","402263.23099","403029.789456","403796.270629","404563.428273","405313.155969","406079.167817","411438.117593","Mapping"
"Blocked","m160","ball","4","m160ball.wav","None","719.206735492","130","414563.316352","406846.524877","407613.078397","408380.018074","409146.189146","409896.188914","410663.085616","411429.198255","415312.60193","401496.366442","402263.23099","403029.789456","403796.270629","404563.428273","405313.155969","406079.167817","414573.027483","Mapping"
"Blocked","m160","ball","4","m160park.wav","space","440.986720379","130","414563.316352","406846.524877","407613.078397","408380.018074","409146.189146","409896.188914","410663.085616","411429.198255","415312.60193","416079.451947","402263.23099","403029.789456","403796.270629","404563.428273","405313.155969","406079.167817","415321.437791","Mapping"
"Blocked","m160","ball","4","m160cave.wav","None","730.522783939","130","414563.316352","406846.524877","407613.078397","408380.018074","409146.189146","409896.188914","410663.085616","411429.198255","415312.60193","416079.451947","416846.142121","403029.789456","403796.270629","404563.428273","405313.155969","406079.167817","416088.635937","Mapping"
"Blocked","m160","ball","4","m160cling.wav","None","727.887391578","130","414563.316352","406846.524877","407613.078397","408380.018074","409146.189146","409896.188914","410663.085616","411429.198255","415312.60193","416079.451947","416846.142121","417612.429443","403796.270629","404563.428273","405313.155969","406079.167817","416855.400003","Mapping"
"Blocked","m160","ball","4","m160greet.wav","None","726.19992448","130","414563.316352","406846.524877","407613.078397","408380.018074","409146.189146","409896.188914","410663.085616","411429.198255","415312.60193","416079.451947","416846.142121","417612.429443","418379.555551","404563.428273","405313.155969","406079.167817","417621.070833","Mapping"
"Blocked","m160","ball","4","m160ball.wav","None","722.923925146","130","414563.316352","406846.524877","407613.078397","408380.018074","409146.189146","409896.188914","410663.085616","411429.198255","415312.60193","416079.451947","416846.142121","417612.429443","418379.555551","419146.640539","405313.155969","406079.167817","418388.323394","Mapping"
"Blocked","m160","ball","4","m160greet.wav","space","382.036357187","130","414563.316352","406846.524877","407613.078397","408380.018074","409146.189146","409896.188914","410663.085616","411429.198255","415312.60193","416079.451947","416846.142121","417612.429443","418379.555551","419146.640539","419896.247348","406079.167817","419156.309622","Mapping"
"Blocked","m160","ball","4","m160dime.wav","None","732.950103004","130","414563.316352","406846.524877","407613.078397","408380.018074","409146.189146","409896.188914","410663.085616","411429.198255","415312.60193","416079.451947","416846.142121","417612.429443","418379.555551","419146.640539","419896.247348","420662.627422","419905.319727","Mapping"
"Blocked","m160","ball","4","m160cave.wav","None","730.135390069","130","414563.316352","421429.321924","407613.078397","408380.018074","409146.189146","409896.188914","410663.085616","411429.198255","415312.60193","416079.451947","416846.142121","417612.429443","418379.555551","419146.640539","419896.247348","420662.627422","420672.061533","Mapping"
"Blocked","m160","ball","4","m160ball.wav","None","727.282030508","130","414563.316352","421429.321924","422196.527799","408380.018074","409146.189146","409896.188914","410663.085616","411429.198255","415312.60193","416079.451947","416846.142121","417612.429443","418379.555551","419146.640539","419896.247348","420662.627422","421438.730065","Mapping"
"Blocked","m160","ball","4","m160depth.wav","space","412.108706776","130","414563.316352","421429.321924","422196.527799","422963.10327","409146.189146","409896.188914","410663.085616","411429.198255","415312.60193","416079.451947","416846.142121","417612.429443","418379.555551","419146.640539","419896.247348","420662.627422","422206.200901","Mapping"
"Blocked","m160","ball","4","m160tile.wav","None","719.997600652","130","414563.316352","421429.321924","422196.527799","422963.10327","423712.278782","409896.188914","410663.085616","411429.198255","415312.60193","416079.451947","416846.142121","417612.429443","418379.555551","419146.640539","419896.247348","420662.627422","422972.929104","Mapping"
"Blocked","m160","ball","4","m160ball.wav","None","735.724932048","130","414563.316352","421429.321924","422196.527799","422963.10327","423712.278782","424479.294516","410663.085616","411429.198255","415312.60193","416079.451947","416846.142121","417612.429443","418379.555551","419146.640539","419896.247348","420662.627422","423721.139687","Mapping"
"Blocked","m160","ball","4","m160jaw.wav","space","457.658575848","130","414563.316352","421429.321924","422196.527799","422963.10327","423712.278782","424479.294516","425245.888228","411429.198255","415312.60193","416079.451947","416846.142121","417612.429443","418379.555551","419146.640539","419896.247348","420662.627422","424488.597537","Mapping"
"Blocked","m160","ball","4","m160cave.wav","None","728.98000991","130","414563.316352","421429.321924","422196.527799","422963.10327","423712.278782","424479.294516","425245.888228","426012.346832","415312.60193","416079.451947","416846.142121","417612.429443","418379.555551","419146.640539","419896.247348","420662.627422","425254.823024","Mapping"
"Blocked","m160","ball","3","m160depth.wav","None","726.684707683","130","429129.719181","421429.321924","422196.527799","422963.10327","423712.278782","424479.294516","425245.888228","426012.346832","415312.60193","416079.451947","416846.142121","417612.429443","418379.555551","419146.640539","419896.247348","420662.627422","426021.076028","Mapping"
"Blocked","m160","ball","3","m160ball.wav","None","719.510034658","130","429129.719181","421429.321924","422196.527799","422963.10327","423712.278782","424479.294516","425245.888228","426012.346832","429878.816472","416079.451947","416846.142121","417612.429443","418379.555551","419146.640539","419896.247348","420662.627422","429139.582734","Mapping"
"Blocked","m160","ball","3","m160bluff.wav","space","434.467494022","130","429129.719181","421429.321924","422196.527799","422963.10327","423712.278782","424479.294516","425245.888228","426012.346832","429878.816472","430645.668344","416846.142121","417612.429443","418379.555551","419146.640539","419896.247348","420662.627422","429887.684487","Mapping"
"Blocked","m160","ball","3","m160ball.wav","None","731.922102161","130","429129.719181","421429.321924","422196.527799","422963.10327","423712.278782","424479.294516","425245.888228","426012.346832","429878.816472","430645.668344","431412.666764","417612.429443","418379.555551","419146.640539","419896.247348","420662.627422","430654.407434","Mapping"
"Blocked","m160","ball","3","m160depth.wav","space","428.367197979","130","429129.719181","421429.321924","422196.527799","422963.10327","423712.278782","424479.294516","425245.888228","426012.346832","429878.816472","430645.668344","431412.666764","432179.118875","418379.555551","419146.640539","419896.247348","420662.627422","431421.746871","Mapping"
"Blocked","m160","ball","3","m160reek.wav","None","724.824103527","130","429129.719181","421429.321924","422196.527799","422963.10327","423712.278782","424479.294516","425245.888228","426012.346832","429878.816472","430645.668344","431412.666764","432179.118875","432946.329387","419146.640539","419896.247348","420662.627422","432188.507228","Mapping"
"Blocked","m160","ball","3","m160ball.wav","None","721.621069591","130","429129.719181","421429.321924","422196.527799","422963.10327","423712.278782","424479.294516","425245.888228","426012.346832","429878.816472","430645.668344","431412.666764","432179.118875","432946.329387","433712.802522","419896.247348","420662.627422","432956.007745","Mapping"
"Blocked","m160","ball","3","m160gnash.wav","space","439.106019214","130","429129.719181","421429.321924","422196.527799","422963.10327","423712.278782","424479.294516","425245.888228","426012.346832","429878.816472","430645.668344","431412.666764","432179.118875","432946.329387","433712.802522","434462.431901","420662.627422","433722.995653","Mapping"
"Blocked","m160","ball","3","m160tile.wav","None","733.790745027","130","429129.719181","421429.321924","422196.527799","422963.10327","423712.278782","424479.294516","425245.888228","426012.346832","429878.816472","430645.668344","431412.666764","432179.118875","432946.329387","433712.802522","434462.431901","435228.875973","434471.579099","Mapping"
"Blocked","m160","ball","3","m160cad.wav","None","731.552639976","130","429129.719181","435995.915822","422196.527799","422963.10327","423712.278782","424479.294516","425245.888228","426012.346832","429878.816472","430645.668344","431412.666764","432179.118875","432946.329387","433712.802522","434462.431901","435228.875973","435237.719563","Mapping"
"Blocked","m160","ball","3","m160greet.wav","None","728.319615591","130","429129.719181","435995.915822","436762.085967","422963.10327","423712.278782","424479.294516","425245.888228","426012.346832","429878.816472","430645.668344","431412.666764","432179.118875","432946.329387","433712.802522","434462.431901","435228.875973","436004.998403","Mapping"
"Blocked","m160","ball","3","m160gnash.wav","None","726.695219986","130","429129.719181","435995.915822","436762.085967","437529.167245","423712.278782","424479.294516","425245.888228","426012.346832","429878.816472","430645.668344","431412.666764","432179.118875","432946.329387","433712.802522","434462.431901","435228.875973","436770.869577","Mapping"
"Blocked","m160","ball","3","m160cad.wav","None","723.520320375","130","429129.719181","435995.915822","436762.085967","437529.167245","438295.696031","424479.294516","425245.888228","426012.346832","429878.816472","430645.668344","431412.666764","432179.118875","432946.329387","433712.802522","434462.431901","435228.875973","437538.069578","Mapping"
"Blocked","m160","ball","3","m160ball.wav","None","721.024674363","130","429129.719181","435995.915822","436762.085967","437529.167245","438295.696031","439045.84111","425245.888228","426012.346832","429878.816472","430645.668344","431412.666764","432179.118875","432946.329387","433712.802522","434462.431901","435228.875973","438304.64845","Mapping"
"Blocked","m160","ball","3","m160greet.wav","space","379.217934329","130","429129.719181","435995.915822","436762.085967","437529.167245","438295.696031","439045.84111","439812.372678","426012.346832","429878.816472","430645.668344","431412.666764","432179.118875","432946.329387","433712.802522","434462.431901","435228.875973","439054.765704","Mapping"
"Blocked","m160","ball","3","m160cave.wav","None","731.135565322","130","429129.719181","435995.915822","436762.085967","437529.167245","438295.696031","439045.84111","439812.372678","440578.846122","429878.816472","430645.668344","431412.666764","432179.118875","432946.329387","433712.802522","434462.431901","435228.875973","439821.479993","Mapping"
"Blocked","m160","done","21","m160depth.wav","None","729.026076384","130","443712.73945","435995.915822","436762.085967","437529.167245","438295.696031","439045.84111","439812.372678","440578.846122","429878.816472","430645.668344","431412.666764","432179.118875","432946.329387","433712.802522","434462.431901","435228.875973","440587.744127","Mapping"
"Blocked","m160","done","21","m160done.wav","None","719.944423065","130","443712.73945","435995.915822","436762.085967","437529.167245","438295.696031","439045.84111","439812.372678","440578.846122","444462.029048","430645.668344","431412.666764","432179.118875","432946.329387","433712.802522","434462.431901","435228.875973","443722.391219","Mapping"
"Blocked","m160","done","21","m160depth.wav","space","434.285700321","130","443712.73945","435995.915822","436762.085967","437529.167245","438295.696031","439045.84111","439812.372678","440578.846122","444462.029048","445228.893905","431412.666764","432179.118875","432946.329387","433712.802522","434462.431901","435228.875973","444471.637842","Mapping"
"Blocked","m160","done","21","m160dime.wav","None","731.792249251","130","443712.73945","435995.915822","436762.085967","437529.167245","438295.696031","439045.84111","439812.372678","440578.846122","444462.029048","445228.893905","445995.40414","432179.118875","432946.329387","433712.802522","434462.431901","435228.875973","445237.621246","Mapping"
"Blocked","m160","done","21","m160jaw.wav","space","405.554234982","130","443712.73945","435995.915822","436762.085967","437529.167245","438295.696031","439045.84111","439812.372678","440578.846122","444462.029048","445228.893905","445995.40414","446761.90912","432946.329387","433712.802522","434462.431901","435228.875973","446004.288232","Mapping"
"Blocked","m160","done","21","m160done.wav","None","725.965879858","130","443712.73945","435995.915822","436762.085967","437529.167245","438295.696031","439045.84111","439812.372678","440578.846122","444462.029048","445228.893905","445995.40414","446761.90912","447529.1354","433712.802522","434462.431901","435228.875973","446770.55453","Mapping"
"Blocked","m160","done","21","m160cad.wav","space","622.708524112","130","443712.73945","435995.915822","436762.085967","437529.167245","438295.696031","439045.84111","439812.372678","440578.846122","444462.029048","445228.893905","445995.40414","446761.90912","447529.1354","448278.51744","434462.431901","435228.875973","447539.104071","Mapping"
"Blocked","m160","done","21","m160park.wav","None","736.025139689","130","443712.73945","435995.915822","436762.085967","437529.167245","438295.696031","439045.84111","439812.372678","440578.846122","444462.029048","445228.893905","445995.40414","446761.90912","447529.1354","448278.51744","449045.752686","435228.875973","448287.691536","Mapping"
"Blocked","m160","done","21","m160depth.wav","None","732.942373492","130","443712.73945","435995.915822","436762.085967","437529.167245","438295.696031","439045.84111","439812.372678","440578.846122","444462.029048","445228.893905","445995.40414","446761.90912","447529.1354","448278.51744","449045.752686","449812.020839","449054.801259","Mapping"
"Blocked","m160","done","21","m160done.wav","None","730.803513434","130","443712.73945","450578.961444","436762.085967","437529.167245","438295.696031","439045.84111","439812.372678","440578.846122","444462.029048","445228.893905","445995.40414","446761.90912","447529.1354","448278.51744","449045.752686","449812.020839","449820.970785","Mapping"
"Blocked","m160","done","21","m160knife.wav","space","437.498628162","130","443712.73945","450578.961444","451345.495485","437529.167245","438295.696031","439045.84111","439812.372678","440578.846122","444462.029048","445228.893905","445995.40414","446761.90912","447529.1354","448278.51744","449045.752686","449812.020839","450588.308368","Mapping"
"Blocked","m160","done","21","m160done.wav","None","724.533789791","130","443712.73945","450578.961444","451345.495485","452112.268518","438295.696031","439045.84111","439812.372678","440578.846122","444462.029048","445228.893905","445995.40414","446761.90912","447529.1354","448278.51744","449045.752686","449812.020839","451354.351134","Mapping"
"Blocked","m160","done","21","m160cave.wav","space","480.490398128","130","443712.73945","450578.961444","451345.495485","452112.268518","452861.89666","439045.84111","439812.372678","440578.846122","444462.029048","445228.893905","445995.40414","446761.90912","447529.1354","448278.51744","449045.752686","449812.020839","452121.260511","Mapping"
"Blocked","m160","done","21","m160reek.wav","None","735.305384267","130","443712.73945","450578.961444","451345.495485","452112.268518","452861.89666","453628.817168","439812.372678","440578.846122","444462.029048","445228.893905","445995.40414","446761.90912","447529.1354","448278.51744","449045.752686","449812.020839","452870.692019","Mapping"
"Blocked","m160","done","21","m160jaw.wav","None","732.143160887","130","443712.73945","450578.961444","451345.495485","452112.268518","452861.89666","453628.817168","454395.469005","440578.846122","444462.029048","445228.893905","445995.40414","446761.90912","447529.1354","448278.51744","449045.752686","449812.020839","453637.863885","Mapping"
"Blocked","m160","done","21","m160cling.wav","None","729.655243922","130","443712.73945","450578.961444","451345.495485","452112.268518","452861.89666","453628.817168","454395.469005","455161.820943","444462.029048","445228.893905","445995.40414","446761.90912","447529.1354","448278.51744","449045.752686","449812.020839","454404.571991","Mapping"
"Blocked","m160","tile","14","m160dime.wav","None","727.646236308","130","458296.148969","450578.961444","451345.495485","452112.268518","452861.89666","453628.817168","454395.469005","455161.820943","444462.029048","445228.893905","445995.40414","446761.90912","447529.1354","448278.51744","449045.752686","449812.020839","455170.717402","Mapping"
"Blocked","m160","tile","14","m160tile.wav","None","720.114468597","130","458296.148969","450578.961444","451345.495485","452112.268518","452861.89666","453628.817168","454395.469005","455161.820943","459045.273777","445228.893905","445995.40414","446761.90912","447529.1354","448278.51744","449045.752686","449812.020839","458305.521246","Mapping"
"Blocked","m160","tile","14","m160cling.wav","space","538.942683022","130","458296.148969","450578.961444","451345.495485","452112.268518","452861.89666","453628.817168","454395.469005","455161.820943","459045.273777","459811.980647","445995.40414","446761.90912","447529.1354","448278.51744","449045.752686","449812.020839","459054.661822","Mapping"
"Blocked","m160","tile","14","m160bluff.wav","None","731.424950995","130","458296.148969","450578.961444","451345.495485","452112.268518","452861.89666","453628.817168","454395.469005","455161.820943","459045.273777","459811.980647","460578.74224","446761.90912","447529.1354","448278.51744","449045.752686","449812.020839","459821.459897","Mapping"
"Blocked","m160","tile","14","m160cling.wav","None","729.494783096","130","458296.148969","450578.961444","451345.495485","452112.268518","452861.89666","453628.817168","454395.469005","455161.820943","459045.273777","459811.980647","460578.74224","461345.460858","447529.1354","448278.51744","449045.752686","449812.020839","460587.648283","Mapping"
"Blocked","m160","tile","14","m160cad.wav","None","726.955543738","130","458296.148969","450578.961444","451345.495485","452112.268518","452861.89666","453628.817168","454395.469005","455161.820943","459045.273777","459811.980647","460578.74224","461345.460858","462111.760546","448278.51744","449045.752686","449812.020839","461354.515923","Mapping"
"Blocked","m160","tile","14","m160jaw.wav","None","725.280134007","130","458296.148969","450578.961444","451345.495485","452112.268518","452861.89666","453628.817168","454395.469005","455161.820943","459045.273777","459811.980647","460578.74224","461345.460858","462111.760546","462879.10153","449045.752686","449812.020839","462120.529626","Mapping"
"Blocked","m160","tile","14","m160park.wav","None","720.814127475","130","458296.148969","450578.961444","451345.495485","452112.268518","452861.89666","453628.817168","454395.469005","455161.820943","459045.273777","459811.980647","460578.74224","461345.460858","462111.760546","462879.10153","463628.779758","449812.020839","462889.084114","Mapping"
"Blocked","m160","tile","14","m160bluff.wav","None","736.495082732","130","458296.148969","450578.961444","451345.495485","452112.268518","452861.89666","453628.817168","454395.469005","455161.820943","459045.273777","459811.980647","460578.74224","461345.460858","462111.760546","462879.10153","463628.779758","464395.376871","463637.861412","Mapping"
"Blocked","m160","tile","14","m160tile.wav","None","734.154950827","130","458296.148969","465161.986969","451345.495485","452112.268518","452861.89666","453628.817168","454395.469005","455161.820943","459045.273777","459811.980647","460578.74224","461345.460858","462111.760546","462879.10153","463628.779758","464395.376871","464404.428225","Mapping"
"Blocked","m160","tile","14","m160park.wav","space","550.234307069","130","458296.148969","465161.986969","465928.583155","452112.268518","452861.89666","453628.817168","454395.469005","455161.820943","459045.273777","459811.980647","460578.74224","461345.460858","462111.760546","462879.10153","463628.779758","464395.376871","465171.293392","Mapping"
"Blocked","m160","tile","14","m160gnash.wav","None","728.894677944","130","458296.148969","465161.986969","465928.583155","466695.289406","452861.89666","453628.817168","454395.469005","455161.820943","459045.273777","459811.980647","460578.74224","461345.460858","462111.760546","462879.10153","463628.779758","464395.376871","465937.629563","Mapping"
"Blocked","m160","tile","14","m160tile.wav","None","726.260212716","130","458296.148969","465161.986969","465928.583155","466695.289406","467461.780473","453628.817168","454395.469005","455161.820943","459045.273777","459811.980647","460578.74224","461345.460858","462111.760546","462879.10153","463628.779758","464395.376871","466704.521318","Mapping"
"Blocked","m160","tile","14","m160dime.wav","space","490.913245361","130","458296.148969","465161.986969","465928.583155","466695.289406","467461.780473","468228.87721","454395.469005","455161.820943","459045.273777","459811.980647","460578.74224","461345.460858","462111.760546","462879.10153","463628.779758","464395.376871","467470.56161","Mapping"
"Blocked","m160","tile","14","m160tile.wav","None","719.944732264","130","458296.148969","465161.986969","465928.583155","466695.289406","467461.780473","468228.87721","468978.393431","455161.820943","459045.273777","459811.980647","460578.74224","461345.460858","462111.760546","462879.10153","463628.779758","464395.376871","468238.438391","Mapping"
"Blocked","m160","tile","14","m160jaw.wav","space","621.963725891","130","458296.148969","465161.986969","465928.583155","466695.289406","467461.780473","468228.87721","468978.393431","469744.954989","459045.273777","459811.980647","460578.74224","461345.460858","462111.760546","462879.10153","463628.779758","464395.376871","468987.372748","Mapping"
"Blocked","m160","ball","5","m160dime.wav","None","735.671445727","130","472878.891602","465161.986969","465928.583155","466695.289406","467461.780473","468228.87721","468978.393431","469744.954989","459045.273777","459811.980647","460578.74224","461345.460858","462111.760546","462879.10153","463628.779758","464395.376871","469753.626369","Mapping"
"Blocked","m160","ball","5","m160ball.wav","None","720.153423958","130","472878.891602","465161.986969","465928.583155","466695.289406","467461.780473","468228.87721","468978.393431","469744.954989","473627.949937","459811.980647","460578.74224","461345.460858","462111.760546","462879.10153","463628.779758","464395.376871","472888.204517","Mapping"
"Blocked","m160","ball","5","m160done.wav","space","524.620234966","130","472878.891602","465161.986969","465928.583155","466695.289406","467461.780473","468228.87721","468978.393431","469744.954989","473627.949937","474395.286902","460578.74224","461345.460858","462111.760546","462879.10153","463628.779758","464395.376871","473636.773122","Mapping"
"Blocked","m160","ball","5","m160greet.wav","None","731.096918695","130","472878.891602","465161.986969","465928.583155","466695.289406","467461.780473","468228.87721","468978.393431","469744.954989","473627.949937","474395.286902","475161.553818","461345.460858","462111.760546","462879.10153","463628.779758","464395.376871","474404.909608","Mapping"
"Blocked","m160","ball","5","m160bluff.wav","None","729.929789435","130","472878.891602","465161.986969","465928.583155","466695.289406","467461.780473","468228.87721","468978.393431","469744.954989","473627.949937","474395.286902","475161.553818","475928.451138","462111.760546","462879.10153","463628.779758","464395.376871","475170.300946","Mapping"
"Blocked","m160","ball","5","m160bluff.wav","None","726.79075459","130","472878.891602","465161.986969","465928.583155","466695.289406","467461.780473","468228.87721","468978.393431","469744.954989","473627.949937","474395.286902","475161.553818","475928.451138","476694.846361","462879.10153","463628.779758","464395.376871","475937.716749","Mapping"
"Blocked","m160","ball","5","m160lash.wav","None","725.223246496","130","472878.891602","465161.986969","465928.583155","466695.289406","467461.780473","468228.87721","468978.393431","469744.954989","473627.949937","474395.286902","475161.553818","475928.451138","476694.846361","477461.868896","463628.779758","464395.376871","476703.64543","Mapping"
"Blocked","m160","ball","5","m160greet.wav","None","722.139243502","130","472878.891602","465161.986969","465928.583155","466695.289406","467461.780473","468228.87721","468978.393431","469744.954989","473627.949937","474395.286902","475161.553818","475928.451138","476694.846361","477461.868896","478228.510839","464395.376871","477470.926434","Mapping"
"Blocked","m160","ball","5","m160ball.wav","None","719.112128951","130","472878.891602","465161.986969","465928.583155","466695.289406","467461.780473","468228.87721","468978.393431","469744.954989","473627.949937","474395.286902","475161.553818","475928.451138","476694.846361","477461.868896","478228.510839","478978.129397","478238.304828","Mapping"
"Blocked","m160","ball","5","m160jaw.wav","space","462.150244042","130","472878.891602","479745.02177","465928.583155","466695.289406","467461.780473","468228.87721","468978.393431","469744.954989","473627.949937","474395.286902","475161.553818","475928.451138","476694.846361","477461.868896","478228.510839","478978.129397","478987.148597","Mapping"
"Blocked","m160","ball","5","m160ball.wav","None","730.724674184","130","472878.891602","479745.02177","480511.613937","466695.289406","467461.780473","468228.87721","468978.393431","469744.954989","473627.949937","474395.286902","475161.553818","475928.451138","476694.846361","477461.868896","478228.510839","478978.129397","479753.951001","Mapping"
"Blocked","m160","ball","5","m160cave.wav","space","480.411249679","130","472878.891602","479745.02177","480511.613937","481278.803425","467461.780473","468228.87721","468978.393431","469744.954989","473627.949937","474395.286902","475161.553818","475928.451138","476694.846361","477461.868896","478228.510839","478978.129397","480520.847085","Mapping"
"Blocked","m160","ball","5","m160greet.wav","None","723.601014353","130","472878.891602","479745.02177","480511.613937","481278.803425","482045.55698","468228.87721","468978.393431","469744.954989","473627.949937","474395.286902","475161.553818","475928.451138","476694.846361","477461.868896","478228.510839","478978.129397","481288.158388","Mapping"
"Blocked","m160","ball","5","m160gnash.wav","None","721.062393393","130","472878.891602","479745.02177","480511.613937","481278.803425","482045.55698","482794.861109","468978.393431","469744.954989","473627.949937","474395.286902","475161.553818","475928.451138","476694.846361","477461.868896","478228.510839","478978.129397","482055.248632","Mapping"
"Blocked","m160","ball","5","m160ball.wav","None","736.735619605","130","472878.891602","479745.02177","480511.613937","481278.803425","482045.55698","482794.861109","483561.661967","469744.954989","473627.949937","474395.286902","475161.553818","475928.451138","476694.846361","477461.868896","478228.510839","478978.129397","482803.781992","Mapping"
"Blocked","m160","ball","5","m160jolt.wav","space","446.170008741","130","472878.891602","479745.02177","480511.613937","481278.803425","482045.55698","482794.861109","483561.661967","484328.190752","473627.949937","474395.286902","475161.553818","475928.451138","476694.846361","477461.868896","478228.510839","478978.129397","483571.045064","Mapping"
"Blocked","m160","done","24","m160park.wav","None","730.691283476","130","487461.880645","479745.02177","480511.613937","481278.803425","482045.55698","482794.861109","483561.661967","484328.190752","473627.949937","474395.286902","475161.553818","475928.451138","476694.846361","477461.868896","478228.510839","478978.129397","484337.190784","Mapping"
"Blocked","m160","done","24","m160romp.wav","None","719.246000517","130","487461.880645","479745.02177","480511.613937","481278.803425","482045.55698","482794.861109","483561.661967","484328.190752","488211.519917","474395.286902","475161.553818","475928.451138","476694.846361","477461.868896","478228.510839","478978.129397","487471.6836","Mapping"
"Blocked","m160","done","24","m160done.wav","None","734.559967648","130","487461.880645","479745.02177","480511.613937","481278.803425","482045.55698","482794.861109","483561.661967","484328.190752","488211.519917","488978.222458","475161.553818","475928.451138","476694.846361","477461.868896","478228.510839","478978.129397","488220.65784","Mapping"
"Blocked","m160","done","24","m160jaw.wav","space","477.280871011","130","487461.880645","479745.02177","480511.613937","481278.803425","482045.55698","482794.861109","483561.661967","484328.190752","488211.519917","488978.222458","489744.954989","475928.451138","476694.846361","477461.868896","478228.510839","478978.129397","488987.793533","Mapping"
"Blocked","m160","done","24","m160ball.wav","None","728.772245347","130","487461.880645","479745.02177","480511.613937","481278.803425","482045.55698","482794.861109","483561.661967","484328.190752","488211.519917","488978.222458","489744.954989","490511.597241","476694.846361","477461.868896","478228.510839","478978.129397","489753.768589","Mapping"
"Blocked","m160","done","24","m160done.wav","None","726.259903982","130","487461.880645","479745.02177","480511.613937","481278.803425","482045.55698","482794.861109","483561.661967","484328.190752","488211.519917","488978.222458","489744.954989","490511.597241","491277.892292","477461.868896","478228.510839","478978.129397","490520.701464","Mapping"
"Blocked","m160","done","24","m160tile.wav","space","442.227741703","130","487461.880645","479745.02177","480511.613937","481278.803425","482045.55698","482794.861109","483561.661967","484328.190752","488211.519917","488978.222458","489744.954989","490511.597241","491277.892292","492044.776936","478228.510839","478978.129397","491286.828943","Mapping"
"Blocked","m160","done","24","m160jolt.wav","None","720.7321967","130","487461.880645","479745.02177","480511.613937","481278.803425","482045.55698","482794.861109","483561.661967","484328.190752","488211.519917","488978.222458","489744.954989","490511.597241","491277.892292","492044.776936","492794.753516","478978.129397","492053.730592","Mapping"
"Blocked","m160","done","24","m160reek.wav","None","735.077832825","130","487461.880645","479745.02177","480511.613937","481278.803425","482045.55698","482794.861109","483561.661967","484328.190752","488211.519917","488978.222458","489744.954989","490511.597241","491277.892292","492044.776936","492794.753516","493561.580345","492803.733452","Mapping"
"Blocked","m160","done","24","m160done.wav","None","732.293109875","130","487461.880645","494327.984534","480511.613937","481278.803425","482045.55698","482794.861109","483561.661967","484328.190752","488211.519917","488978.222458","489744.954989","490511.597241","491277.892292","492044.776936","492794.753516","493561.580345","493570.901608","Mapping"
"Blocked","m160","done","24","m160bluff.wav","space","399.623674341","130","487461.880645","494327.984534","495094.841352","481278.803425","482045.55698","482794.861109","483561.661967","484328.190752","488211.519917","488978.222458","489744.954989","490511.597241","491277.892292","492044.776936","492794.753516","493561.580345","494337.374124","Mapping"
"Blocked","m160","done","24","m160ball.wav","None","726.513117086","130","487461.880645","494327.984534","495094.841352","495862.070106","482045.55698","482794.861109","483561.661967","484328.190752","488211.519917","488978.222458","489744.954989","490511.597241","491277.892292","492044.776936","492794.753516","493561.580345","495104.196933","Mapping"
"Blocked","m160","done","24","m160done.wav","None","723.360168282","130","487461.880645","494327.984534","495094.841352","495862.070106","496628.389891","482794.861109","483561.661967","484328.190752","488211.519917","488978.222458","489744.954989","490511.597241","491277.892292","492044.776936","492794.753516","493561.580345","495871.741662","Mapping"
"Blocked","m160","done","24","m160cad.wav","space","530.618504155","130","487461.880645","494327.984534","495094.841352","495862.070106","496628.389891","497377.861591","483561.661967","484328.190752","488211.519917","488978.222458","489744.954989","490511.597241","491277.892292","492044.776936","492794.753516","493561.580345","496638.373093","Mapping"
"Blocked","m160","done","24","m160cad.wav","None","735.4389471","130","487461.880645","494327.984534","495094.841352","495862.070106","496628.389891","497377.861591","498144.869904","484328.190752","488211.519917","488978.222458","489744.954989","490511.597241","491277.892292","492044.776936","492794.753516","493561.580345","497386.848019","Mapping"
"Blocked","m160","done","24","m160romp.wav","None","738.186878152","130","487461.880645","494327.984534","495094.841352","495862.070106","496628.389891","497377.861591","498144.869904","498911.326034","488211.519917","488978.222458","489744.954989","490511.597241","491277.892292","492044.776936","492794.753516","493561.580345","498148.506709","Mapping"
"Blocked","m160","tile","18","m160cling.wav","None","730.594202876","130","502045.09693","494327.984534","495094.841352","495862.070106","496628.389891","497377.861591","498144.869904","498911.326034","488211.519917","488978.222458","489744.954989","490511.597241","491277.892292","492044.776936","492794.753516","493561.580345","498920.39563","Mapping"
"Blocked","m160","tile","18","m160tile.wav","None","719.113365281","130","502045.09693","494327.984534","495094.841352","495862.070106","496628.389891","497377.861591","498144.869904","498911.326034","502794.276771","488978.222458","489744.954989","490511.597241","491277.892292","492044.776936","492794.753516","493561.580345","502054.762921","Mapping"
"Blocked","m160","tile","18","m160priest.wav","space","557.673632633","130","502045.09693","494327.984534","495094.841352","495862.070106","496628.389891","497377.861591","498144.869904","498911.326034","502794.276771","503561.02136","489744.954989","490511.597241","491277.892292","492044.776936","492794.753516","493561.580345","502803.209712","Mapping"
"Blocked","m160","tile","18","m160priest.wav","None","731.826258358","130","502045.09693","494327.984534","495094.841352","495862.070106","496628.389891","497377.861591","498144.869904","498911.326034","502794.276771","503561.02136","504327.893946","490511.597241","491277.892292","492044.776936","492794.753516","493561.580345","503569.738807","Mapping"
"Blocked","m160","tile","18","m160jolt.wav","None","729.28825533","130","502045.09693","494327.984534","495094.841352","495862.070106","496628.389891","497377.861591","498144.869904","498911.326034","502794.276771","503561.02136","504327.893946","505094.745508","491277.892292","492044.776936","492794.753516","493561.580345","504336.803081","Mapping"
"Blocked","m160","tile","18","m160cling.wav","None","726.738504134","130","502045.09693","494327.984534","495094.841352","495862.070106","496628.389891","497377.861591","498144.869904","498911.326034","502794.276771","503561.02136","504327.893946","505094.745508","505861.52658","492044.776936","492794.753516","493561.580345","505103.726372","Mapping"
"Blocked","m160","tile","18","m160tile.wav","None","723.658211064","130","502045.09693","494327.984534","495094.841352","495862.070106","496628.389891","497377.861591","498144.869904","498911.326034","502794.276771","503561.02136","504327.893946","505094.745508","505861.52658","506628.2183","492794.753516","493561.580345","505871.347466","Mapping"
"Blocked","m160","tile","18","m160cad.wav","space","547.084450256","130","502045.09693","494327.984534","495094.841352","495862.070106","496628.389891","497377.861591","498144.869904","498911.326034","502794.276771","503561.02136","504327.893946","505094.745508","505861.52658","506628.2183","507377.503878","493561.580345","506637.698787","Mapping"
"Blocked","m160","tile","18","m160tile.wav","None","736.145407427","130","502045.09693","494327.984534","495094.841352","495862.070106","496628.389891","497377.861591","498144.869904","498911.326034","502794.276771","503561.02136","504327.893946","505094.745508","505861.52658","506628.2183","507377.503878","508144.640807","507386.553377","Mapping"
"Blocked","m160","tile","18","m160park.wav","space","583.143011667","130","502045.09693","508910.868767","495094.841352","495862.070106","496628.389891","497377.861591","498144.869904","498911.326034","502794.276771","503561.02136","504327.893946","505094.745508","505861.52658","506628.2183","507377.503878","508144.640807","508153.627853","Mapping"
"Blocked","m160","tile","18","m160jolt.wav","None","730.598840863","130","502045.09693","508910.868767","509677.738262","495862.070106","496628.389891","497377.861591","498144.869904","498911.326034","502794.276771","503561.02136","504327.893946","505094.745508","505861.52658","506628.2183","507377.503878","508144.640807","508919.673711","Mapping"
"Blocked","m160","tile","18","m160jaw.wav","None","728.382068686","130","502045.09693","508910.868767","509677.738262","510444.499855","496628.389891","497377.861591","498144.869904","498911.326034","502794.276771","503561.02136","504327.893946","505094.745508","505861.52658","506628.2183","507377.503878","508144.640807","509686.361721","Mapping"
"Blocked","m160","tile","18","m160lash.wav","None","726.063888054","130","502045.09693","508910.868767","509677.738262","510444.499855","511211.513733","497377.861591","498144.869904","498911.326034","502794.276771","503561.02136","504327.893946","505094.745508","505861.52658","506628.2183","507377.503878","508144.640807","510453.533896","Mapping"
"Blocked","m160","tile","18","m160tile.wav","None","722.913722042","130","502045.09693","508910.868767","509677.738262","510444.499855","511211.513733","511978.351692","498144.869904","498911.326034","502794.276771","503561.02136","504327.893946","505094.745508","505861.52658","506628.2183","507377.503878","508144.640807","511221.166739","Mapping"
"Blocked","m160","tile","18","m160dime.wav","space","500.541207846","130","502045.09693","508910.868767","509677.738262","510444.499855","511211.513733","511978.351692","512727.681173","498911.326034","502794.276771","503561.02136","504327.893946","505094.745508","505861.52658","506628.2183","507377.503878","508144.640807","511988.203805","Mapping"
"Blocked","m160","tile","18","m160depth.wav","None","735.021563247","130","502045.09693","508910.868767","509677.738262","510444.499855","511211.513733","511978.351692","512727.681173","513494.467191","502794.276771","503561.02136","504327.893946","505094.745508","505861.52658","506628.2183","507377.503878","508144.640807","512736.692644","Mapping"
"Blocked","m160","done","22","m160gnash.wav","None","732.643712312","130","516628.023521","508910.868767","509677.738262","510444.499855","511211.513733","511978.351692","512727.681173","513494.467191","502794.276771","503561.02136","504327.893946","505094.745508","505861.52658","506628.2183","507377.503878","508144.640807","513503.605114","Mapping"
"Blocked","m160","done","22","m160jaw.wav","None","719.884134363","130","516628.023521","508910.868767","509677.738262","510444.499855","511211.513733","511978.351692","512727.681173","513494.467191","517377.49924","503561.02136","504327.893946","505094.745508","505861.52658","506628.2183","507377.503878","508144.640807","516637.593977","Mapping"
"Blocked","m160","done","22","m160jaw.wav","None","735.733279958","130","516628.023521","508910.868767","509677.738262","510444.499855","511211.513733","511978.351692","512727.681173","513494.467191","517377.49924","518144.447574","504327.893946","505094.745508","505861.52658","506628.2183","507377.503878","508144.640807","517386.441147","Mapping"
"Blocked","m160","done","22","m160park.wav","None","733.246290591","130","516628.023521","508910.868767","509677.738262","510444.499855","511211.513733","511978.351692","512727.681173","513494.467191","517377.49924","518144.447574","518910.756846","505094.745508","505861.52658","506628.2183","507377.503878","508144.640807","518153.508513","Mapping"
"Blocked","m160","done","22","m160jaw.wav","None","731.86150426","130","516628.023521","508910.868767","509677.738262","510444.499855","511211.513733","511978.351692","512727.681173","513494.467191","517377.49924","518144.447574","518910.756846","519677.568835","505861.52658","506628.2183","507377.503878","508144.640807","518919.557152","Mapping"
"Blocked","m160","done","22","m160done.wav","None","729.891143274","130","516628.023521","508910.868767","509677.738262","510444.499855","511211.513733","511978.351692","512727.681173","513494.467191","517377.49924","518144.447574","518910.756846","519677.568835","520444.340631","506628.2183","507377.503878","508144.640807","519686.245472","Mapping"
"Blocked","m160","done","22","m160knife.wav","space","499.112827703","130","516628.023521","508910.868767","509677.738262","510444.499855","511211.513733","511978.351692","512727.681173","513494.467191","517377.49924","518144.447574","518910.756846","519677.568835","520444.340631","521211.262994","507377.503878","508144.640807","520453.432178","Mapping"
"Blocked","m160","done","22","m160done.wav","None","723.217021208","130","516628.023521","508910.868767","509677.738262","510444.499855","511211.513733","511978.351692","512727.681173","513494.467191","517377.49924","518144.447574","518910.756846","519677.568835","520444.340631","521211.262994","521977.674912","508144.640807","521220.794495","Mapping"
"Blocked","m160","done","22","m160greet.wav","space","485.838166904","130","516628.023521","508910.868767","509677.738262","510444.499855","511211.513733","511978.351692","512727.681173","513494.467191","517377.49924","518144.447574","518910.756846","519677.568835","520444.340631","521211.262994","521977.674912","522727.398898","521986.680509","Mapping"
"Blocked","m160","done","22","m160done.wav","None","735.217579175","130","516628.023521","523494.349705","509677.738262","510444.499855","511211.513733","511978.351692","512727.681173","513494.467191","517377.49924","518144.447574","518910.756846","519677.568835","520444.340631","521211.262994","521977.674912","522727.398898","522736.497247","Mapping"
"Blocked","m160","done","22","m160cling.wav","space","481.036088895","130","516628.023521","523494.349705","524260.970624","510444.499855","511211.513733","511978.351692","512727.681173","513494.467191","517377.49924","518144.447574","518910.756846","519677.568835","520444.340631","521211.262994","521977.674912","522727.398898","523503.423629","Mapping"
"Blocked","m160","done","22","m160jolt.wav","None","729.211889673","130","516628.023521","523494.349705","524260.970624","525027.492299","511211.513733","511978.351692","512727.681173","513494.467191","517377.49924","518144.447574","518910.756846","519677.568835","520444.340631","521211.262994","521977.674912","522727.398898","524269.901092","Mapping"
"Blocked","m160","done","22","m160done.wav","None","726.249701343","130","516628.023521","523494.349705","524260.970624","525027.492299","525794.246781","511978.351692","512727.681173","513494.467191","517377.49924","518144.447574","518910.756846","519677.568835","520444.340631","521211.262994","521977.674912","522727.398898","525037.43129","Mapping"
"Blocked","m160","done","22","m160lash.wav","space","485.269288532","130","516628.023521","523494.349705","524260.970624","525027.492299","525794.246781","526560.780823","512727.681173","513494.467191","517377.49924","518144.447574","518910.756846","519677.568835","520444.340631","521211.262994","521977.674912","522727.398898","525803.163955","Mapping"
"Blocked","m160","done","22","m160jolt.wav","None","721.200284548","130","516628.023521","523494.349705","524260.970624","525027.492299","525794.246781","526560.780823","527310.430298","513494.467191","517377.49924","518144.447574","518910.756846","519677.568835","520444.340631","521211.262994","521977.674912","522727.398898","526569.923074","Mapping"
"Blocked","m160","done","22","m160depth.wav","None","736.54826032","130","516628.023521","523494.349705","524260.970624","525027.492299","525794.246781","526560.780823","527310.430298","528077.471693","517377.49924","518144.447574","518910.756846","519677.568835","520444.340631","521211.262994","521977.674912","522727.398898","527319.127958","Mapping"
"Blocked","m160","cave","7","m160park.wav","None","733.32049232","130","531211.223729","523494.349705","524260.970624","525027.492299","525794.246781","526560.780823","527310.430298","528077.471693","517377.49924","518144.447574","518910.756846","519677.568835","520444.340631","521211.262994","521977.674912","522727.398898","528087.137993","Mapping"
"Blocked","m160","cave","7","m160cave.wav","None","719.455929473","130","531211.223729","523494.349705","524260.970624","525027.492299","525794.246781","526560.780823","527310.430298","528077.471693","531960.716762","518144.447574","518910.756846","519677.568835","520444.340631","521211.262994","521977.674912","522727.398898","531220.815828","Mapping"
"Blocked","m160","cave","7","m160priest.wav","space","542.478388175","130","531211.223729","523494.349705","524260.970624","525027.492299","525794.246781","526560.780823","527310.430298","528077.471693","531960.716762","532727.069938","518910.756846","519677.568835","520444.340631","521211.262994","521977.674912","522727.398898","531969.86767","Mapping"
"Blocked","m160","cave","7","m160gnash.wav","None","731.9323048","130","531211.223729","523494.349705","524260.970624","525027.492299","525794.246781","526560.780823","527310.430298","528077.471693","531960.716762","532727.069938","533493.838333","519677.568835","520444.340631","521211.262994","521977.674912","522727.398898","532735.963923","Mapping"
"Blocked","m160","cave","7","m160cave.wav","None","729.855897836","130","531211.223729","523494.349705","524260.970624","525027.492299","525794.246781","526560.780823","527310.430298","528077.471693","531960.716762","532727.069938","533493.838333","534260.384741","520444.340631","521211.262994","521977.674912","522727.398898","533502.674812","Mapping"
"Blocked","m160","cave","7","m160done.wav","space","547.24398395","130","531211.223729","523494.349705","524260.970624","525027.492299","525794.246781","526560.780823","527310.430298","528077.471693","531960.716762","532727.069938","533493.838333","534260.384741","535027.88093","521211.262994","521977.674912","522727.398898","534269.044682","Mapping"
"Blocked","m160","cave","7","m160cave.wav","None","722.557554953","130","531211.223729","523494.349705","524260.970624","525027.492299","525794.246781","526560.780823","527310.430298","528077.471693","531960.716762","532727.069938","533493.838333","534260.384741","535027.88093","535794.416208","521977.674912","522727.398898","535037.764269","Mapping"
"Blocked","m160","cave","7","m160tile.wav","None","720.067164395","130","531211.223729","523494.349705","524260.970624","525027.492299","525794.246781","526560.780823","527310.430298","528077.471693","531960.716762","532727.069938","533493.838333","534260.384741","535027.88093","535794.416208","536544.419068","522727.398898","535804.774747","Mapping"
"Blocked","m160","cave","7","m160park.wav","space","142.909127753","130","531211.223729","523494.349705","524260.970624","525027.492299","525794.246781","526560.780823","527310.430298","528077.471693","531960.716762","532727.069938","533493.838333","534260.384741","535027.88093","535794.416208","536544.419068","537310.542528","536553.368396","Mapping"
"Blocked","m160","cave","7","m160greet.wav","None","732.835399453","130","531211.223729","538076.91951","524260.970624","525027.492299","525794.246781","526560.780823","527310.430298","528077.471693","531960.716762","532727.069938","533493.838333","534260.384741","535027.88093","535794.416208","536544.419068","537310.542528","537319.733319","Mapping"
"Blocked","m160","cave","7","m160gnash.wav","None","731.352295727","130","531211.223729","538076.91951","538843.733662","525027.492299","525794.246781","526560.780823","527310.430298","528077.471693","531960.716762","532727.069938","533493.838333","534260.384741","535027.88093","535794.416208","536544.419068","537310.542528","538085.843484","Mapping"
"Blocked","m160","cave","7","m160priest.wav","None","729.119756259","130","531211.223729","538076.91951","538843.733662","539610.547815","525794.246781","526560.780823","527310.430298","528077.471693","531960.716762","532727.069938","533493.838333","534260.384741","535027.88093","535794.416208","536544.419068","537310.542528","538852.756882","Mapping"
"Blocked","m160","cave","7","m160cave.wav","None","726.794773247","130","531211.223729","538076.91951","538843.733662","539610.547815","540377.718753","526560.780823","527310.430298","528077.471693","531960.716762","532727.069938","533493.838333","534260.384741","535027.88093","535794.416208","536544.419068","537310.542528","539619.618338","Mapping"
