"Condition","Talker","Target","Trial","current_stimulus","response_response","response_time_response","subject_nr","time_Audio1","time_Audio10","time_Audio11","time_Audio12","time_Audio13","time_Audio14","time_Audio15","time_Audio16","time_Audio2","time_Audio3","time_Audio4","time_Audio5","time_Audio6","time_Audio7","time_Audio8","time_Audio9","time_response","title"
"Mixed","Both","ball","12","m160romp.wav","NA","NA","136","145988.697211","NA","NA","NA","NA","NA","NA","NA","NA","NA","NA","NA","NA","NA","NA","NA","NA","Mapping"
"Mixed","Both","ball","12","m160priest.wav","None","717.419459368","136","145988.697211","NA","NA","NA","NA","NA","NA","NA","146755.505696","NA","NA","NA","NA","NA","NA","NA","146003.56787","Mapping"
"Mixed","Both","ball","12","m160bluff.wav","None","721.925054328","136","145988.697211","NA","NA","NA","NA","NA","NA","NA","146755.505696","147521.357287","NA","NA","NA","NA","NA","NA","146765.610435","Mapping"
"Mixed","Both","ball","12","m150jolt.wav","None","723.267179332","136","145988.697211","NA","NA","NA","NA","NA","NA","NA","146755.505696","147521.357287","148288.31232","NA","NA","NA","NA","NA","147530.860682","Mapping"
"Mixed","Both","ball","12","m150ball.wav","None","722.314613755","136","145988.697211","NA","NA","NA","NA","NA","NA","NA","146755.505696","147521.357287","148288.31232","149055.225924","NA","NA","NA","NA","148299.100952","Mapping"
"Mixed","Both","ball","12","m160knife.wav","space","406.028834172","136","145988.697211","NA","NA","NA","NA","NA","NA","NA","146755.505696","147521.357287","148288.31232","149055.225924","149821.672985","NA","NA","NA","149065.175149","Mapping"
"Mixed","Both","ball","12","m150ball.wav","None","722.000492853","136","145988.697211","NA","NA","NA","NA","NA","NA","NA","146755.505696","147521.357287","148288.31232","149055.225924","149821.672985","150589.202464","NA","NA","149832.536437","Mapping"
"Mixed","Both","ball","12","m150lash.wav","space","431.850132067","136","145988.697211","NA","NA","NA","NA","NA","NA","NA","146755.505696","147521.357287","148288.31232","149055.225924","149821.672985","150589.202464","151338.187677","NA","150599.352033","Mapping"
"Mixed","Both","ball","12","m160greet.wav","None","736.233325093","136","145988.697211","NA","NA","NA","NA","NA","NA","NA","146755.505696","147521.357287","148288.31232","149055.225924","149821.672985","150589.202464","151338.187677","152104.046069","151348.21234","Mapping"
"Mixed","Both","ball","12","m160ball.wav","None","737.642231747","136","145988.697211","152888.328768","NA","NA","NA","NA","NA","NA","146755.505696","147521.357287","148288.31232","149055.225924","149821.672985","150589.202464","151338.187677","152104.046069","152113.458258","Mapping"
"Mixed","Both","ball","12","m150cave.wav","space","365.032341215","136","145988.697211","152888.328768","153637.223084","NA","NA","NA","NA","NA","146755.505696","147521.357287","148288.31232","149055.225924","149821.672985","150589.202464","151338.187677","152104.046069","152898.117222","Mapping"
"Mixed","Both","ball","12","m150priest.wav","None","738.020351739","136","145988.697211","152888.328768","153637.223084","154404.142254","NA","NA","NA","NA","146755.505696","147521.357287","148288.31232","149055.225924","149821.672985","150589.202464","151338.187677","152104.046069","153646.271684","Mapping"
"Mixed","Both","ball","12","m150jolt.wav","None","737.477441784","136","145988.697211","152888.328768","153637.223084","154404.142254","155171.059877","NA","NA","NA","146755.505696","147521.357287","148288.31232","149055.225924","149821.672985","150589.202464","151338.187677","152104.046069","154413.449632","Mapping"
"Mixed","Both","ball","12","m160ball.wav","None","733.637189609","136","145988.697211","152888.328768","153637.223084","154404.142254","155171.059877","155937.547748","NA","NA","146755.505696","147521.357287","148288.31232","149055.225924","149821.672985","150589.202464","151338.187677","152104.046069","155180.430327","Mapping"
"Mixed","Both","ball","12","m160done.wav","space","284.090238041","136","145988.697211","152888.328768","153637.223084","154404.142254","155171.059877","155937.547748","156704.460734","NA","146755.505696","147521.357287","148288.31232","149055.225924","149821.672985","150589.202464","151338.187677","152104.046069","155947.013733","Mapping"
"Mixed","Both","ball","12","m150bluff.wav","None","729.430256994","136","145988.697211","152888.328768","153637.223084","154404.142254","155171.059877","155937.547748","156704.460734","157470.906557","146755.505696","147521.357287","148288.31232","149055.225924","149821.672985","150589.202464","151338.187677","152104.046069","156714.190754","Mapping"
"Mixed","Both","done","48","m160bluff.wav","None","729.920297978","136","160788.283722","152888.328768","153637.223084","154404.142254","155171.059877","155937.547748","156704.460734","157470.906557","146755.505696","147521.357287","148288.31232","149055.225924","149821.672985","150589.202464","151338.187677","152104.046069","157480.431286","Mapping"
"Mixed","Both","done","48","m150done.wav","None","719.801955391","136","160788.283722","152888.328768","153637.223084","154404.142254","155171.059877","155937.547748","156704.460734","157470.906557","161554.693681","147521.357287","148288.31232","149055.225924","149821.672985","150589.202464","151338.187677","152104.046069","160798.357543","Mapping"
"Mixed","Both","done","48","m150knife.wav","space","490.884772968","136","160788.283722","152888.328768","153637.223084","154404.142254","155171.059877","155937.547748","156704.460734","157470.906557","161554.693681","162321.260083","148288.31232","149055.225924","149821.672985","150589.202464","151338.187677","152104.046069","161564.154101","Mapping"
"Mixed","Both","done","48","m160lash.wav","None","720.628377865","136","160788.283722","152888.328768","153637.223084","154404.142254","155171.059877","155937.547748","156704.460734","157470.906557","161554.693681","162321.260083","163088.601893","149055.225924","149821.672985","150589.202464","151338.187677","152104.046069","162331.005252","Mapping"
"Mixed","Both","done","48","m160done.wav","None","719.567910652","136","160788.283722","152888.328768","153637.223084","154404.142254","155171.059877","155937.547748","156704.460734","157470.906557","161554.693681","162321.260083","163088.601893","163837.752823","149821.672985","150589.202464","151338.187677","152104.046069","163098.694265","Mapping"
"Mixed","Both","done","48","m160cling.wav","space","343.180530122","136","160788.283722","152888.328768","153637.223084","154404.142254","155171.059877","155937.547748","156704.460734","157470.906557","161554.693681","162321.260083","163088.601893","163837.752823","164604.053953","150589.202464","151338.187677","152104.046069","163847.803148","Mapping"
"Mixed","Both","done","48","m160dime.wav","None","735.141940298","136","160788.283722","152888.328768","153637.223084","154404.142254","155171.059877","155937.547748","156704.460734","157470.906557","161554.693681","162321.260083","163088.601893","163837.752823","164604.053953","165370.845743","151338.187677","152104.046069","164613.1075","Mapping"
"Mixed","Both","done","48","m160done.wav","space","483.171496075","136","160788.283722","152888.328768","153637.223084","154404.142254","155171.059877","155937.547748","156704.460734","157470.906557","161554.693681","162321.260083","163088.601893","163837.752823","164604.053953","165370.845743","166137.57106","152104.046069","165379.803755","Mapping"
"Mixed","Both","done","48","m150cad.wav","None","730.751976487","136","160788.283722","152888.328768","153637.223084","154404.142254","155171.059877","155937.547748","156704.460734","157470.906557","161554.693681","162321.260083","163088.601893","163837.752823","164604.053953","165370.845743","166137.57106","166904.197132","166148.222419","Mapping"
"Mixed","Both","done","48","m150tile.wav","None","731.696194387","136","160788.283722","167671.112591","153637.223084","154404.142254","155171.059877","155937.547748","156704.460734","157470.906557","161554.693681","162321.260083","163088.601893","163837.752823","164604.053953","165370.845743","166137.57106","166904.197132","166914.059478","Mapping"
"Mixed","Both","done","48","m150ball.wav","None","732.353189378","136","160788.283722","167671.112591","168437.324988","154404.142254","155171.059877","155937.547748","156704.460734","157470.906557","161554.693681","162321.260083","163088.601893","163837.752823","164604.053953","165370.845743","166137.57106","166904.197132","167679.972286","Mapping"
"Mixed","Both","done","48","m150done.wav","None","729.022456217","136","160788.283722","167671.112591","168437.324988","169204.173356","155171.059877","155937.547748","156704.460734","157470.906557","161554.693681","162321.260083","163088.601893","163837.752823","164604.053953","165370.845743","166137.57106","166904.197132","168446.648444","Mapping"
"Mixed","Both","done","48","m150jaw.wav","space","449.121218757","136","160788.283722","167671.112591","168437.324988","169204.173356","169970.824162","155937.547748","156704.460734","157470.906557","161554.693681","162321.260083","163088.601893","163837.752823","164604.053953","165370.845743","166137.57106","166904.197132","169213.786199","Mapping"
"Mixed","Both","done","48","m150ball.wav","None","724.636820843","136","160788.283722","167671.112591","168437.324988","169204.173356","169970.824162","170737.965937","156704.460734","157470.906557","161554.693681","162321.260083","163088.601893","163837.752823","164604.053953","165370.845743","166137.57106","166904.197132","169980.687746","Mapping"
"Mixed","Both","done","48","m160cave.wav","None","720.168635948","136","160788.283722","167671.112591","168437.324988","169204.173356","169970.824162","170737.965937","171504.139687","157470.906557","161554.693681","162321.260083","163088.601893","163837.752823","164604.053953","165370.845743","166137.57106","166904.197132","170748.473839","Mapping"
"Mixed","Both","done","48","m160reek.wav","None","721.658546245","136","160788.283722","167671.112591","168437.324988","169204.173356","169970.824162","170737.965937","171504.139687","172270.923438","161554.693681","162321.260083","163088.601893","163837.752823","164604.053953","165370.845743","166137.57106","166904.197132","171513.506737","Mapping"
"Mixed","Both","tile","30","m160park.wav","None","713.700403343","136","175387.946784","167671.112591","168437.324988","169204.173356","169970.824162","170737.965937","171504.139687","172270.923438","161554.693681","162321.260083","163088.601893","163837.752823","164604.053953","165370.845743","166137.57106","166904.197132","172288.287896","Mapping"
"Mixed","Both","tile","30","m150priest.wav","None","722.36593673","136","175387.946784","167671.112591","168437.324988","169204.173356","169970.824162","170737.965937","171504.139687","172270.923438","176137.214891","162321.260083","163088.601893","163837.752823","164604.053953","165370.845743","166137.57106","166904.197132","175397.850559","Mapping"
"Mixed","Both","tile","30","m160jaw.wav","None","736.059260089","136","175387.946784","167671.112591","168437.324988","169204.173356","169970.824162","170737.965937","171504.139687","172270.923438","176137.214891","176903.747593","163088.601893","163837.752823","164604.053953","165370.845743","166137.57106","166904.197132","176147.538835","Mapping"
"Mixed","Both","tile","30","m150jaw.wav","None","737.021100824","136","175387.946784","167671.112591","168437.324988","169204.173356","169970.824162","170737.965937","171504.139687","172270.923438","176137.214891","176903.747593","177670.772809","163837.752823","164604.053953","165370.845743","166137.57106","166904.197132","176913.154216","Mapping"
"Mixed","Both","tile","30","m150tile.wav","None","732.998126769","136","175387.946784","167671.112591","168437.324988","169204.173356","169970.824162","170737.965937","171504.139687","172270.923438","176137.214891","176903.747593","177670.772809","178437.514821","164604.053953","165370.845743","166137.57106","166904.197132","177680.571156","Mapping"
"Mixed","Both","tile","30","m160ball.wav","space","543.384708813","136","175387.946784","167671.112591","168437.324988","169204.173356","169970.824162","170737.965937","171504.139687","172270.923438","176137.214891","176903.747593","177670.772809","178437.514821","179204.023098","165370.845743","166137.57106","166904.197132","178447.390153","Mapping"
"Mixed","Both","tile","30","m160tile.wav","None","725.969052291","136","175387.946784","167671.112591","168437.324988","169204.173356","169970.824162","170737.965937","171504.139687","172270.923438","176137.214891","176903.747593","177670.772809","178437.514821","179204.023098","179970.784279","166137.57106","166904.197132","179214.112069","Mapping"
"Mixed","Both","tile","30","m150park.wav","None","726.305124583","136","175387.946784","167671.112591","168437.324988","169204.173356","169970.824162","170737.965937","171504.139687","172270.923438","176137.214891","176903.747593","177670.772809","178437.514821","179204.023098","179970.784279","180737.119418","166904.197132","179980.52512","Mapping"
"Mixed","Both","tile","30","m160cad.wav","space","0.0234971521422","136","175387.946784","167671.112591","168437.324988","169204.173356","169970.824162","170737.965937","171504.139687","172270.923438","176137.214891","176903.747593","177670.772809","178437.514821","179204.023098","179970.784279","180737.119418","181504.05992","180746.13741","Mapping"
"Mixed","Both","tile","30","m160dime.wav","None","726.973868208","136","175387.946784","182270.762668","168437.324988","169204.173356","169970.824162","170737.965937","171504.139687","172270.923438","176137.214891","176903.747593","177670.772809","178437.514821","179204.023098","179970.784279","180737.119418","181504.05992","181513.585885","Mapping"
"Mixed","Both","tile","30","m150park.wav","None","724.220672506","136","175387.946784","182270.762668","183020.607385","169204.173356","169970.824162","170737.965937","171504.139687","172270.923438","176137.214891","176903.747593","177670.772809","178437.514821","179204.023098","179970.784279","180737.119418","181504.05992","182279.78035","Mapping"
"Mixed","Both","tile","30","m150tile.wav","None","736.878880765","136","175387.946784","182270.762668","183020.607385","183787.285708","169970.824162","170737.965937","171504.139687","172270.923438","176137.214891","176903.747593","177670.772809","178437.514821","179204.023098","179970.784279","180737.119418","181504.05992","183030.622154","Mapping"
"Mixed","Both","tile","30","m150cad.wav","space","401.397714508","136","175387.946784","182270.762668","183020.607385","183787.285708","184553.952281","170737.965937","171504.139687","172270.923438","176137.214891","176903.747593","177670.772809","178437.514821","179204.023098","179970.784279","180737.119418","181504.05992","183797.30666","Mapping"
"Mixed","Both","tile","30","m160jaw.wav","None","730.417450075","136","175387.946784","182270.762668","183020.607385","183787.285708","184553.952281","185320.502297","171504.139687","172270.923438","176137.214891","176903.747593","177670.772809","178437.514821","179204.023098","179970.784279","180737.119418","181504.05992","184563.575018","Mapping"
"Mixed","Both","tile","30","m160tile.wav","None","727.441030438","136","175387.946784","182270.762668","183020.607385","183787.285708","184553.952281","185320.502297","186087.795876","172270.923438","176137.214891","176903.747593","177670.772809","178437.514821","179204.023098","179970.784279","180737.119418","181504.05992","185329.921906","Mapping"
"Mixed","Both","tile","30","m150lash.wav","space","668.55046479","136","175387.946784","182270.762668","183020.607385","183787.285708","184553.952281","185320.502297","186087.795876","186837.059655","176137.214891","176903.747593","177670.772809","178437.514821","179204.023098","179970.784279","180737.119418","181504.05992","186098.11951","Mapping"
"Mixed","Both","done","45","m150reek.wav","None","736.766959773","136","189970.773149","182270.762668","183020.607385","183787.285708","184553.952281","185320.502297","186087.795876","186837.059655","176137.214891","176903.747593","177670.772809","178437.514821","179204.023098","179970.784279","180737.119418","181504.05992","186847.148317","Mapping"
"Mixed","Both","done","45","m150greet.wav","None","722.946874914","136","189970.773149","182270.762668","183020.607385","183787.285708","184553.952281","185320.502297","186087.795876","186837.059655","190737.146316","176903.747593","177670.772809","178437.514821","179204.023098","179970.784279","180737.119418","181504.05992","189981.071431","Mapping"
"Mixed","Both","done","45","m150done.wav","None","724.068867974","136","189970.773149","182270.762668","183020.607385","183787.285708","184553.952281","185320.502297","186087.795876","186837.059655","190737.146316","191487.099245","177670.772809","178437.514821","179204.023098","179970.784279","180737.119418","181504.05992","190746.671972","Mapping"
"Mixed","Both","done","45","m160cling.wav","space","444.479896454","136","189970.773149","182270.762668","183020.607385","183787.285708","184553.952281","185320.502297","186087.795876","186837.059655","190737.146316","191487.099245","192253.721916","178437.514821","179204.023098","179970.784279","180737.119418","181504.05992","191498.137999","Mapping"
"Mixed","Both","done","45","m160done.wav","None","734.165877453","136","189970.773149","182270.762668","183020.607385","183787.285708","184553.952281","185320.502297","186087.795876","186837.059655","190737.146316","191487.099245","192253.721916","193020.527","179204.023098","179970.784279","180737.119418","181504.05992","192262.792776","Mapping"
"Mixed","Both","done","45","m160bluff.wav","space","544.22226164","136","189970.773149","182270.762668","183020.607385","183787.285708","184553.952281","185320.502297","186087.795876","186837.059655","190737.146316","191487.099245","192253.721916","193020.527","193786.994466","179970.784279","180737.119418","181504.05992","193030.363994","Mapping"
"Mixed","Both","done","45","m150reek.wav","None","727.265419438","136","189970.773149","182270.762668","183020.607385","183787.285708","184553.952281","185320.502297","186087.795876","186837.059655","190737.146316","191487.099245","192253.721916","193020.527","193786.994466","194554.167467","180737.119418","181504.05992","193796.124688","Mapping"
"Mixed","Both","done","45","m150cad.wav","None","722.049651435","136","189970.773149","182270.762668","183020.607385","183787.285708","184553.952281","185320.502297","186087.795876","186837.059655","190737.146316","191487.099245","192253.721916","193020.527","193786.994466","194554.167467","195303.610258","181504.05992","194564.743387","Mapping"
"Mixed","Both","done","45","m160depth.wav","None","737.175069517","136","189970.773149","182270.762668","183020.607385","183787.285708","184553.952281","185320.502297","186087.795876","186837.059655","190737.146316","191487.099245","192253.721916","193020.527","193786.994466","194554.167467","195303.610258","196087.329023","195313.514961","Mapping"
"Mixed","Both","done","45","m160dime.wav","None","720.850364887","136","189970.773149","196837.063056","183020.607385","183787.285708","184553.952281","185320.502297","186087.795876","186837.059655","190737.146316","191487.099245","192253.721916","193020.527","193786.994466","194554.167467","195303.610258","196087.329023","196096.592499","Mapping"
"Mixed","Both","done","45","m150bluff.wav","None","734.35354617","136","189970.773149","196837.063056","197603.854227","183787.285708","184553.952281","185320.502297","186087.795876","186837.059655","190737.146316","191487.099245","192253.721916","193020.527","193786.994466","194554.167467","195303.610258","196087.329023","196847.105651","Mapping"
"Mixed","Both","done","45","m160done.wav","None","730.564926169","136","189970.773149","196837.063056","197603.854227","198370.327567","184553.952281","185320.502297","186087.795876","186837.059655","190737.146316","191487.099245","192253.721916","193020.527","193786.994466","194554.167467","195303.610258","196087.329023","197614.240933","Mapping"
"Mixed","Both","done","45","m150romp.wav","space","458.65985984","136","189970.773149","196837.063056","197603.854227","198370.327567","199137.120284","185320.502297","186087.795876","186837.059655","190737.146316","191487.099245","192253.721916","193020.527","193786.994466","194554.167467","195303.610258","196087.329023","198379.800663","Mapping"
"Mixed","Both","done","45","m150done.wav","None","727.489570854","136","189970.773149","196837.063056","197603.854227","198370.327567","199137.120284","199903.619904","186087.795876","186837.059655","190737.146316","191487.099245","192253.721916","193020.527","193786.994466","194554.167467","195303.610258","196087.329023","199147.254085","Mapping"
"Mixed","Both","done","45","m160reek.wav","space","621.548882104","136","189970.773149","196837.063056","197603.854227","198370.327567","199137.120284","199903.619904","200670.788576","186837.059655","190737.146316","191487.099245","192253.721916","193020.527","193786.994466","194554.167467","195303.610258","196087.329023","199912.887399","Mapping"
"Mixed","Both","done","45","m160cling.wav","space","0.0383375445381","136","189970.773149","196837.063056","197603.854227","198370.327567","199137.120284","199903.619904","200670.788576","201420.417181","190737.146316","191487.099245","192253.721916","193020.527","193786.994466","194554.167467","195303.610258","196087.329023","200680.978648","Mapping"
"Mixed","Both","tile","25","m150reek.wav","None","733.876799583","136","204536.778585","196837.063056","197603.854227","198370.327567","199137.120284","199903.619904","200670.788576","201420.417181","190737.146316","191487.099245","192253.721916","193020.527","193786.994466","194554.167467","195303.610258","196087.329023","201430.434733","Mapping"
"Mixed","Both","tile","25","m160ball.wav","None","736.326386454","136","204536.778585","196837.063056","197603.854227","198370.327567","199137.120284","199903.619904","200670.788576","201420.417181","205303.647977","191487.099245","192253.721916","193020.527","193786.994466","194554.167467","195303.610258","196087.329023","204546.840348","Mapping"
"Mixed","Both","tile","25","m160cad.wav","None","733.4284971","136","204536.778585","196837.063056","197603.854227","198370.327567","199137.120284","199903.619904","200670.788576","201420.417181","205303.647977","206069.994246","192253.721916","193020.527","193786.994466","194554.167467","195303.610258","196087.329023","205313.229284","Mapping"
"Mixed","Both","tile","25","m150cling.wav","None","733.489713515","136","204536.778585","196837.063056","197603.854227","198370.327567","199137.120284","199903.619904","200670.788576","201420.417181","205303.647977","206069.994246","206836.93042","193020.527","193786.994466","194554.167467","195303.610258","196087.329023","206078.892897","Mapping"
"Mixed","Both","tile","25","m150tile.wav","None","734.77587814","136","204536.778585","196837.063056","197603.854227","198370.327567","199137.120284","199903.619904","200670.788576","201420.417181","205303.647977","206069.994246","206836.93042","207603.391084","193786.994466","194554.167467","195303.610258","196087.329023","206846.904997","Mapping"
"Mixed","Both","tile","25","m150knife.wav","space","594.077212503","136","204536.778585","196837.063056","197603.854227","198370.327567","199137.120284","199903.619904","200670.788576","201420.417181","205303.647977","206069.994246","206836.93042","207603.391084","208370.190603","194554.167467","195303.610258","196087.329023","207612.286024","Mapping"
"Mixed","Both","tile","25","m160cling.wav","None","728.757803096","136","204536.778585","196837.063056","197603.854227","198370.327567","199137.120284","199903.619904","200670.788576","201420.417181","205303.647977","206069.994246","206836.93042","207603.391084","208370.190603","209136.712483","195303.610258","196087.329023","208379.979984","Mapping"
"Mixed","Both","tile","25","m150jolt.wav","None","726.228758576","136","204536.778585","196837.063056","197603.854227","198370.327567","199137.120284","199903.619904","200670.788576","201420.417181","205303.647977","206069.994246","206836.93042","207603.391084","208370.190603","209136.712483","209904.133751","196087.329023","209146.197946","Mapping"
"Mixed","Both","tile","25","m160romp.wav","None","721.206533606","136","204536.778585","196837.063056","197603.854227","198370.327567","199137.120284","199903.619904","200670.788576","201420.417181","205303.647977","206069.994246","206836.93042","207603.391084","208370.190603","209136.712483","209904.133751","210653.29643","209914.704106","Mapping"
"Mixed","Both","tile","25","m150tile.wav","None","736.790766008","136","204536.778585","211420.311134","197603.854227","198370.327567","199137.120284","199903.619904","200670.788576","201420.417181","205303.647977","206069.994246","206836.93042","207603.391084","208370.190603","209136.712483","209904.133751","210653.29643","210662.76087","Mapping"
"Mixed","Both","tile","25","m160park.wav","space","600.221121334","136","204536.778585","211420.311134","212186.931332","198370.327567","199137.120284","199903.619904","200670.788576","201420.417181","205303.647977","206069.994246","206836.93042","207603.391084","208370.190603","209136.712483","209904.133751","210653.29643","211430.063415","Mapping"
"Mixed","Both","tile","25","m160tile.wav","None","729.591645882","136","204536.778585","211420.311134","212186.931332","212953.561114","199137.120284","199903.619904","200670.788576","201420.417181","205303.647977","206069.994246","206836.93042","207603.391084","208370.190603","209136.712483","209904.133751","210653.29643","212196.697216","Mapping"
"Mixed","Both","tile","25","m160ball.wav","space","675.062290858","136","204536.778585","211420.311134","212186.931332","212953.561114","213720.460806","199903.619904","200670.788576","201420.417181","205303.647977","206069.994246","206836.93042","207603.391084","208370.190603","209136.712483","209904.133751","210653.29643","212963.203329","Mapping"
"Mixed","Both","tile","25","m150cling.wav","None","722.032646881","136","204536.778585","211420.311134","212186.931332","212953.561114","213720.460806","214470.060348","200670.788576","201420.417181","205303.647977","206069.994246","206836.93042","207603.391084","208370.190603","209136.712483","209904.133751","210653.29643","213730.969017","Mapping"
"Mixed","Both","tile","25","m160tile.wav","None","736.944116419","136","204536.778585","211420.311134","212186.931332","212953.561114","213720.460806","214470.060348","215236.855229","201420.417181","205303.647977","206069.994246","206836.93042","207603.391084","208370.190603","209136.712483","209904.133751","210653.29643","214479.559105","Mapping"
"Mixed","Both","tile","25","m150cad.wav","space","415.370222065","136","204536.778585","211420.311134","212186.931332","212953.561114","213720.460806","214470.060348","215236.855229","216003.547773","205303.647977","206069.994246","206836.93042","207603.391084","208370.190603","209136.712483","209904.133751","210653.29643","215246.854539","Mapping"
"Mixed","Both","ball","11","m150priest.wav","None","729.883506196","136","219120.014296","211420.311134","212186.931332","212953.561114","213720.460806","214470.060348","215236.855229","216003.547773","205303.647977","206069.994246","206836.93042","207603.391084","208370.190603","209136.712483","209904.133751","210653.29643","216013.334372","Mapping"
"Mixed","Both","ball","11","m160ball.wav","None","736.26455164","136","219120.014296","211420.311134","212186.931332","212953.561114","213720.460806","214470.060348","215236.855229","216003.547773","219886.761874","206069.994246","206836.93042","207603.391084","208370.190603","209136.712483","209904.133751","210653.29643","219129.686191","Mapping"
"Mixed","Both","ball","11","m150cad.wav","space","685.267820605","136","219120.014296","211420.311134","212186.931332","212953.561114","213720.460806","214470.060348","215236.855229","216003.547773","219886.761874","220653.482244","206836.93042","207603.391084","208370.190603","209136.712483","209904.133751","210653.29643","219896.922264","Mapping"
"Mixed","Both","ball","11","m150ball.wav","None","729.07439759","136","219120.014296","211420.311134","212186.931332","212953.561114","213720.460806","214470.060348","215236.855229","216003.547773","219886.761874","220653.482244","221420.150673","207603.391084","208370.190603","209136.712483","209904.133751","210653.29643","220663.304089","Mapping"
"Mixed","Both","ball","11","m160romp.wav","space","568.207374308","136","219120.014296","211420.311134","212186.931332","212953.561114","213720.460806","214470.060348","215236.855229","216003.547773","219886.761874","220653.482244","221420.150673","222186.683374","208370.190603","209136.712483","209904.133751","210653.29643","221429.940363","Mapping"
"Mixed","Both","ball","11","m160lash.wav","None","723.380027921","136","219120.014296","211420.311134","212186.931332","212953.561114","213720.460806","214470.060348","215236.855229","216003.547773","219886.761874","220653.482244","221420.150673","222186.683374","222936.371031","209136.712483","209904.133751","210653.29643","222195.83864","Mapping"
"Mixed","Both","ball","11","m150ball.wav","None","736.964212847","136","219120.014296","211420.311134","212186.931332","212953.561114","213720.460806","214470.060348","215236.855229","216003.547773","219886.761874","220653.482244","221420.150673","222186.683374","222936.371031","223703.48869","209904.133751","210653.29643","222945.913692","Mapping"
"Mixed","Both","ball","11","m150cad.wav","space","428.711705259","136","219120.014296","211420.311134","212186.931332","212953.561114","213720.460806","214470.060348","215236.855229","216003.547773","219886.761874","220653.482244","221420.150673","222186.683374","222936.371031","223703.48869","224470.107342","210653.29643","223713.386283","Mapping"
"Mixed","Both","ball","11","m160greet.wav","None","730.18587858","136","219120.014296","211420.311134","212186.931332","212953.561114","213720.460806","214470.060348","215236.855229","216003.547773","219886.761874","220653.482244","221420.150673","222186.683374","222936.371031","223703.48869","224470.107342","225236.722902","224479.32135","Mapping"
"Mixed","Both","ball","11","m160depth.wav","None","726.165996282","136","219120.014296","226003.531078","212186.931332","212953.561114","213720.460806","214470.060348","215236.855229","216003.547773","219886.761874","220653.482244","221420.150673","222186.683374","222936.371031","223703.48869","224470.107342","225236.722902","225247.038189","Mapping"
"Mixed","Both","ball","11","m150dime.wav","None","723.769278149","136","219120.014296","226003.531078","226769.889715","212953.561114","213720.460806","214470.060348","215236.855229","216003.547773","219886.761874","220653.482244","221420.150673","222186.683374","222936.371031","223703.48869","224470.107342","225236.722902","226012.943576","Mapping"
"Mixed","Both","ball","11","m150gnash.wav","None","724.46492","136","219120.014296","226003.531078","226769.889715","227536.414068","213720.460806","214470.060348","215236.855229","216003.547773","219886.761874","220653.482244","221420.150673","222186.683374","222936.371031","223703.48869","224470.107342","225236.722902","226779.542132","Mapping"
"Mixed","Both","ball","11","m150greet.wav","None","725.598352496","136","219120.014296","226003.531078","226769.889715","227536.414068","228303.796999","214470.060348","215236.855229","216003.547773","219886.761874","220653.482244","221420.150673","222186.683374","222936.371031","223703.48869","224470.107342","225236.722902","227545.491731","Mapping"
"Mixed","Both","ball","11","m160knife.wav","None","721.068641869","136","219120.014296","226003.531078","226769.889715","227536.414068","228303.796999","229052.989668","215236.855229","216003.547773","219886.761874","220653.482244","221420.150673","222186.683374","222936.371031","223703.48869","224470.107342","225236.722902","228313.565665","Mapping"
"Mixed","Both","ball","11","m160ball.wav","None","735.935281147","136","219120.014296","226003.531078","226769.889715","227536.414068","228303.796999","229052.989668","229820.056313","216003.547773","219886.761874","220653.482244","221420.150673","222186.683374","222936.371031","223703.48869","224470.107342","225236.722902","229062.370939","Mapping"
"Mixed","Both","ball","11","m160knife.wav","space","344.025194063","136","219120.014296","226003.531078","226769.889715","227536.414068","228303.796999","229052.989668","229820.056313","230586.346622","219886.761874","220653.482244","221420.150673","222186.683374","222936.371031","223703.48869","224470.107342","225236.722902","229830.000281","Mapping"
"Mixed","Both","done","39","m150park.wav","None","727.3881617","136","233703.08058","226003.531078","226769.889715","227536.414068","228303.796999","229052.989668","229820.056313","230586.346622","219886.761874","220653.482244","221420.150673","222186.683374","222936.371031","223703.48869","224470.107342","225236.722902","230597.524195","Mapping"
"Mixed","Both","done","39","m150cad.wav","None","737.043979694","136","233703.08058","226003.531078","226769.889715","227536.414068","228303.796999","229052.989668","229820.056313","230586.346622","234470.010262","220653.482244","221420.150673","222186.683374","222936.371031","223703.48869","224470.107342","225236.722902","233712.879237","Mapping"
"Mixed","Both","done","39","m160greet.wav","None","737.70406656","136","233703.08058","226003.531078","226769.889715","227536.414068","228303.796999","229052.989668","229820.056313","230586.346622","234470.010262","235236.67869","221420.150673","222186.683374","222936.371031","223703.48869","224470.107342","225236.722902","234475.950734","Mapping"
"Mixed","Both","done","39","m150done.wav","None","731.122676283","136","233703.08058","226003.531078","226769.889715","227536.414068","228303.796999","229052.989668","229820.056313","230586.346622","234470.010262","235236.67869","236003.271063","222186.683374","222936.371031","223703.48869","224470.107342","225236.722902","235246.238355","Mapping"
"Mixed","Both","done","39","m150priest.wav","space","353.023398551","136","233703.08058","226003.531078","226769.889715","227536.414068","228303.796999","229052.989668","229820.056313","230586.346622","234470.010262","235236.67869","236003.271063","236769.9364","222936.371031","223703.48869","224470.107342","225236.722902","236012.906166","Mapping"
"Mixed","Both","done","39","m160done.wav","None","724.992680247","136","233703.08058","226003.531078","226769.889715","227536.414068","228303.796999","229052.989668","229820.056313","230586.346622","234470.010262","235236.67869","236003.271063","236769.9364","237536.322244","223703.48869","224470.107342","225236.722902","236779.424955","Mapping"
"Mixed","Both","done","39","m160cling.wav","space","484.116950771","136","233703.08058","226003.531078","226769.889715","227536.414068","228303.796999","229052.989668","229820.056313","230586.346622","234470.010262","235236.67869","236003.271063","236769.9364","237536.322244","238286.327422","224470.107342","225236.722902","237545.715264","Mapping"
"Mixed","Both","done","39","m150ball.wav","None","730.382513371","136","233703.08058","226003.531078","226769.889715","227536.414068","228303.796999","229052.989668","229820.056313","230586.346622","234470.010262","235236.67869","236003.271063","236769.9364","237536.322244","238286.327422","239053.176409","225236.722902","238302.937185","Mapping"
"Mixed","Both","done","39","m150done.wav","None","733.881128021","136","233703.08058","226003.531078","226769.889715","227536.414068","228303.796999","229052.989668","229820.056313","230586.346622","234470.010262","235236.67869","236003.271063","236769.9364","237536.322244","238286.327422","239053.176409","239820.220794","239063.01464","Mapping"
"Mixed","Both","done","39","m160reek.wav","space","439.983576653","136","233703.08058","240586.199764","226769.889715","227536.414068","228303.796999","229052.989668","229820.056313","230586.346622","234470.010262","235236.67869","236003.271063","236769.9364","237536.322244","238286.327422","239053.176409","239820.220794","239829.88094","Mapping"
"Mixed","Both","done","39","m150lash.wav","None","728.150894283","136","233703.08058","240586.199764","241353.110586","227536.414068","228303.796999","229052.989668","229820.056313","230586.346622","234470.010262","235236.67869","236003.271063","236769.9364","237536.322244","238286.327422","239053.176409","239820.220794","240595.356884","Mapping"
"Mixed","Both","done","39","m160knife.wav","None","724.957743543","136","233703.08058","240586.199764","241353.110586","242120.65305","228303.796999","229052.989668","229820.056313","230586.346622","234470.010262","235236.67869","236003.271063","236769.9364","237536.322244","238286.327422","239053.176409","239820.220794","241362.699931","Mapping"
"Mixed","Both","done","39","m160knife.wav","None","720.060115797","136","233703.08058","240586.199764","241353.110586","242120.65305","242869.69577","229052.989668","229820.056313","230586.346622","234470.010262","235236.67869","236003.271063","236769.9364","237536.322244","238286.327422","239053.176409","239820.220794","242131.245047","Mapping"
"Mixed","Both","done","39","m160lash.wav","None","736.211991985","136","233703.08058","240586.199764","241353.110586","242120.65305","242869.69577","243636.415212","229820.056313","230586.346622","234470.010262","235236.67869","236003.271063","236769.9364","237536.322244","238286.327422","239053.176409","239820.220794","242878.847015","Mapping"
"Mixed","Both","done","39","m160done.wav","None","731.127932202","136","233703.08058","240586.199764","241353.110586","242120.65305","242869.69577","243636.415212","244403.15135","230586.346622","234470.010262","235236.67869","236003.271063","236769.9364","237536.322244","238286.327422","239053.176409","239820.220794","243647.581346","Mapping"
"Mixed","Both","done","39","m150romp.wav","space","417.20084229","136","233703.08058","240586.199764","241353.110586","242120.65305","242869.69577","243636.415212","244403.15135","245169.720225","234470.010262","235236.67869","236003.271063","236769.9364","237536.322244","238286.327422","239053.176409","239820.220794","244412.587655","Mapping"
"Mixed","Both","cave","15","m160knife.wav","None","719.171240111","136","248286.850854","240586.199764","241353.110586","242120.65305","242869.69577","243636.415212","244403.15135","245169.720225","234470.010262","235236.67869","236003.271063","236769.9364","237536.322244","238286.327422","239053.176409","239820.220794","245186.149431","Mapping"
"Mixed","Both","cave","15","m150cave.wav","None","720.129370806","136","248286.850854","240586.199764","241353.110586","242120.65305","242869.69577","243636.415212","244403.15135","245169.720225","249036.283751","235236.67869","236003.271063","236769.9364","237536.322244","238286.327422","239053.176409","239820.220794","248297.061331","Mapping"
"Mixed","Both","cave","15","m150gnash.wav","space","626.525349333","136","248286.850854","240586.199764","241353.110586","242120.65305","242869.69577","243636.415212","244403.15135","245169.720225","249036.283751","249803.062555","236003.271063","236769.9364","237536.322244","238286.327422","239053.176409","239820.220794","249051.182236","Mapping"
"Mixed","Both","cave","15","m160park.wav","None","730.690450757","136","248286.850854","240586.199764","241353.110586","242120.65305","242869.69577","243636.415212","244403.15135","245169.720225","249036.283751","249803.062555","250569.49694","236769.9364","237536.322244","238286.327422","239053.176409","239820.220794","249813.170077","Mapping"
"Mixed","Both","cave","15","m160cave.wav","None","728.691639961","136","248286.850854","240586.199764","241353.110586","242120.65305","242869.69577","243636.415212","244403.15135","245169.720225","249036.283751","249803.062555","250569.49694","251336.095804","237536.322244","238286.327422","239053.176409","239820.220794","250579.006209","Mapping"
"Mixed","Both","cave","15","m160cad.wav","space","588.106131996","136","248286.850854","240586.199764","241353.110586","242120.65305","242869.69577","243636.415212","244403.15135","245169.720225","249036.283751","249803.062555","250569.49694","251336.095804","252103.305907","238286.327422","239053.176409","239820.220794","251345.594871","Mapping"
"Mixed","Both","cave","15","m160romp.wav","None","720.380729414","136","248286.850854","240586.199764","241353.110586","242120.65305","242869.69577","243636.415212","244403.15135","245169.720225","249036.283751","249803.062555","250569.49694","251336.095804","252103.305907","252852.904212","239053.176409","239820.220794","252113.827721","Mapping"
"Mixed","Both","cave","15","m150greet.wav","None","735.294053913","136","248286.850854","240586.199764","241353.110586","242120.65305","242869.69577","243636.415212","244403.15135","245169.720225","249036.283751","249803.062555","250569.49694","251336.095804","252103.305907","252852.904212","253619.75258","239820.220794","252862.490775","Mapping"
"Mixed","Both","cave","15","m150reek.wav","None","732.634228771","136","248286.850854","240586.199764","241353.110586","242120.65305","242869.69577","243636.415212","244403.15135","245169.720225","249036.283751","249803.062555","250569.49694","251336.095804","252103.305907","252852.904212","253619.75258","254386.26333","253628.998743","Mapping"
"Mixed","Both","cave","15","m160cad.wav","None","729.008852504","136","248286.850854","255152.966387","241353.110586","242120.65305","242869.69577","243636.415212","244403.15135","245169.720225","249036.283751","249803.062555","250569.49694","251336.095804","252103.305907","252852.904212","253619.75258","254386.26333","254396.306853","Mapping"
"Mixed","Both","cave","15","m150knife.wav","None","724.492127309","136","248286.850854","255152.966387","255919.998405","242120.65305","242869.69577","243636.415212","244403.15135","245169.720225","249036.283751","249803.062555","250569.49694","251336.095804","252103.305907","252852.904212","253619.75258","254386.26333","255164.515588","Mapping"
"Mixed","Both","cave","15","m160jaw.wav","None","722.138693673","136","248286.850854","255152.966387","255919.998405","256669.6604","242869.69577","243636.415212","244403.15135","245169.720225","249036.283751","249803.062555","250569.49694","251336.095804","252103.305907","252852.904212","253619.75258","254386.26333","255930.418192","Mapping"
"Mixed","Both","cave","15","m160cave.wav","None","736.966377008","136","248286.850854","255152.966387","255919.998405","256669.6604","257436.353254","243636.415212","244403.15135","245169.720225","249036.283751","249803.062555","250569.49694","251336.095804","252103.305907","252852.904212","253619.75258","254386.26333","256679.422265","Mapping"
"Mixed","Both","cave","15","m150tile.wav","space","511.172162602","136","248286.850854","255152.966387","255919.998405","256669.6604","257436.353254","258202.683137","244403.15135","245169.720225","249036.283751","249803.062555","250569.49694","251336.095804","252103.305907","252852.904212","253619.75258","254386.26333","257446.450263","Mapping"
"Mixed","Both","cave","15","m150cave.wav","None","730.83452601","136","248286.850854","255152.966387","255919.998405","256669.6604","257436.353254","258202.683137","258969.417111","245169.720225","249036.283751","249803.062555","250569.49694","251336.095804","252103.305907","252852.904212","253619.75258","254386.26333","258212.342356","Mapping"
"Mixed","Both","cave","15","m150gnash.wav","space","691.13316352","136","248286.850854","255152.966387","255919.998405","256669.6604","257436.353254","258202.683137","258969.417111","259735.920441","249036.283751","249803.062555","250569.49694","251336.095804","252103.305907","252852.904212","253619.75258","254386.26333","258978.456745","Mapping"
"Mixed","Both","done","37","m150jaw.wav","None","725.223942543","136","262835.817702","255152.966387","255919.998405","256669.6604","257436.353254","258202.683137","258969.417111","259735.920441","249036.283751","249803.062555","250569.49694","251336.095804","252103.305907","252852.904212","253619.75258","254386.26333","259744.845371","Mapping"
"Mixed","Both","done","37","m150depth.wav","None","736.37863691","136","262835.817702","255152.966387","255919.998405","256669.6604","257436.353254","258202.683137","258969.417111","259735.920441","263602.740582","249803.062555","250569.49694","251336.095804","252103.305907","252852.904212","253619.75258","254386.26333","262845.766308","Mapping"
"Mixed","Both","done","37","m160knife.wav","None","737.050781609","136","262835.817702","255152.966387","255919.998405","256669.6604","257436.353254","258202.683137","258969.417111","259735.920441","263602.740582","264369.560197","250569.49694","251336.095804","252103.305907","252852.904212","253619.75258","254386.26333","263612.44494","Mapping"
"Mixed","Both","done","37","m150done.wav","None","733.931523515","136","262835.817702","255152.966387","255919.998405","256669.6604","257436.353254","258202.683137","258969.417111","259735.920441","263602.740582","264369.560197","265136.094753","251336.095804","252103.305907","252852.904212","253619.75258","254386.26333","264379.301038","Mapping"
"Mixed","Both","done","37","m160jolt.wav","space","403.514011647","136","262835.817702","255152.966387","255919.998405","256669.6604","257436.353254","258202.683137","258969.417111","259735.920441","263602.740582","264369.560197","265136.094753","265903.212412","252103.305907","252852.904212","253619.75258","254386.26333","265145.980288","Mapping"
"Mixed","Both","done","37","m160park.wav","None","730.1361016","136","262835.817702","255152.966387","255919.998405","256669.6604","257436.353254","258202.683137","258969.417111","259735.920441","263602.740582","264369.560197","265136.094753","265903.212412","266669.462219","252852.904212","253619.75258","254386.26333","265913.298601","Mapping"
"Mixed","Both","done","37","m150done.wav","None","727.549859788","136","262835.817702","255152.966387","255919.998405","256669.6604","257436.353254","258202.683137","258969.417111","259735.920441","263602.740582","264369.560197","265136.094753","265903.212412","266669.462219","267435.853319","253619.75258","254386.26333","266679.9256","Mapping"
"Mixed","Both","done","37","m150depth.wav","space","568.122969707","136","262835.817702","255152.966387","255919.998405","256669.6604","257436.353254","258202.683137","258969.417111","259735.920441","263602.740582","264369.560197","265136.094753","265903.212412","266669.462219","267435.853319","268203.207187","254386.26333","267445.314667","Mapping"
"Mixed","Both","done","37","m150lash.wav","None","721.691009472","136","262835.817702","255152.966387","255919.998405","256669.6604","257436.353254","258202.683137","258969.417111","259735.920441","263602.740582","264369.560197","265136.094753","265903.212412","266669.462219","267435.853319","268203.207187","268952.605766","268212.826214","Mapping"
"Mixed","Both","done","37","m160done.wav","None","733.932141797","136","262835.817702","269719.07385","255919.998405","256669.6604","257436.353254","258202.683137","258969.417111","259735.920441","263602.740582","264369.560197","265136.094753","265903.212412","266669.462219","267435.853319","268203.207187","268952.605766","268964.567714","Mapping"
"Mixed","Both","done","37","m160cad.wav","space","522.187110386","136","262835.817702","269719.07385","270485.82823","256669.6604","257436.353254","258202.683137","258969.417111","259735.920441","263602.740582","264369.560197","265136.094753","265903.212412","266669.462219","267435.853319","268203.207187","268952.605766","269731.244182","Mapping"
"Mixed","Both","done","37","m160done.wav","None","732.212824281","136","262835.817702","269719.07385","270485.82823","271252.673506","257436.353254","258202.683137","258969.417111","259735.920441","263602.740582","264369.560197","265136.094753","265903.212412","266669.462219","267435.853319","268203.207187","268952.605766","270494.975456","Mapping"
"Mixed","Both","done","37","m160tile.wav","None","729.703566991","136","262835.817702","269719.07385","270485.82823","271252.673506","272019.379654","258202.683137","258969.417111","259735.920441","263602.740582","264369.560197","265136.094753","265903.212412","266669.462219","267435.853319","268203.207187","268952.605766","271261.64203","Mapping"
"Mixed","Both","done","37","m150cling.wav","space","0.0337000237778","136","262835.817702","269719.07385","270485.82823","271252.673506","272019.379654","272786.687765","258969.417111","259735.920441","263602.740582","264369.560197","265136.094753","265903.212412","266669.462219","267435.853319","268203.207187","268952.605766","272028.685178","Mapping"
"Mixed","Both","done","37","m150dime.wav","None","721.806949703","136","262835.817702","269719.07385","270485.82823","271252.673506","272019.379654","272786.687765","273535.701422","259735.920441","263602.740582","264369.560197","265136.094753","265903.212412","266669.462219","267435.853319","268203.207187","268952.605766","272796.598033","Mapping"
"Mixed","Both","done","37","m160depth.wav","None","737.292555743","136","262835.817702","269719.07385","270485.82823","271252.673506","272019.379654","272786.687765","273535.701422","274302.550718","263602.740582","264369.560197","265136.094753","265903.212412","266669.462219","267435.853319","268203.207187","268952.605766","273544.977883","Mapping"
"Mixed","Both","cave","20","m160dime.wav","None","735.069593531","136","277436.56813","269719.07385","270485.82823","271252.673506","272019.379654","272786.687765","273535.701422","274302.550718","263602.740582","264369.560197","265136.094753","265903.212412","266669.462219","267435.853319","268203.207187","268952.605766","274311.74432","Mapping"
"Mixed","Both","cave","20","m160cave.wav","None","719.909238862","136","277436.56813","269719.07385","270485.82823","271252.673506","272019.379654","272786.687765","273535.701422","274302.550718","278185.843657","264369.560197","265136.094753","265903.212412","266669.462219","267435.853319","268203.207187","268952.605766","277446.268469","Mapping"
"Mixed","Both","cave","20","m150jolt.wav","None","734.276252682","136","277436.56813","269719.07385","270485.82823","271252.673506","272019.379654","272786.687765","273535.701422","274302.550718","278185.843657","278952.583196","265136.094753","265903.212412","266669.462219","267435.853319","268203.207187","268952.605766","278195.639222","Mapping"
"Mixed","Both","cave","20","m150romp.wav","space","3.62135691103","136","277436.56813","269719.07385","270485.82823","271252.673506","272019.379654","272786.687765","273535.701422","274302.550718","278185.843657","278952.583196","279719.166912","265903.212412","266669.462219","267435.853319","268203.207187","268952.605766","278961.676627","Mapping"
"Mixed","Both","cave","20","m150cave.wav","None","731.353010982","136","277436.56813","269719.07385","270485.82823","271252.673506","272019.379654","272786.687765","273535.701422","274302.550718","278185.843657","278952.583196","279719.166912","280485.668077","266669.462219","267435.853319","268203.207187","268952.605766","279725.422432","Mapping"
"Mixed","Both","cave","20","m160reek.wav","space","678.563688183","136","277436.56813","269719.07385","270485.82823","271252.673506","272019.379654","272786.687765","273535.701422","274302.550718","278185.843657","278952.583196","279719.166912","280485.668077","281253.094292","267435.853319","268203.207187","268952.605766","280494.717605","Mapping"
"Mixed","Both","cave","20","m150lash.wav","None","721.392038045","136","277436.56813","269719.07385","270485.82823","271252.673506","272019.379654","272786.687765","273535.701422","274302.550718","278185.843657","278952.583196","279719.166912","280485.668077","281253.094292","282002.477103","268203.207187","268952.605766","281262.483293","Mapping"
"Mixed","Both","cave","20","m150cave.wav","None","735.452660359","136","277436.56813","269719.07385","270485.82823","271252.673506","272019.379654","272786.687765","273535.701422","274302.550718","278185.843657","278952.583196","279719.166912","280485.668077","281253.094292","282002.477103","282769.184797","268952.605766","282012.311006","Mapping"
"Mixed","Both","cave","20","m160jaw.wav","space","482.799868798","136","277436.56813","269719.07385","270485.82823","271252.673506","272019.379654","272786.687765","273535.701422","274302.550718","278185.843657","278952.583196","279719.166912","280485.668077","281253.094292","282002.477103","282769.184797","283535.881052","282778.458785","Mapping"
"Mixed","Both","cave","20","m150knife.wav","None","729.088619468","136","277436.56813","284302.458584","270485.82823","271252.673506","272019.379654","272786.687765","273535.701422","274302.550718","278185.843657","278952.583196","279719.166912","280485.668077","281253.094292","282002.477103","282769.184797","283535.881052","283545.515228","Mapping"
"Mixed","Both","cave","20","m150cad.wav","None","728.128015413","136","277436.56813","284302.458584","285069.519664","271252.673506","272019.379654","272786.687765","273535.701422","274302.550718","278185.843657","278952.583196","279719.166912","280485.668077","281253.094292","282002.477103","282769.184797","283535.881052","284310.695602","Mapping"
"Mixed","Both","cave","20","m160jolt.wav","None","723.137017107","136","277436.56813","284302.458584","285069.519664","285836.28641","272019.379654","272786.687765","273535.701422","274302.550718","278185.843657","278952.583196","279719.166912","280485.668077","281253.094292","282002.477103","282769.184797","283535.881052","285079.640789","Mapping"
"Mixed","Both","cave","20","m160cave.wav","None","720.729787019","136","277436.56813","284302.458584","285069.519664","285836.28641","286585.459292","272786.687765","273535.701422","274302.550718","278185.843657","278952.583196","279719.166912","280485.668077","281253.094292","282002.477103","282769.184797","283535.881052","285846.085067","Mapping"
"Mixed","Both","cave","20","m160depth.wav","space","666.300604469","136","277436.56813","284302.458584","285069.519664","285836.28641","286585.459292","287352.221401","273535.701422","274302.550718","278185.843657","278952.583196","279719.166912","280485.668077","281253.094292","282002.477103","282769.184797","283535.881052","286594.869317","Mapping"
"Mixed","Both","cave","20","m150greet.wav","None","732.683387469","136","277436.56813","284302.458584","285069.519664","285836.28641","286585.459292","287352.221401","288119.107798","274302.550718","278185.843657","278952.583196","279719.166912","280485.668077","281253.094292","282002.477103","282769.184797","283535.881052","287361.132418","Mapping"
"Mixed","Both","cave","20","m160knife.wav","None","729.220018606","136","277436.56813","284302.458584","285069.519664","285836.28641","286585.459292","287352.221401","288119.107798","288885.766333","278185.843657","278952.583196","279719.166912","280485.668077","281253.094292","282002.477103","282769.184797","283535.881052","288128.468973","Mapping"
"Mixed","Both","ball","6","m150dime.wav","None","726.557101589","136","291985.991937","284302.458584","285069.519664","285836.28641","286585.459292","287352.221401","288119.107798","288885.766333","278185.843657","278952.583196","279719.166912","280485.668077","281253.094292","282002.477103","282769.184797","283535.881052","288895.100919","Mapping"
"Mixed","Both","ball","6","m150cling.wav","None","736.141809612","136","291985.991937","284302.458584","285069.519664","285836.28641","286585.459292","287352.221401","288119.107798","288885.766333","292752.406225","278952.583196","279719.166912","280485.668077","281253.094292","282002.477103","282769.184797","283535.881052","291995.568916","Mapping"
"Mixed","Both","ball","6","m150ball.wav","None","734.095385764","136","291985.991937","284302.458584","285069.519664","285836.28641","286585.459292","287352.221401","288119.107798","288885.766333","292752.406225","293519.190285","279719.166912","280485.668077","281253.094292","282002.477103","282769.184797","283535.881052","292761.575094","Mapping"
"Mixed","Both","ball","6","m160dime.wav","space","452.51193177","136","291985.991937","284302.458584","285069.519664","285836.28641","286585.459292","287352.221401","288119.107798","288885.766333","292752.406225","293519.190285","294285.663007","280485.668077","281253.094292","282002.477103","282769.184797","283535.881052","293528.558881","Mapping"
"Mixed","Both","ball","6","m160ball.wav","None","727.359408396","136","291985.991937","284302.458584","285069.519664","285836.28641","286585.459292","287352.221401","288119.107798","288885.766333","292752.406225","293519.190285","294285.663007","295052.155207","281253.094292","282002.477103","282769.184797","283535.881052","294295.281415","Mapping"
"Mixed","Both","ball","6","m160priest.wav","space","520.0816344","136","291985.991937","284302.458584","285069.519664","285836.28641","286585.459292","287352.221401","288119.107798","288885.766333","292752.406225","293519.190285","294285.663007","295052.155207","295819.303165","282002.477103","282769.184797","283535.881052","295060.952448","Mapping"
"Mixed","Both","ball","6","m160lash.wav","None","720.712782466","136","291985.991937","284302.458584","285069.519664","285836.28641","286585.459292","287352.221401","288119.107798","288885.766333","292752.406225","293519.190285","294285.663007","295052.155207","295819.303165","296568.810573","282769.184797","283535.881052","295829.002885","Mapping"
"Mixed","Both","ball","6","m150ball.wav","None","735.617450206","136","291985.991937","284302.458584","285069.519664","285836.28641","286585.459292","287352.221401","288119.107798","288885.766333","292752.406225","293519.190285","294285.663007","295052.155207","295819.303165","296568.810573","297335.566189","283535.881052","296578.152888","Mapping"
"Mixed","Both","ball","6","m160cling.wav","space","507.411677507","136","291985.991937","284302.458584","285069.519664","285836.28641","286585.459292","287352.221401","288119.107798","288885.766333","292752.406225","293519.190285","294285.663007","295052.155207","295819.303165","296568.810573","297335.566189","298102.343757","297345.59889","Mapping"
"Mixed","Both","ball","6","m150lash.wav","None","728.813454509","136","291985.991937","298869.017132","285069.519664","285836.28641","286585.459292","287352.221401","288119.107798","288885.766333","292752.406225","293519.190285","294285.663007","295052.155207","295819.303165","296568.810573","297335.566189","298102.343757","298111.921972","Mapping"
"Mixed","Both","ball","6","m160romp.wav","None","726.69468401","136","291985.991937","298869.017132","299636.088415","285836.28641","286585.459292","287352.221401","288119.107798","288885.766333","292752.406225","293519.190285","294285.663007","295052.155207","295819.303165","296568.810573","297335.566189","298102.343757","298878.300705","Mapping"
"Mixed","Both","ball","6","m150cad.wav","None","723.166388576","136","291985.991937","298869.017132","299636.088415","300402.614006","286585.459292","287352.221401","288119.107798","288885.766333","292752.406225","293519.190285","294285.663007","295052.155207","295819.303165","296568.810573","297335.566189","298102.343757","299645.892328","Mapping"
"Mixed","Both","ball","6","m150depth.wav","None","720.370526658","136","291985.991937","298869.017132","299636.088415","300402.614006","301168.944198","287352.221401","288119.107798","288885.766333","292752.406225","293519.190285","294285.663007","295052.155207","295819.303165","296568.810573","297335.566189","298102.343757","300412.774087","Mapping"
"Mixed","Both","ball","6","m160priest.wav","None","722.168065142","136","291985.991937","298869.017132","299636.088415","300402.614006","301168.944198","301918.616396","288119.107798","288885.766333","292752.406225","293519.190285","294285.663007","295052.155207","295819.303165","296568.810573","297335.566189","298102.343757","301177.819661","Mapping"
"Mixed","Both","ball","6","m160ball.wav","None","736.655656947","136","291985.991937","298869.017132","299636.088415","300402.614006","301168.944198","301918.616396","302685.36923","288885.766333","292752.406225","293519.190285","294285.663007","295052.155207","295819.303165","296568.810573","297335.566189","298102.343757","301927.487839","Mapping"
"Mixed","Both","ball","6","m150cave.wav","space","430.530885933","136","291985.991937","298869.017132","299636.088415","300402.614006","301168.944198","301918.616396","302685.36923","303452.266448","292752.406225","293519.190285","294285.663007","295052.155207","295819.303165","296568.810573","297335.566189","298102.343757","302694.402371","Mapping"
"Mixed","Both","ball","7","m160bluff.wav","None","729.407996405","136","306568.533244","298869.017132","299636.088415","300402.614006","301168.944198","301918.616396","302685.36923","303452.266448","292752.406225","293519.190285","294285.663007","295052.155207","295819.303165","296568.810573","297335.566189","298102.343757","303461.842499","Mapping"
"Mixed","Both","ball","7","m150ball.wav","None","736.629995517","136","306568.533244","298869.017132","299636.088415","300402.614006","301168.944198","301918.616396","302685.36923","303452.266448","307335.116959","293519.190285","294285.663007","295052.155207","295819.303165","296568.810573","297335.566189","298102.343757","306578.257389","Mapping"
"Mixed","Both","ball","7","m150jolt.wav","space","532.60287852","136","306568.533244","298869.017132","299636.088415","300402.614006","301168.944198","301918.616396","302685.36923","303452.266448","307335.116959","308102.326134","294285.663007","295052.155207","295819.303165","296568.810573","297335.566189","298102.343757","307344.260475","Mapping"
"Mixed","Both","ball","7","m160knife.wav","None","730.309239007","136","306568.533244","298869.017132","299636.088415","300402.614006","301168.944198","301918.616396","302685.36923","303452.266448","307335.116959","308102.326134","308868.871202","295052.155207","295819.303165","296568.810573","297335.566189","298102.343757","308111.776351","Mapping"
"Mixed","Both","ball","7","m160dime.wav","None","728.017021902","136","306568.533244","298869.017132","299636.088415","300402.614006","301168.944198","301918.616396","302685.36923","303452.266448","307335.116959","308102.326134","308868.871202","309635.61105","295819.303165","296568.810573","297335.566189","298102.343757","308878.137151","Mapping"
"Mixed","Both","ball","7","m160ball.wav","None","725.154378335","136","306568.533244","298869.017132","299636.088415","300402.614006","301168.944198","301918.616396","302685.36923","303452.266448","307335.116959","308102.326134","308868.871202","309635.61105","310402.35399","296568.810573","297335.566189","298102.343757","309645.1837","Mapping"
"Mixed","Both","ball","7","m160bluff.wav","space","472.433877643","136","306568.533244","298869.017132","299636.088415","300402.614006","301168.944198","301918.616396","302685.36923","303452.266448","307335.116959","308102.326134","308868.871202","309635.61105","310402.35399","311151.911485","297335.566189","298102.343757","310412.383909","Mapping"
"Mixed","Both","ball","7","m150cad.wav","None","736.612372682","136","306568.533244","298869.017132","299636.088415","300402.614006","301168.944198","301918.616396","302685.36923","303452.266448","307335.116959","308102.326134","308868.871202","309635.61105","310402.35399","311151.911485","311918.713168","298102.343757","311161.225974","Mapping"
"Mixed","Both","ball","7","m150jolt.wav","None","733.669034555","136","306568.533244","298869.017132","299636.088415","300402.614006","301168.944198","301918.616396","302685.36923","303452.266448","307335.116959","308102.326134","308868.871202","309635.61105","310402.35399","311151.911485","311918.713168","312685.398601","311928.388155","Mapping"
"Mixed","Both","ball","7","m150lash.wav","None","730.871935957","136","306568.533244","313452.1233","299636.088415","300402.614006","301168.944198","301918.616396","302685.36923","303452.266448","307335.116959","308102.326134","308868.871202","309635.61105","310402.35399","311151.911485","311918.713168","312685.398601","312695.367613","Mapping"
"Mixed","Both","ball","7","m160ball.wav","None","728.715755395","136","306568.533244","313452.1233","314218.547481","300402.614006","301168.944198","301918.616396","302685.36923","303452.266448","307335.116959","308102.326134","308868.871202","309635.61105","310402.35399","311151.911485","311918.713168","312685.398601","313461.668743","Mapping"
"Mixed","Both","ball","7","m160gnash.wav","space","488.915024442","136","306568.533244","313452.1233","314218.547481","314985.337725","301168.944198","301918.616396","302685.36923","303452.266448","307335.116959","308102.326134","308868.871202","309635.61105","310402.35399","311151.911485","311918.713168","312685.398601","314227.850532","Mapping"
"Mixed","Both","ball","7","m150dime.wav","None","727.087644394","136","306568.533244","313452.1233","314218.547481","314985.337725","315752.089322","301918.616396","302685.36923","303452.266448","307335.116959","308102.326134","308868.871202","309635.61105","310402.35399","311151.911485","311918.713168","312685.398601","314994.718378","Mapping"
"Mixed","Both","ball","7","m150ball.wav","None","724.608067656","136","306568.533244","313452.1233","314218.547481","314985.337725","315752.089322","316518.983448","302685.36923","303452.266448","307335.116959","308102.326134","308868.871202","309635.61105","310402.35399","311151.911485","311918.713168","312685.398601","315761.4978","Mapping"
"Mixed","Both","ball","7","m150knife.wav","space","595.421192585","136","306568.533244","313452.1233","314218.547481","314985.337725","315752.089322","316518.983448","317268.398413","303452.266448","307335.116959","308102.326134","308868.871202","309635.61105","310402.35399","311151.911485","311918.713168","312685.398601","316529.285749","Mapping"
"Mixed","Both","ball","7","m160cave.wav","None","736.430269084","136","306568.533244","313452.1233","314218.547481","314985.337725","315752.089322","316518.983448","317268.398413","318035.314181","307335.116959","308102.326134","308868.871202","309635.61105","310402.35399","311151.911485","311918.713168","312685.398601","317277.423516","Mapping"
"Mixed","Both","cave","23","m160cling.wav","None","733.06769086","136","321151.556553","313452.1233","314218.547481","314985.337725","315752.089322","316518.983448","317268.398413","318035.314181","307335.116959","308102.326134","308868.871202","309635.61105","310402.35399","311151.911485","311918.713168","312685.398601","318044.919295","Mapping"
"Mixed","Both","cave","23","m160gnash.wav","None","737.891426077","136","321151.556553","313452.1233","314218.547481","314985.337725","315752.089322","316518.983448","317268.398413","318035.314181","321918.587952","308102.326134","308868.871202","309635.61105","310402.35399","311151.911485","311918.713168","312685.398601","321160.542081","Mapping"
"Mixed","Both","cave","23","m150cling.wav","None","734.323865501","136","321151.556553","313452.1233","314218.547481","314985.337725","315752.089322","316518.983448","317268.398413","318035.314181","321918.587952","322685.343877","308868.871202","309635.61105","310402.35399","311151.911485","311918.713168","312685.398601","321928.449062","Mapping"
"Mixed","Both","cave","23","m150reek.wav","None","731.542225694","136","321151.556553","313452.1233","314218.547481","314985.337725","315752.089322","316518.983448","317268.398413","318035.314181","321918.587952","322685.343877","323451.883381","309635.61105","310402.35399","311151.911485","311918.713168","312685.398601","322695.363593","Mapping"
"Mixed","Both","cave","23","m150ball.wav","None","729.637712822","136","321151.556553","313452.1233","314218.547481","314985.337725","315752.089322","316518.983448","317268.398413","318035.314181","321918.587952","322685.343877","323451.883381","324218.613645","310402.35399","311151.911485","311918.713168","312685.398601","323461.433461","Mapping"
"Mixed","Both","cave","23","m160priest.wav","None","727.146078367","136","321151.556553","313452.1233","314218.547481","314985.337725","315752.089322","316518.983448","317268.398413","318035.314181","321918.587952","322685.343877","323451.883381","324218.613645","324985.194577","311151.911485","311918.713168","312685.398601","324228.005119","Mapping"
"Mixed","Both","cave","23","m150cave.wav","None","724.382370478","136","321151.556553","313452.1233","314218.547481","314985.337725","315752.089322","316518.983448","317268.398413","318035.314181","321918.587952","322685.343877","323451.883381","324218.613645","324985.194577","325752.214537","311918.713168","312685.398601","324995.167299","Mapping"
"Mixed","Both","cave","23","m160lash.wav","space","682.578314561","136","321151.556553","313452.1233","314218.547481","314985.337725","315752.089322","316518.983448","317268.398413","318035.314181","321918.587952","322685.343877","323451.883381","324218.613645","324985.194577","325752.214537","326501.884571","312685.398601","325762.043802","Mapping"
"Mixed","Both","cave","23","m160cave.wav","None","735.12091639","136","321151.556553","313452.1233","314218.547481","314985.337725","315752.089322","316518.983448","317268.398413","318035.314181","321918.587952","322685.343877","323451.883381","324218.613645","324985.194577","325752.214537","326501.884571","327268.419437","326511.423831","Mapping"
"Mixed","Both","cave","23","m160priest.wav","None","733.477964997","136","321151.556553","328035.13486","314218.547481","314985.337725","315752.089322","316518.983448","317268.398413","318035.314181","321918.587952","322685.343877","323451.883381","324218.613645","324985.194577","325752.214537","326501.884571","327268.419437","327277.75897","Mapping"
"Mixed","Both","cave","23","m150reek.wav","space","0.0346275046468","136","321151.556553","328035.13486","328801.93036","314985.337725","315752.089322","316518.983448","317268.398413","318035.314181","321918.587952","322685.343877","323451.883381","324218.613645","324985.194577","325752.214537","326501.884571","327268.419437","328044.518914","Mapping"
"Mixed","Both","cave","23","m150gnash.wav","None","726.597603294","136","321151.556553","328035.13486","328801.93036","329568.490887","315752.089322","316518.983448","317268.398413","318035.314181","321918.587952","322685.343877","323451.883381","324218.613645","324985.194577","325752.214537","326501.884571","327268.419437","328811.741074","Mapping"
"Mixed","Both","cave","23","m150cave.wav","None","724.696800578","136","321151.556553","328035.13486","328801.93036","329568.490887","330335.279585","316518.983448","317268.398413","318035.314181","321918.587952","322685.343877","323451.883381","324218.613645","324985.194577","325752.214537","326501.884571","327268.419437","329577.825782","Mapping"
"Mixed","Both","cave","23","m160greet.wav","space","652.182166697","136","321151.556553","328035.13486","328801.93036","329568.490887","330335.279585","331084.972807","317268.398413","318035.314181","321918.587952","322685.343877","323451.883381","324218.613645","324985.194577","325752.214537","326501.884571","327268.419437","330344.321383","Mapping"
"Mixed","Both","cave","23","m160cave.wav","None","735.25169713","136","321151.556553","328035.13486","328801.93036","329568.490887","330335.279585","331084.972807","331851.599188","318035.314181","321918.587952","322685.343877","323451.883381","324218.613645","324985.194577","325752.214537","326501.884571","327268.419437","331094.743637","Mapping"
"Mixed","Both","cave","23","m150knife.wav","None","734.030459309","136","321151.556553","328035.13486","328801.93036","329568.490887","330335.279585","331084.972807","331851.599188","332618.503208","321918.587952","322685.343877","323451.883381","324218.613645","324985.194577","325752.214537","326501.884571","327268.419437","331860.358092","Mapping"
"Mixed","Both","ball","8","m150jaw.wav","None","730.813193019","136","335734.779897","328035.13486","328801.93036","329568.490887","330335.279585","331084.972807","331851.599188","332618.503208","321918.587952","322685.343877","323451.883381","324218.613645","324985.194577","325752.214537","326501.884571","327268.419437","332627.788326","Mapping"
"Mixed","Both","ball","8","m160ball.wav","None","736.819828395","136","335734.779897","328035.13486","328801.93036","329568.490887","330335.279585","331084.972807","331851.599188","332618.503208","336501.493466","322685.343877","323451.883381","324218.613645","324985.194577","325752.214537","326501.884571","327268.419437","335744.285457","Mapping"
"Mixed","Both","ball","8","m150bluff.wav","space","646.250351332","136","335734.779897","328035.13486","328801.93036","329568.490887","330335.279585","331084.972807","331851.599188","332618.503208","336501.493466","337268.287419","323451.883381","324218.613645","324985.194577","325752.214537","326501.884571","327268.419437","336510.183424","Mapping"
"Mixed","Both","ball","8","m160cling.wav","None","731.361977058","136","335734.779897","328035.13486","328801.93036","329568.490887","330335.279585","331084.972807","331851.599188","332618.503208","336501.493466","337268.287419","338035.008408","324218.613645","324985.194577","325752.214537","326501.884571","327268.419437","337277.925615","Mapping"
"Mixed","Both","ball","8","m160reek.wav","None","728.721320629","136","335734.779897","328035.13486","328801.93036","329568.490887","330335.279585","331084.972807","331851.599188","332618.503208","336501.493466","337268.287419","338035.008408","338802.006726","324985.194577","325752.214537","326501.884571","327268.419437","338044.734409","Mapping"
"Mixed","Both","ball","8","m160park.wav","None","725.905671599","136","335734.779897","328035.13486","328801.93036","329568.490887","330335.279585","331084.972807","331851.599188","332618.503208","336501.493466","337268.287419","338035.008408","338802.006726","339568.231799","325752.214537","326501.884571","327268.419437","338811.830425","Mapping"
"Mixed","Both","ball","8","m160ball.wav","None","724.901164765","136","335734.779897","328035.13486","328801.93036","329568.490887","330335.279585","331084.972807","331851.599188","332618.503208","336501.493466","337268.287419","338035.008408","338802.006726","339568.231799","340335.144166","326501.884571","327268.419437","339577.337905","Mapping"
"Mixed","Both","ball","8","m160priest.wav","space","492.147131008","136","335734.779897","328035.13486","328801.93036","329568.490887","330335.279585","331084.972807","331851.599188","332618.503208","336501.493466","337268.287419","338035.008408","338802.006726","339568.231799","340335.144166","341084.624058","327268.419437","340344.220283","Mapping"
"Mixed","Both","ball","8","m150depth.wav","None","735.296218307","136","335734.779897","328035.13486","328801.93036","329568.490887","330335.279585","331084.972807","331851.599188","332618.503208","336501.493466","337268.287419","338035.008408","338802.006726","339568.231799","340335.144166","341084.624058","341851.593932","341094.309557","Mapping"
"Mixed","Both","ball","8","m160gnash.wav","None","733.011421282","136","335734.779897","342618.451885","328801.93036","329568.490887","330335.279585","331084.972807","331851.599188","332618.503208","336501.493466","337268.287419","338035.008408","338802.006726","339568.231799","340335.144166","341084.624058","341851.593932","341860.974585","Mapping"
"Mixed","Both","ball","8","m150ball.wav","None","730.690141674","136","335734.779897","342618.451885","343385.014576","329568.490887","330335.279585","331084.972807","331851.599188","332618.503208","336501.493466","337268.287419","338035.008408","338802.006726","339568.231799","340335.144166","341084.624058","341851.593932","342627.642086","Mapping"
"Mixed","Both","ball","8","m150cave.wav","space","449.98195977","136","335734.779897","342618.451885","343385.014576","344152.568171","330335.279585","331084.972807","331851.599188","332618.503208","336501.493466","337268.287419","338035.008408","338802.006726","339568.231799","340335.144166","341084.624058","341851.593932","343394.35751","Mapping"
"Mixed","Both","ball","8","m160reek.wav","None","723.042409751","136","335734.779897","342618.451885","343385.014576","344152.568171","344918.551779","331084.972807","331851.599188","332618.503208","336501.493466","337268.287419","338035.008408","338802.006726","339568.231799","340335.144166","341084.624058","341851.593932","344162.614785","Mapping"
"Mixed","Both","ball","8","m150gnash.wav","None","722.020279965","136","335734.779897","342618.451885","343385.014576","344152.568171","344918.551779","345667.984058","331851.599188","332618.503208","336501.493466","337268.287419","338035.008408","338802.006726","339568.231799","340335.144166","341084.624058","341851.593932","344928.061048","Mapping"
"Mixed","Both","ball","8","m150ball.wav","None","736.596295494","136","335734.779897","342618.451885","343385.014576","344152.568171","344918.551779","345667.984058","346434.844793","332618.503208","336501.493466","337268.287419","338035.008408","338802.006726","339568.231799","340335.144166","341084.624058","341851.593932","345677.769111","Mapping"
"Mixed","Both","ball","8","m150dime.wav","space","504.079707665","136","335734.779897","342618.451885","343385.014576","344152.568171","344918.551779","345667.984058","346434.844793","347201.35307","336501.493466","337268.287419","338035.008408","338802.006726","339568.231799","340335.144166","341084.624058","341851.593932","346444.26533","Mapping"
"Mixed","Both","tile","31","m160reek.wav","None","731.474825647","136","350335.259488","342618.451885","343385.014576","344152.568171","344918.551779","345667.984058","346434.844793","347201.35307","336501.493466","337268.287419","338035.008408","338802.006726","339568.231799","340335.144166","341084.624058","341851.593932","347210.254812","Mapping"
"Mixed","Both","tile","31","m150tile.wav","None","720.190896536","136","350335.259488","342618.451885","343385.014576","344152.568171","344918.551779","345667.984058","346434.844793","347201.35307","351084.752675","337268.287419","338035.008408","338802.006726","339568.231799","340335.144166","341084.624058","341851.593932","350345.002493","Mapping"
"Mixed","Both","tile","31","m150jaw.wav","space","589.55461299","136","350335.259488","342618.451885","343385.014576","344152.568171","344918.551779","345667.984058","346434.844793","347201.35307","351084.752675","351851.500252","338035.008408","338802.006726","339568.231799","340335.144166","341084.624058","341851.593932","351094.660779","Mapping"
"Mixed","Both","tile","31","m160bluff.wav","None","732.674112194","136","350335.259488","342618.451885","343385.014576","344152.568171","344918.551779","345667.984058","346434.844793","347201.35307","351084.752675","351851.500252","352618.196198","338802.006726","339568.231799","340335.144166","341084.624058","341851.593932","351860.436931","Mapping"
"Mixed","Both","tile","31","m150cad.wav","None","729.949978646","136","350335.259488","342618.451885","343385.014576","344152.568171","344918.551779","345667.984058","346434.844793","347201.35307","351084.752675","351851.500252","352618.196198","353384.851332","339568.231799","340335.144166","341084.624058","341851.593932","352627.546552","Mapping"
"Mixed","Both","tile","31","m160knife.wav","None","727.790088044","136","350335.259488","342618.451885","343385.014576","344152.568171","344918.551779","345667.984058","346434.844793","347201.35307","351084.752675","351851.500252","352618.196198","353384.851332","354151.410004","340335.144166","341084.624058","341851.593932","353394.213435","Mapping"
"Mixed","Both","tile","31","m150lash.wav","None","725.313603063","136","350335.259488","342618.451885","343385.014576","344152.568171","344918.551779","345667.984058","346434.844793","347201.35307","351084.752675","351851.500252","352618.196198","353384.851332","354151.410004","354918.352671","341084.624058","341851.593932","354161.018828","Mapping"
"Mixed","Both","tile","31","m160tile.wav","None","722.876074025","136","350335.259488","342618.451885","343385.014576","344152.568171","344918.551779","345667.984058","346434.844793","347201.35307","351084.752675","351851.500252","352618.196198","353384.851332","354151.410004","354918.352671","355685.0885","341851.593932","354927.969224","Mapping"
"Mixed","Both","tile","31","m150depth.wav","space","565.212713322","136","350335.259488","342618.451885","343385.014576","344152.568171","344918.551779","345667.984058","346434.844793","347201.35307","351084.752675","351851.500252","352618.196198","353384.851332","354151.410004","354918.352671","355685.0885","356434.751732","355694.94559","Mapping"
"Mixed","Both","tile","31","m160greet.wav","None","734.420018736","136","350335.259488","357201.510439","343385.014576","344152.568171","344918.551779","345667.984058","346434.844793","347201.35307","351084.752675","351851.500252","352618.196198","353384.851332","354151.410004","354918.352671","355685.0885","356434.751732","356444.057564","Mapping"
"Mixed","Both","tile","31","m160dime.wav","None","731.820791494","136","350335.259488","357201.510439","357968.027064","344152.568171","344918.551779","345667.984058","346434.844793","347201.35307","351084.752675","351851.500252","352618.196198","353384.851332","354151.410004","354918.352671","355685.0885","356434.751732","357211.031767","Mapping"
"Mixed","Both","tile","31","m150tile.wav","None","730.13857496","136","350335.259488","357201.510439","357968.027064","358734.516481","344918.551779","345667.984058","346434.844793","347201.35307","351084.752675","351851.500252","352618.196198","353384.851332","354151.410004","354918.352671","355685.0885","356434.751732","357977.375254","Mapping"
"Mixed","Both","tile","31","m160cad.wav","space","500.454640598","136","350335.259488","357201.510439","357968.027064","358734.516481","359501.873132","345667.984058","346434.844793","347201.35307","351084.752675","351851.500252","352618.196198","353384.851332","354151.410004","354918.352671","355685.0885","356434.751732","358743.650722","Mapping"
"Mixed","Both","tile","31","m150bluff.wav","None","723.418983864","136","350335.259488","357201.510439","357968.027064","358734.516481","359501.873132","360268.273816","346434.844793","347201.35307","351084.752675","351851.500252","352618.196198","353384.851332","354151.410004","354918.352671","355685.0885","356434.751732","359511.693121","Mapping"
"Mixed","Both","tile","31","m160tile.wav","None","721.551262774","136","350335.259488","357201.510439","357968.027064","358734.516481","359501.873132","360268.273816","361017.649207","347201.35307","351084.752675","351851.500252","352618.196198","353384.851332","354151.410004","354918.352671","355685.0885","356434.751732","360277.996416","Mapping"
"Mixed","Both","tile","31","m150romp.wav","space","705.162249971","136","350335.259488","357201.510439","357968.027064","358734.516481","359501.873132","360268.273816","361017.649207","361784.666384","351084.752675","351851.500252","352618.196198","353384.851332","354151.410004","354918.352671","355685.0885","356434.751732","361026.922267","Mapping"
"Mixed","Both","done","40","m150reek.wav","None","733.028116636","136","364918.056791","357201.510439","357968.027064","358734.516481","359501.873132","360268.273816","361017.649207","361784.666384","351084.752675","351851.500252","352618.196198","353384.851332","354151.410004","354918.352671","355685.0885","356434.751732","361794.099906","Mapping"
"Mixed","Both","done","40","m160cad.wav","None","722.651613527","136","364918.056791","357201.510439","357968.027064","358734.516481","359501.873132","360268.273816","361017.649207","361784.666384","365667.798862","351851.500252","352618.196198","353384.851332","354151.410004","354918.352671","355685.0885","356434.751732","364926.992542","Mapping"
"Mixed","Both","done","40","m160ball.wav","None","737.47991526","136","364918.056791","357201.510439","357968.027064","358734.516481","359501.873132","360268.273816","361017.649207","361784.666384","365667.798862","366434.311158","352618.196198","353384.851332","354151.410004","354918.352671","355685.0885","356434.751732","365676.594867","Mapping"
"Mixed","Both","done","40","m160lash.wav","None","735.401955782","136","364918.056791","357201.510439","357968.027064","358734.516481","359501.873132","360268.273816","361017.649207","361784.666384","365667.798862","366434.311158","367201.100474","353384.851332","354151.410004","354918.352671","355685.0885","356434.751732","366443.321112","Mapping"
"Mixed","Both","done","40","m150done.wav","None","732.908775331","136","364918.056791","357201.510439","357968.027064","358734.516481","359501.873132","360268.273816","361017.649207","361784.666384","365667.798862","366434.311158","367201.100474","367967.962137","354151.410004","354918.352671","355685.0885","356434.751732","367210.179064","Mapping"
"Mixed","Both","done","40","m160priest.wav","space","530.999501352","136","364918.056791","357201.510439","357968.027064","358734.516481","359501.873132","360268.273816","361017.649207","361784.666384","365667.798862","366434.311158","367201.100474","367967.962137","368734.364986","354918.352671","355685.0885","356434.751732","367976.950448","Mapping"
"Mixed","Both","done","40","m160done.wav","None","727.212241502","136","364918.056791","357201.510439","357968.027064","358734.516481","359501.873132","360268.273816","361017.649207","361784.666384","365667.798862","366434.311158","367201.100474","367967.962137","368734.364986","369501.18862","355685.0885","356434.751732","368743.478512","Mapping"
"Mixed","Both","done","40","m150park.wav","space","701.872018632","136","364918.056791","357201.510439","357968.027064","358734.516481","359501.873132","360268.273816","361017.649207","361784.666384","365667.798862","366434.311158","367201.100474","367967.962137","368734.364986","369501.18862","370251.3017","356434.751732","369510.079232","Mapping"
"Mixed","Both","done","40","m160gnash.wav","None","737.542986753","136","364918.056791","357201.510439","357968.027064","358734.516481","359501.873132","360268.273816","361017.649207","361784.666384","365667.798862","366434.311158","367201.100474","367967.962137","368734.364986","369501.18862","370251.3017","371017.803175","370260.439034","Mapping"
"Mixed","Both","done","40","m150jolt.wav","None","735.256025568","136","364918.056791","371784.250236","357968.027064","358734.516481","359501.873132","360268.273816","361017.649207","361784.666384","365667.798862","366434.311158","367201.100474","367967.962137","368734.364986","369501.18862","370251.3017","371017.803175","371027.151984","Mapping"
"Mixed","Both","done","40","m160done.wav","None","733.617402497","136","364918.056791","371784.250236","372551.046972","358734.516481","359501.873132","360268.273816","361017.649207","361784.666384","365667.798862","366434.311158","367201.100474","367967.962137","368734.364986","369501.18862","370251.3017","371017.803175","371793.173002","Mapping"
"Mixed","Both","done","40","m150lash.wav","space","412.091430277","136","364918.056791","371784.250236","372551.046972","373317.694068","359501.873132","360268.273816","361017.649207","361784.666384","365667.798862","366434.311158","367201.100474","367967.962137","368734.364986","369501.18862","370251.3017","371017.803175","372559.817006","Mapping"
"Mixed","Both","done","40","m160gnash.wav","None","727.802764275","136","364918.056791","371784.250236","372551.046972","373317.694068","374084.453085","360268.273816","361017.649207","361784.666384","365667.798862","366434.311158","367201.100474","367967.962137","368734.364986","369501.18862","370251.3017","371017.803175","373326.67063","Mapping"
"Mixed","Both","done","40","m150done.wav","None","724.904565723","136","364918.056791","371784.250236","372551.046972","373317.694068","374084.453085","374851.33639","361017.649207","361784.666384","365667.798862","366434.311158","367201.100474","367967.962137","368734.364986","369501.18862","370251.3017","371017.803175","374093.981832","Mapping"
"Mixed","Both","done","40","m150jaw.wav","space","486.572720925","136","364918.056791","371784.250236","372551.046972","373317.694068","374084.453085","374851.33639","375600.989728","361784.666384","365667.798862","366434.311158","367201.100474","367967.962137","368734.364986","369501.18862","370251.3017","371017.803175","374861.303237","Mapping"
"Mixed","Both","done","40","m150cave.wav","None","736.042564618","136","364918.056791","371784.250236","372551.046972","373317.694068","374084.453085","374851.33639","375600.989728","376367.845517","365667.798862","366434.311158","367201.100474","367967.962137","368734.364986","369501.18862","370251.3017","371017.803175","375610.402845","Mapping"
"Mixed","Both","ball","10","m160depth.wav","None","733.89689601","136","379484.054498","371784.250236","372551.046972","373317.694068","374084.453085","374851.33639","375600.989728","376367.845517","365667.798862","366434.311158","367201.100474","367967.962137","368734.364986","369501.18862","370251.3017","371017.803175","376377.138983","Mapping"
"Mixed","Both","ball","10","m160bluff.wav","None","736.630922998","136","379484.054498","371784.250236","372551.046972","373317.694068","374084.453085","374851.33639","375600.989728","376367.845517","380251.100737","366434.311158","367201.100474","367967.962137","368734.364986","369501.18862","370251.3017","371017.803175","379493.901076","Mapping"
"Mixed","Both","ball","10","m150ball.wav","None","734.897692688","136","379484.054498","371784.250236","372551.046972","373317.694068","374084.453085","374851.33639","375600.989728","376367.845517","380251.100737","381017.617362","367201.100474","367967.962137","368734.364986","369501.18862","370251.3017","371017.803175","380260.122748","Mapping"
"Mixed","Both","ball","10","m150lash.wav","space","593.175969785","136","379484.054498","371784.250236","372551.046972","373317.694068","374084.453085","374851.33639","375600.989728","376367.845517","380251.100737","381017.617362","381784.189947","367967.962137","368734.364986","369501.18862","370251.3017","371017.803175","381026.6066","Mapping"
"Mixed","Both","ball","10","m150jaw.wav","None","730.280485936","136","379484.054498","371784.250236","372551.046972","373317.694068","374084.453085","374851.33639","375600.989728","376367.845517","380251.100737","381017.617362","381784.189947","382550.838589","368734.364986","369501.18862","370251.3017","371017.803175","381792.977295","Mapping"
"Mixed","Both","ball","10","m160ball.wav","None","728.267453029","136","379484.054498","371784.250236","372551.046972","373317.694068","374084.453085","374851.33639","375600.989728","376367.845517","380251.100737","381017.617362","381784.189947","382550.838589","383317.616774","369501.18862","370251.3017","371017.803175","382559.784852","Mapping"
"Mixed","Both","ball","10","m150park.wav","space","620.875191758","136","379484.054498","371784.250236","372551.046972","373317.694068","374084.453085","374851.33639","375600.989728","376367.845517","380251.100737","381017.617362","381784.189947","382550.838589","383317.616774","384084.71681","370251.3017","371017.803175","383326.868193","Mapping"
"Mixed","Both","ball","10","m150reek.wav","None","720.910344855","136","379484.054498","371784.250236","372551.046972","373317.694068","374084.453085","374851.33639","375600.989728","376367.845517","380251.100737","381017.617362","381784.189947","382550.838589","383317.616774","384084.71681","384834.010579","371017.803175","384094.800216","Mapping"
"Mixed","Both","ball","10","m160bluff.wav","None","737.357173231","136","379484.054498","371784.250236","372551.046972","373317.694068","374084.453085","374851.33639","375600.989728","376367.845517","380251.100737","381017.617362","381784.189947","382550.838589","383317.616774","384084.71681","384834.010579","385600.730331","384843.286422","Mapping"
"Mixed","Both","ball","10","m160romp.wav","None","735.640019877","136","379484.054498","386367.78059","372551.046972","373317.694068","374084.453085","374851.33639","375600.989728","376367.845517","380251.100737","381017.617362","381784.189947","382550.838589","383317.616774","384084.71681","384834.010579","385600.730331","385609.586006","Mapping"
"Mixed","Both","ball","10","m160ball.wav","None","732.739347848","136","379484.054498","386367.78059","387134.401406","373317.694068","374084.453085","374851.33639","375600.989728","376367.845517","380251.100737","381017.617362","381784.189947","382550.838589","383317.616774","384084.71681","384834.010579","385600.730331","386377.040047","Mapping"
"Mixed","Both","ball","10","m160priest.wav","space","595.758810756","136","379484.054498","386367.78059","387134.401406","387900.90721","374084.453085","374851.33639","375600.989728","376367.845517","380251.100737","381017.617362","381784.189947","382550.838589","383317.616774","384084.71681","384834.010579","385600.730331","387143.940047","Mapping"
"Mixed","Both","ball","10","m150ball.wav","None","727.194927866","136","379484.054498","386367.78059","387134.401406","387900.90721","388667.565127","374851.33639","375600.989728","376367.845517","380251.100737","381017.617362","381784.189947","382550.838589","383317.616774","384084.71681","384834.010579","385600.730331","387910.325273","Mapping"
"Mixed","Both","ball","10","m160jolt.wav","None","725.629269844","136","379484.054498","386367.78059","387134.401406","387900.90721","388667.565127","389434.149151","375600.989728","376367.845517","380251.100737","381017.617362","381784.189947","382550.838589","383317.616774","384084.71681","384834.010579","385600.730331","388676.510463","Mapping"
"Mixed","Both","ball","10","m150lash.wav","space","216.547742835","136","379484.054498","386367.78059","387134.401406","387900.90721","388667.565127","389434.149151","390183.947183","376367.845517","380251.100737","381017.617362","381784.189947","382550.838589","383317.616774","384084.71681","384834.010579","385600.730331","389443.094178","Mapping"
"Mixed","Both","ball","10","m150tile.wav","None","736.830649548","136","379484.054498","386367.78059","387134.401406","387900.90721","388667.565127","389434.149151","390183.947183","390950.864497","380251.100737","381017.617362","381784.189947","382550.838589","383317.616774","384084.71681","384834.010579","385600.730331","390193.446868","Mapping"
"Mixed","Both","cave","17","m150cad.wav","None","734.450626886","136","394084.815746","386367.78059","387134.401406","387900.90721","388667.565127","389434.149151","390183.947183","390950.864497","380251.100737","381017.617362","381784.189947","382550.838589","383317.616774","384084.71681","384834.010579","385600.730331","390960.435911","Mapping"
"Mixed","Both","cave","17","m160done.wav","None","720.018068096","136","394084.815746","386367.78059","387134.401406","387900.90721","388667.565127","389434.149151","390183.947183","390950.864497","394834.063139","381017.617362","381784.189947","382550.838589","383317.616774","384084.71681","384834.010579","385600.730331","394094.335218","Mapping"
"Mixed","Both","cave","17","m160depth.wav","None","735.434728325","136","394084.815746","386367.78059","387134.401406","387900.90721","388667.565127","389434.149151","390183.947183","390950.864497","394834.063139","395600.915217","381784.189947","382550.838589","383317.616774","384084.71681","384834.010579","385600.730331","394843.483985","Mapping"
"Mixed","Both","cave","17","m160cave.wav","None","733.125506435","136","394084.815746","386367.78059","387134.401406","387900.90721","388667.565127","389434.149151","390183.947183","390950.864497","394834.063139","395600.915217","396367.525522","382550.838589","383317.616774","384084.71681","384834.010579","385600.730331","395610.395425","Mapping"
"Mixed","Both","cave","17","m150romp.wav","None","731.027141446","136","394084.815746","386367.78059","387134.401406","387900.90721","388667.565127","389434.149151","390183.947183","390950.864497","394834.063139","395600.915217","396367.525522","397134.107073","383317.616774","384084.71681","384834.010579","385600.730331","396377.322323","Mapping"
"Mixed","Both","cave","17","m160lash.wav","space","20.0419055764","136","394084.815746","386367.78059","387134.401406","387900.90721","388667.565127","389434.149151","390183.947183","390950.864497","394834.063139","395600.915217","396367.525522","397134.107073","397900.852795","384084.71681","384834.010579","385600.730331","397143.508749","Mapping"
"Mixed","Both","cave","17","m160cave.wav","None","726.117146667","136","394084.815746","386367.78059","387134.401406","387900.90721","388667.565127","389434.149151","390183.947183","390950.864497","394834.063139","395600.915217","396367.525522","397134.107073","397900.852795","398667.835654","384834.010579","385600.730331","397910.344442","Mapping"
"Mixed","Both","cave","17","m150reek.wav","space","702.286002808","136","394084.815746","386367.78059","387134.401406","387900.90721","388667.565127","389434.149151","390183.947183","390950.864497","394834.063139","395600.915217","396367.525522","397134.107073","397900.852795","398667.835654","399434.514286","385600.730331","398677.234858","Mapping"
"Mixed","Both","cave","17","m150cave.wav","None","720.047439798","136","394084.815746","386367.78059","387134.401406","387900.90721","388667.565127","389434.149151","390183.947183","390950.864497","394834.063139","395600.915217","396367.525522","397134.107073","397900.852795","398667.835654","399434.514286","400184.00469","399444.408168","Mapping"
"Mixed","Both","cave","17","m150greet.wav","None","735.169147607","136","394084.815746","400950.789368","387134.401406","387900.90721","388667.565127","389434.149151","390183.947183","390950.864497","394834.063139","395600.915217","396367.525522","397134.107073","397900.852795","398667.835654","399434.514286","400184.00469","400193.917431","Mapping"
"Mixed","Both","cave","17","m160depth.wav","space","3.64485406317","136","394084.815746","400950.789368","401717.371228","387900.90721","388667.565127","389434.149151","390183.947183","390950.864497","394834.063139","395600.915217","396367.525522","397134.107073","397900.852795","398667.835654","399434.514286","400184.00469","400959.852808","Mapping"
"Mixed","Both","cave","17","m150dime.wav","None","729.970693472","136","394084.815746","400950.789368","401717.371228","402484.022034","388667.565127","389434.149151","390183.947183","390950.864497","394834.063139","395600.915217","396367.525522","397134.107073","397900.852795","398667.835654","399434.514286","400184.00469","401726.716326","Mapping"
"Mixed","Both","cave","17","m160depth.wav","None","728.020731942","136","394084.815746","400950.789368","401717.371228","402484.022034","403250.779815","389434.149151","390183.947183","390950.864497","394834.063139","395600.915217","396367.525522","397134.107073","397900.852795","398667.835654","399434.514286","400184.00469","402493.43546","Mapping"
"Mixed","Both","cave","17","m160done.wav","None","726.456929115","136","394084.815746","400950.789368","401717.371228","402484.022034","403250.779815","404017.376824","390183.947183","390950.864497","394834.063139","395600.915217","396367.525522","397134.107073","397900.852795","398667.835654","399434.514286","400184.00469","403259.786985","Mapping"
"Mixed","Both","cave","17","m150cave.wav","None","724.450388807","136","394084.815746","400950.789368","401717.371228","402484.022034","403250.779815","404017.376824","404783.88541","390950.864497","394834.063139","395600.915217","396367.525522","397134.107073","397900.852795","398667.835654","399434.514286","400184.00469","404026.430989","Mapping"
