"Condition","Talker","Target","Trial","current_stimulus","response_response","response_time_response","subject_nr","time_Audio1","time_Audio10","time_Audio11","time_Audio12","time_Audio13","time_Audio14","time_Audio15","time_Audio16","time_Audio2","time_Audio3","time_Audio4","time_Audio5","time_Audio6","time_Audio7","time_Audio8","time_Audio9","time_response","title"
"Blocked","m160","ball","6","m160gnash.wav","NA","NA","106","961515.007731","NA","NA","NA","NA","NA","NA","NA","NA","NA","NA","NA","NA","NA","NA","NA","NA","Mapping"
"Blocked","m160","ball","6","m160jaw.wav","None","718.48543454","106","961515.007731","NA","NA","NA","NA","NA","NA","NA","962280.497695","NA","NA","NA","NA","NA","NA","NA","961528.750789","Mapping"
"Blocked","m160","ball","6","m160ball.wav","None","728.836244205","106","961515.007731","NA","NA","NA","NA","NA","NA","NA","962280.497695","963047.443555","NA","NA","NA","NA","NA","NA","962289.367256","Mapping"
"Blocked","m160","ball","6","m160bluff.wav","space","611.98485177","106","961515.007731","NA","NA","NA","NA","NA","NA","NA","962280.497695","963047.443555","963814.273785","NA","NA","NA","NA","NA","963056.72648","Mapping"
"Blocked","m160","ball","6","m160ball.wav","None","727.726312587","106","961515.007731","NA","NA","NA","NA","NA","NA","NA","962280.497695","963047.443555","963814.273785","964581.339604","NA","NA","NA","NA","963823.57557","Mapping"
"Blocked","m160","ball","6","m160done.wav","space","414.171200944","106","961515.007731","NA","NA","NA","NA","NA","NA","NA","962280.497695","963047.443555","963814.273785","964581.339604","965347.877047","NA","NA","NA","964590.55142","Mapping"
"Blocked","m160","ball","6","m160cad.wav","None","722.998436075","106","961515.007731","NA","NA","NA","NA","NA","NA","NA","962280.497695","963047.443555","963814.273785","964581.339604","965347.877047","966114.521463","NA","NA","965357.86736","Mapping"
"Blocked","m160","ball","6","m160jolt.wav","None","723.185176495","106","961515.007731","NA","NA","NA","NA","NA","NA","NA","962280.497695","963047.443555","963814.273785","964581.339604","965347.877047","966114.521463","966881.384156","NA","966124.194874","Mapping"
"Blocked","m160","ball","6","m160gnash.wav","None","722.393074771","106","961515.007731","NA","NA","NA","NA","NA","NA","NA","962280.497695","963047.443555","963814.273785","964581.339604","965347.877047","966114.521463","966881.384156","967647.92871","966891.56523","Mapping"
"Blocked","m160","ball","6","m160romp.wav","None","720.093444455","106","961515.007731","968414.481611","NA","NA","NA","NA","NA","NA","962280.497695","963047.443555","963814.273785","964581.339604","965347.877047","966114.521463","966881.384156","967647.92871","967657.292638","Mapping"
"Blocked","m160","ball","6","m160ball.wav","None","720.662941458","106","961515.007731","968414.481611","969164.262484","NA","NA","NA","NA","NA","962280.497695","963047.443555","963814.273785","964581.339604","965347.877047","966114.521463","966881.384156","967647.92871","968423.590781","Mapping"
"Blocked","m160","ball","6","m160done.wav","space","471.129870275","106","961515.007731","968414.481611","969164.262484","969930.999962","NA","NA","NA","NA","962280.497695","963047.443555","963814.273785","964581.339604","965347.877047","966114.521463","966881.384156","967647.92871","969173.541081","Mapping"
"Blocked","m160","ball","6","m160ball.wav","None","730.874932371","106","961515.007731","968414.481611","969164.262484","969930.999962","970697.838539","NA","NA","NA","962280.497695","963047.443555","963814.273785","964581.339604","965347.877047","966114.521463","966881.384156","967647.92871","969939.987318","Mapping"
"Blocked","m160","ball","6","m160depth.wav","space","473.722906085","106","961515.007731","968414.481611","969164.262484","969930.999962","970697.838539","971464.286631","NA","NA","962280.497695","963047.443555","963814.273785","964581.339604","965347.877047","966114.521463","966881.384156","967647.92871","970706.873817","Mapping"
"Blocked","m160","ball","6","m160greet.wav","None","727.273373632","106","961515.007731","968414.481611","969164.262484","969930.999962","970697.838539","971464.286631","972230.997829","NA","962280.497695","963047.443555","963814.273785","964581.339604","965347.877047","966114.521463","966881.384156","967647.92871","971473.394873","Mapping"
"Blocked","m160","ball","6","m160knife.wav","None","727.239364758","106","961515.007731","968414.481611","969164.262484","969930.999962","970697.838539","971464.286631","972230.997829","972997.516103","962280.497695","963047.443555","963814.273785","964581.339604","965347.877047","966114.521463","966881.384156","967647.92871","972239.996006","Mapping"
"Blocked","m160","tile","13","m160reek.wav","None","727.353140246","106","976264.201175","968414.481611","969164.262484","969930.999962","970697.838539","971464.286631","972230.997829","972997.516103","962280.497695","963047.443555","963814.273785","964581.339604","965347.877047","966114.521463","966881.384156","967647.92871","973006.720498","Mapping"
"Blocked","m160","tile","13","m160jolt.wav","None","725.137914531","106","976264.201175","968414.481611","969164.262484","969930.999962","970697.838539","971464.286631","972230.997829","972997.516103","977030.654523","963047.443555","963814.273785","964581.339604","965347.877047","966114.521463","966881.384156","967647.92871","976273.220994","Mapping"
"Blocked","m160","tile","13","m160tile.wav","None","722.118838225","106","976264.201175","968414.481611","969164.262484","969930.999962","970697.838539","971464.286631","972230.997829","972997.516103","977030.654523","977797.925633","963814.273785","964581.339604","965347.877047","966114.521463","966881.384156","967647.92871","977039.46936","Mapping"
"Blocked","m160","tile","13","m160dime.wav","space","500.956118107","106","976264.201175","968414.481611","969164.262484","969930.999962","970697.838539","971464.286631","972230.997829","972997.516103","977030.654523","977797.925633","978565.17572","964581.339604","965347.877047","966114.521463","966881.384156","967647.92871","977807.513094","Mapping"
"Blocked","m160","tile","13","m160priest.wav","None","720.592450118","106","976264.201175","968414.481611","969164.262484","969930.999962","970697.838539","971464.286631","972230.997829","972997.516103","977030.654523","977797.925633","978565.17572","979331.165926","965347.877047","966114.521463","966881.384156","967647.92871","978574.447515","Mapping"
"Blocked","m160","tile","13","m160tile.wav","None","722.054839367","106","976264.201175","968414.481611","969164.262484","969930.999962","970697.838539","971464.286631","972230.997829","972997.516103","977030.654523","977797.925633","978565.17572","979331.165926","980080.406056","966114.521463","966881.384156","967647.92871","979340.05682","Mapping"
"Blocked","m160","tile","13","m160done.wav","space","523.250597529","106","976264.201175","968414.481611","969164.262484","969930.999962","970697.838539","971464.286631","972230.997829","972997.516103","977030.654523","977797.925633","978565.17572","979331.165926","980080.406056","980847.509904","966881.384156","967647.92871","980089.181937","Mapping"
"Blocked","m160","tile","13","m160done.wav","None","731.599015882","106","976264.201175","968414.481611","969164.262484","969930.999962","970697.838539","971464.286631","972230.997829","972997.516103","977030.654523","977797.925633","978565.17572","979331.165926","980080.406056","980847.509904","981614.116292","967647.92871","980856.937213","Mapping"
"Blocked","m160","tile","13","m160reek.wav","None","728.622605558","106","976264.201175","968414.481611","969164.262484","969930.999962","970697.838539","971464.286631","972230.997829","972997.516103","977030.654523","977797.925633","978565.17572","979331.165926","980080.406056","980847.509904","981614.116292","982380.82749","981623.194854","Mapping"
"Blocked","m160","tile","13","m160tile.wav","None","725.597964134","106","976264.201175","983147.418729","969164.262484","969930.999962","970697.838539","971464.286631","972230.997829","972997.516103","977030.654523","977797.925633","978565.17572","979331.165926","980080.406056","980847.509904","981614.116292","982380.82749","982389.862149","Mapping"
"Blocked","m160","tile","13","m160gnash.wav","space","488.000215031","106","976264.201175","983147.418729","983897.083971","969930.999962","970697.838539","971464.286631","972230.997829","972997.516103","977030.654523","977797.925633","978565.17572","979331.165926","980080.406056","980847.509904","981614.116292","982380.82749","983156.405466","Mapping"
"Blocked","m160","tile","13","m160dime.wav","None","735.887557501","106","976264.201175","983147.418729","983897.083971","984664.076207","970697.838539","971464.286631","972230.997829","972997.516103","977030.654523","977797.925633","978565.17572","979331.165926","980080.406056","980847.509904","981614.116292","982380.82749","983906.109974","Mapping"
"Blocked","m160","tile","13","m160greet.wav","None","732.639692957","106","976264.201175","983147.418729","983897.083971","984664.076207","985430.743812","971464.286631","972230.997829","972997.516103","977030.654523","977797.925633","978565.17572","979331.165926","980080.406056","980847.509904","981614.116292","982380.82749","984672.794583","Mapping"
"Blocked","m160","tile","13","m160reek.wav","None","728.854485555","106","976264.201175","983147.418729","983897.083971","984664.076207","985430.743812","986197.393175","972230.997829","972997.516103","977030.654523","977797.925633","978565.17572","979331.165926","980080.406056","980847.509904","981614.116292","982380.82749","985440.099393","Mapping"
"Blocked","m160","tile","13","m160tile.wav","None","725.979793118","106","976264.201175","983147.418729","983897.083971","984664.076207","985430.743812","986197.393175","986964.116122","972997.516103","977030.654523","977797.925633","978565.17572","979331.165926","980080.406056","980847.509904","981614.116292","982380.82749","986206.431854","Mapping"
"Blocked","m160","tile","13","m160jolt.wav","space","407.324560452","106","976264.201175","983147.418729","983897.083971","984664.076207","985430.743812","986197.393175","986964.116122","987713.78693","977030.654523","977797.925633","978565.17572","979331.165926","980080.406056","980847.509904","981614.116292","982380.82749","986973.019382","Mapping"
"Blocked","m160","tile","14","m160cave.wav","None","735.663406784","106","990847.732508","983147.418729","983897.083971","984664.076207","985430.743812","986197.393175","986964.116122","987713.78693","977030.654523","977797.925633","978565.17572","979331.165926","980080.406056","980847.509904","981614.116292","982380.82749","987723.247939","Mapping"
"Blocked","m160","tile","14","m160reek.wav","None","723.218567204","106","990847.732508","983147.418729","983897.083971","984664.076207","985430.743812","986197.393175","986964.116122","987713.78693","991613.791969","977797.925633","978565.17572","979331.165926","980080.406056","980847.509904","981614.116292","982380.82749","990857.554632","Mapping"
"Blocked","m160","tile","14","m160cad.wav","None","721.412068233","106","990847.732508","983147.418729","983897.083971","984664.076207","985430.743812","986197.393175","986964.116122","987713.78693","991613.791969","992363.87676","978565.17572","979331.165926","980080.406056","980847.509904","981614.116292","982380.82749","991622.809315","Mapping"
"Blocked","m160","tile","14","m160tile.wav","None","734.602633631","106","990847.732508","983147.418729","983897.083971","984664.076207","985430.743812","986197.393175","986964.116122","987713.78693","991613.791969","992363.87676","993130.625986","979331.165926","980080.406056","980847.509904","981614.116292","982380.82749","992373.125985","Mapping"
"Blocked","m160","tile","14","m160park.wav","space","472.372437362","106","990847.732508","983147.418729","983897.083971","984664.076207","985430.743812","986197.393175","986964.116122","987713.78693","991613.791969","992363.87676","993130.625986","993897.001731","980080.406056","980847.509904","981614.116292","982380.82749","993139.870883","Mapping"
"Blocked","m160","tile","14","m160reek.wav","None","735.116788652","106","990847.732508","983147.418729","983897.083971","984664.076207","985430.743812","986197.393175","986964.116122","987713.78693","991613.791969","992363.87676","993130.625986","993897.001731","994663.729006","980847.509904","981614.116292","982380.82749","993905.655798","Mapping"
"Blocked","m160","tile","14","m160tile.wav","None","731.62282235","106","990847.732508","983147.418729","983897.083971","984664.076207","985430.743812","986197.393175","986964.116122","987713.78693","991613.791969","992363.87676","993130.625986","993897.001731","994663.729006","995430.615505","981614.116292","982380.82749","994672.658856","Mapping"
"Blocked","m160","tile","14","m160park.wav","space","532.519919332","106","990847.732508","983147.418729","983897.083971","984664.076207","985430.743812","986197.393175","986964.116122","987713.78693","991613.791969","992363.87676","993130.625986","993897.001731","994663.729006","995430.615505","996197.582698","982380.82749","995439.615846","Mapping"
"Blocked","m160","tile","14","m160tile.wav","None","723.635641858","106","990847.732508","983147.418729","983897.083971","984664.076207","985430.743812","986197.393175","986964.116122","987713.78693","991613.791969","992363.87676","993130.625986","993897.001731","994663.729006","995430.615505","996197.582698","996964.209801","996207.206333","Mapping"
"Blocked","m160","tile","14","m160lash.wav","space","534.337857738","106","990847.732508","997731.063528","983897.083971","984664.076207","985430.743812","986197.393175","986964.116122","987713.78693","991613.791969","992363.87676","993130.625986","993897.001731","994663.729006","995430.615505","996197.582698","996964.209801","996973.830962","Mapping"
"Blocked","m160","tile","14","m160done.wav","None","720.856484026","106","990847.732508","997731.063528","998480.449897","984664.076207","985430.743812","986197.393175","986964.116122","987713.78693","991613.791969","992363.87676","993130.625986","993897.001731","994663.729006","995430.615505","996197.582698","996964.209801","997740.670467","Mapping"
"Blocked","m160","tile","14","m160lash.wav","None","734.99126453","106","990847.732508","997731.063528","998480.449897","999247.136051","985430.743812","986197.393175","986964.116122","987713.78693","991613.791969","992363.87676","993130.625986","993897.001731","994663.729006","995430.615505","996197.582698","996964.209801","998489.836086","Mapping"
"Blocked","m160","tile","14","m160lash.wav","None","732.208396308","106","990847.732508","997731.063528","998480.449897","999247.136051","1000013.5693","986197.393175","986964.116122","987713.78693","991613.791969","992363.87676","993130.625986","993897.001731","994663.729006","995430.615505","996197.582698","996964.209801","999256.074867","Mapping"
"Blocked","m160","tile","14","m160tile.wav","None","729.069051798","106","990847.732508","997731.063528","998480.449897","999247.136051","1000013.5693","1000780.49105","986964.116122","987713.78693","991613.791969","992363.87676","993130.625986","993897.001731","994663.729006","995430.615505","996197.582698","996964.209801","1000022.5276","Mapping"
"Blocked","m160","tile","14","m160knife.wav","space","438.661428401","106","990847.732508","997731.063528","998480.449897","999247.136051","1000013.5693","1000780.49105","1001547.43351","987713.78693","991613.791969","992363.87676","993130.625986","993897.001731","994663.729006","995430.615505","996197.582698","996964.209801","1000789.38905","Mapping"
"Blocked","m160","tile","14","m160romp.wav","None","722.197058843","106","990847.732508","997731.063528","998480.449897","999247.136051","1000013.5693","1000780.49105","1001547.43351","1002297.50562","991613.791969","992363.87676","993130.625986","993897.001731","994663.729006","995430.615505","996197.582698","996964.209801","1001556.56679","Mapping"
"Blocked","m160","ball","4","m160reek.wav","None","735.465226695","106","1005430.83811","997731.063528","998480.449897","999247.136051","1000013.5693","1000780.49105","1001547.43351","1002297.50562","991613.791969","992363.87676","993130.625986","993897.001731","994663.729006","995430.615505","996197.582698","996964.209801","1002306.85316","Mapping"
"Blocked","m160","ball","4","m160ball.wav","None","719.224049477","106","1005430.83811","997731.063528","998480.449897","999247.136051","1000013.5693","1000780.49105","1001547.43351","1002297.50562","1006180.33114","992363.87676","993130.625986","993897.001731","994663.729006","995430.615505","996197.582698","996964.209801","1005440.62159","Mapping"
"Blocked","m160","ball","4","m160tile.wav","space","406.485773623","106","1005430.83811","997731.063528","998480.449897","999247.136051","1000013.5693","1000780.49105","1001547.43351","1002297.50562","1006180.33114","1006946.86642","993130.625986","993897.001731","994663.729006","995430.615505","996197.582698","996964.209801","1006189.4938","Mapping"
"Blocked","m160","ball","4","m160ball.wav","None","730.463113636","106","1005430.83811","997731.063528","998480.449897","999247.136051","1000013.5693","1000780.49105","1001547.43351","1002297.50562","1006180.33114","1006946.86642","1007713.39366","993897.001731","994663.729006","995430.615505","996197.582698","996964.209801","1006955.82688","Mapping"
"Blocked","m160","ball","4","m160bluff.wav","space","561.678352766","106","1005430.83811","997731.063528","998480.449897","999247.136051","1000013.5693","1000780.49105","1001547.43351","1002297.50562","1006180.33114","1006946.86642","1007713.39366","1008481.01939","994663.729006","995430.615505","996197.582698","996964.209801","1007722.26353","Mapping"
"Blocked","m160","ball","4","m160greet.wav","None","722.185928607","106","1005430.83811","997731.063528","998480.449897","999247.136051","1000013.5693","1000780.49105","1001547.43351","1002297.50562","1006180.33114","1006946.86642","1007713.39366","1008481.01939","1009247.0974","995430.615505","996197.582698","996964.209801","1008490.81616","Mapping"
"Blocked","m160","ball","4","m160gnash.wav","None","719.404297415","106","1005430.83811","997731.063528","998480.449897","999247.136051","1000013.5693","1000780.49105","1001547.43351","1002297.50562","1006180.33114","1006946.86642","1007713.39366","1008481.01939","1009247.0974","1009996.82263","996197.582698","996964.209801","1009257.07257","Mapping"
"Blocked","m160","ball","4","m160tile.wav","None","734.359314432","106","1005430.83811","997731.063528","998480.449897","999247.136051","1000013.5693","1000780.49105","1001547.43351","1002297.50562","1006180.33114","1006946.86642","1007713.39366","1008481.01939","1009247.0974","1009996.82263","1010763.69336","996964.209801","1010005.78216","Mapping"
"Blocked","m160","ball","4","m160ball.wav","None","730.657892767","106","1005430.83811","997731.063528","998480.449897","999247.136051","1000013.5693","1000780.49105","1001547.43351","1002297.50562","1006180.33114","1006946.86642","1007713.39366","1008481.01939","1009247.0974","1009996.82263","1010763.69336","1011530.07869","1010772.83654","Mapping"
"Blocked","m160","ball","4","m160cave.wav","space","337.039598497","106","1005430.83811","1012297.01033","998480.449897","999247.136051","1000013.5693","1000780.49105","1001547.43351","1002297.50562","1006180.33114","1006946.86642","1007713.39366","1008481.01939","1009247.0974","1009996.82263","1010763.69336","1011530.07869","1011538.80881","Mapping"
"Blocked","m160","ball","4","m160cave.wav","None","723.891637288","106","1005430.83811","1012297.01033","1013064.16642","999247.136051","1000013.5693","1000780.49105","1001547.43351","1002297.50562","1006180.33114","1006946.86642","1007713.39366","1008481.01939","1009247.0974","1009996.82263","1010763.69336","1011530.07869","1012306.36776","Mapping"
"Blocked","m160","ball","4","m160dime.wav","None","719.784889603","106","1005430.83811","1012297.01033","1013064.16642","1013813.4823","1000013.5693","1000780.49105","1001547.43351","1002297.50562","1006180.33114","1006946.86642","1007713.39366","1008481.01939","1009247.0974","1009996.82263","1010763.69336","1011530.07869","1013073.76873","Mapping"
"Blocked","m160","ball","4","m160ball.wav","None","734.430423938","106","1005430.83811","1012297.01033","1013064.16642","1013813.4823","1014580.20061","1000780.49105","1001547.43351","1002297.50562","1006180.33114","1006946.86642","1007713.39366","1008481.01939","1009247.0974","1009996.82263","1010763.69336","1011530.07869","1013822.67062","Mapping"
"Blocked","m160","ball","4","m160romp.wav","space","574.657752877","106","1005430.83811","1012297.01033","1013064.16642","1013813.4823","1014580.20061","1015346.679","1001547.43351","1002297.50562","1006180.33114","1006946.86642","1007713.39366","1008481.01939","1009247.0974","1009996.82263","1010763.69336","1011530.07869","1014589.17467","Mapping"
"Blocked","m160","ball","4","m160depth.wav","None","728.073823033","106","1005430.83811","1012297.01033","1013064.16642","1013813.4823","1014580.20061","1015346.679","1016113.77388","1002297.50562","1006180.33114","1006946.86642","1007713.39366","1008481.01939","1009247.0974","1009996.82263","1010763.69336","1011530.07869","1015355.58999","Mapping"
"Blocked","m160","ball","4","m160greet.wav","None","724.165873835","106","1005430.83811","1012297.01033","1013064.16642","1013813.4823","1014580.20061","1015346.679","1016113.77388","1016880.39758","1006180.33114","1006946.86642","1007713.39366","1008481.01939","1009247.0974","1009996.82263","1010763.69336","1011530.07869","1016122.99219","Mapping"
"Blocked","m160","ball","5","m160lash.wav","None","720.375101315","106","1019997.0171","1012297.01033","1013064.16642","1013813.4823","1014580.20061","1015346.679","1016113.77388","1016880.39758","1006180.33114","1006946.86642","1007713.39366","1008481.01939","1009247.0974","1009996.82263","1010763.69336","1011530.07869","1016890.42283","Mapping"
"Blocked","m160","ball","5","m160ball.wav","None","720.14631331","106","1019997.0171","1012297.01033","1013064.16642","1013813.4823","1014580.20061","1015346.679","1016113.77388","1016880.39758","1020746.6304","1006946.86642","1007713.39366","1008481.01939","1009247.0974","1009996.82263","1010763.69336","1011530.07869","1020006.73781","Mapping"
"Blocked","m160","ball","5","m160depth.wav","space","488.102242351","106","1019997.0171","1012297.01033","1013064.16642","1013813.4823","1014580.20061","1015346.679","1016113.77388","1016880.39758","1020746.6304","1021513.41394","1007713.39366","1008481.01939","1009247.0974","1009996.82263","1010763.69336","1011530.07869","1020755.61466","Mapping"
"Blocked","m160","ball","5","m160bluff.wav","None","730.801039841","106","1019997.0171","1012297.01033","1013064.16642","1013813.4823","1014580.20061","1015346.679","1016113.77388","1016880.39758","1020746.6304","1021513.41394","1022280.05527","1008481.01939","1009247.0974","1009996.82263","1010763.69336","1011530.07869","1021522.67337","Mapping"
"Blocked","m160","ball","5","m160cave.wav","None","727.841324871","106","1019997.0171","1012297.01033","1013064.16642","1013813.4823","1014580.20061","1015346.679","1016113.77388","1016880.39758","1020746.6304","1021513.41394","1022280.05527","1023046.48759","1009247.0974","1009996.82263","1010763.69336","1011530.07869","1022289.22256","Mapping"
"Blocked","m160","ball","5","m160knife.wav","None","725.386489648","106","1019997.0171","1012297.01033","1013064.16642","1013813.4823","1014580.20061","1015346.679","1016113.77388","1016880.39758","1020746.6304","1021513.41394","1022280.05527","1023046.48759","1023813.77694","1009996.82263","1010763.69336","1011530.07869","1023055.45083","Mapping"
"Blocked","m160","ball","5","m160ball.wav","None","721.196265426","106","1019997.0171","1012297.01033","1013064.16642","1013813.4823","1014580.20061","1015346.679","1016113.77388","1016880.39758","1020746.6304","1021513.41394","1022280.05527","1023046.48759","1023813.77694","1024563.19237","1010763.69336","1011530.07869","1023823.33349","Mapping"
"Blocked","m160","ball","5","m160bluff.wav","space","399.069945328","106","1019997.0171","1012297.01033","1013064.16642","1013813.4823","1014580.20061","1015346.679","1016113.77388","1016880.39758","1020746.6304","1021513.41394","1022280.05527","1023046.48759","1023813.77694","1024563.19237","1025329.83153","1011530.07869","1024572.56867","Mapping"
"Blocked","m160","ball","5","m160greet.wav","None","732.517569559","106","1019997.0171","1012297.01033","1013064.16642","1013813.4823","1014580.20061","1015346.679","1016113.77388","1016880.39758","1020746.6304","1021513.41394","1022280.05527","1023046.48759","1023813.77694","1024563.19237","1025329.83153","1026096.48708","1025338.66461","Mapping"
"Blocked","m160","ball","5","m160cad.wav","None","729.52724644","106","1019997.0171","1026863.32844","1013064.16642","1013813.4823","1014580.20061","1015346.679","1016113.77388","1016880.39758","1020746.6304","1021513.41394","1022280.05527","1023046.48759","1023813.77694","1024563.19237","1025329.83153","1026096.48708","1026105.26049","Mapping"
"Blocked","m160","ball","5","m160cling.wav","None","725.589616457","106","1019997.0171","1026863.32844","1027630.02263","1013813.4823","1014580.20061","1015346.679","1016113.77388","1016880.39758","1020746.6304","1021513.41394","1022280.05527","1023046.48759","1023813.77694","1024563.19237","1025329.83153","1026096.48708","1026872.98083","Mapping"
"Blocked","m160","ball","5","m160ball.wav","None","728.023427771","106","1019997.0171","1026863.32844","1027630.02263","1028396.50937","1014580.20061","1015346.679","1016113.77388","1016880.39758","1020746.6304","1021513.41394","1022280.05527","1023046.48759","1023813.77694","1024563.19237","1025329.83153","1026096.48708","1027639.03132","Mapping"
"Blocked","m160","ball","5","m160romp.wav","space","485.584335634","106","1019997.0171","1026863.32844","1027630.02263","1028396.50937","1029163.8216","1015346.679","1016113.77388","1016880.39758","1020746.6304","1021513.41394","1022280.05527","1023046.48759","1023813.77694","1024563.19237","1025329.83153","1026096.48708","1028405.98924","Mapping"
"Blocked","m160","ball","5","m160ball.wav","None","720.813818276","106","1019997.0171","1026863.32844","1027630.02263","1028396.50937","1029163.8216","1029913.05524","1016113.77388","1016880.39758","1020746.6304","1021513.41394","1022280.05527","1023046.48759","1023813.77694","1024563.19237","1025329.83153","1026096.48708","1029173.40257","Mapping"
"Blocked","m160","ball","5","m160bluff.wav","None","735.395662952","106","1019997.0171","1026863.32844","1027630.02263","1028396.50937","1029163.8216","1029913.05524","1030680.00296","1016880.39758","1020746.6304","1021513.41394","1022280.05527","1023046.48759","1023813.77694","1024563.19237","1025329.83153","1026096.48708","1029922.50265","Mapping"
"Blocked","m160","ball","5","m160park.wav","space","0.034318305552","106","1019997.0171","1026863.32844","1027630.02263","1028396.50937","1029163.8216","1029913.05524","1030680.00296","1031446.3753","1020746.6304","1021513.41394","1022280.05527","1023046.48759","1023813.77694","1024563.19237","1025329.83153","1026096.48708","1030689.12326","Mapping"
"Blocked","m160","done","23","m160park.wav","None","729.283927241","106","1034580.20123","1026863.32844","1027630.02263","1028396.50937","1029163.8216","1029913.05524","1030680.00296","1031446.3753","1020746.6304","1021513.41394","1022280.05527","1023046.48759","1023813.77694","1024563.19237","1025329.83153","1026096.48708","1031455.21858","Mapping"
"Blocked","m160","done","23","m160cling.wav","None","719.065752812","106","1034580.20123","1026863.32844","1027630.02263","1028396.50937","1029163.8216","1029913.05524","1030680.00296","1031446.3753","1035329.89584","1021513.41394","1022280.05527","1023046.48759","1023813.77694","1024563.19237","1025329.83153","1026096.48708","1034590.29759","Mapping"
"Blocked","m160","done","23","m160park.wav","None","733.727982501","106","1034580.20123","1026863.32844","1027630.02263","1028396.50937","1029163.8216","1029913.05524","1030680.00296","1031446.3753","1035329.89584","1036096.49172","1022280.05527","1023046.48759","1023813.77694","1024563.19237","1025329.83153","1026096.48708","1035339.02913","Mapping"
"Blocked","m160","done","23","m160done.wav","None","730.982524808","106","1034580.20123","1026863.32844","1027630.02263","1028396.50937","1029163.8216","1029913.05524","1030680.00296","1031446.3753","1035329.89584","1036096.49172","1036863.15252","1023046.48759","1023813.77694","1024563.19237","1025329.83153","1026096.48708","1036105.55142","Mapping"
"Blocked","m160","done","23","m160tile.wav","space","403.152268147","106","1034580.20123","1026863.32844","1027630.02263","1028396.50937","1029163.8216","1029913.05524","1030680.00296","1031446.3753","1035329.89584","1036096.49172","1036863.15252","1037629.95864","1023813.77694","1024563.19237","1025329.83153","1026096.48708","1036872.2756","Mapping"
"Blocked","m160","done","23","m160depth.wav","None","723.925646394","106","1034580.20123","1026863.32844","1027630.02263","1028396.50937","1029163.8216","1029913.05524","1030680.00296","1031446.3753","1035329.89584","1036096.49172","1036863.15252","1037629.95864","1038396.77866","1024563.19237","1025329.83153","1026096.48708","1037639.23414","Mapping"
"Blocked","m160","done","23","m160done.wav","None","720.687675523","106","1034580.20123","1026863.32844","1027630.02263","1028396.50937","1029163.8216","1029913.05524","1030680.00296","1031446.3753","1035329.89584","1036096.49172","1036863.15252","1037629.95864","1038396.77866","1039145.91491","1025329.83153","1026096.48708","1038406.12342","Mapping"
"Blocked","m160","done","23","m160bluff.wav","space","533.925420605","106","1034580.20123","1026863.32844","1027630.02263","1028396.50937","1029163.8216","1029913.05524","1030680.00296","1031446.3753","1035329.89584","1036096.49172","1036863.15252","1037629.95864","1038396.77866","1039145.91491","1039913.11522","1026096.48708","1039149.46824","Mapping"
"Blocked","m160","done","23","m160done.wav","None","730.982833775","106","1034580.20123","1026863.32844","1027630.02263","1028396.50937","1029163.8216","1029913.05524","1030680.00296","1031446.3753","1035329.89584","1036096.49172","1036863.15252","1037629.95864","1038396.77866","1039145.91491","1039913.11522","1040679.81158","1039922.70114","Mapping"
"Blocked","m160","done","23","m160bluff.wav","space","402.622654568","106","1034580.20123","1041446.86998","1027630.02263","1028396.50937","1029163.8216","1029913.05524","1030680.00296","1031446.3753","1035329.89584","1036096.49172","1036863.15252","1037629.95864","1038396.77866","1039145.91491","1039913.11522","1040679.81158","1040688.75936","Mapping"
"Blocked","m160","done","23","m160done.wav","None","723.529286217","106","1034580.20123","1041446.86998","1042213.51347","1028396.50937","1029163.8216","1029913.05524","1030680.00296","1031446.3753","1035329.89584","1036096.49172","1036863.15252","1037629.95864","1038396.77866","1039145.91491","1039913.11522","1040679.81158","1041456.7258","Mapping"
"Blocked","m160","done","23","m160lash.wav","space","364.150068955","106","1034580.20123","1041446.86998","1042213.51347","1042962.95023","1029163.8216","1029913.05524","1030680.00296","1031446.3753","1035329.89584","1036096.49172","1036863.15252","1037629.95864","1038396.77866","1039145.91491","1039913.11522","1040679.81158","1042223.22181","Mapping"
"Blocked","m160","done","23","m160lash.wav","None","734.244301915","106","1034580.20123","1041446.86998","1042213.51347","1042962.95023","1043729.73594","1029913.05524","1030680.00296","1031446.3753","1035329.89584","1036096.49172","1036863.15252","1037629.95864","1038396.77866","1039145.91491","1039913.11522","1040679.81158","1042972.68578","Mapping"
"Blocked","m160","done","23","m160romp.wav","None","731.887474656","106","1034580.20123","1041446.86998","1042213.51347","1042962.95023","1043729.73594","1044496.25236","1030680.00296","1031446.3753","1035329.89584","1036096.49172","1036863.15252","1037629.95864","1038396.77866","1039145.91491","1039913.11522","1040679.81158","1043738.81697","Mapping"
"Blocked","m160","done","23","m160knife.wav","None","729.170460487","106","1034580.20123","1041446.86998","1042213.51347","1042962.95023","1043729.73594","1044496.25236","1045263.06682","1031446.3753","1035329.89584","1036096.49172","1036863.15252","1037629.95864","1038396.77866","1039145.91491","1039913.11522","1040679.81158","1044505.26321","Mapping"
"Blocked","m160","done","23","m160park.wav","None","725.970208878","106","1034580.20123","1041446.86998","1042213.51347","1042962.95023","1043729.73594","1044496.25236","1045263.06682","1046030.01732","1035329.89584","1036096.49172","1036863.15252","1037629.95864","1038396.77866","1039145.91491","1039913.11522","1040679.81158","1045272.18836","Mapping"
"Blocked","m160","tile","18","m160jaw.wav","None","721.584277693","106","1049146.40742","1041446.86998","1042213.51347","1042962.95023","1043729.73594","1044496.25236","1045263.06682","1046030.01732","1035329.89584","1036096.49172","1036863.15252","1037629.95864","1038396.77866","1039145.91491","1039913.11522","1040679.81158","1046040.1415","Mapping"
"Blocked","m160","tile","18","m160depth.wav","None","720.583174843","106","1049146.40742","1041446.86998","1042213.51347","1042962.95023","1043729.73594","1044496.25236","1045263.06682","1046030.01732","1049896.08782","1036096.49172","1036863.15252","1037629.95864","1038396.77866","1039145.91491","1039913.11522","1040679.81158","1049155.82762","Mapping"
"Blocked","m160","tile","18","m160jolt.wav","None","734.986626776","106","1049146.40742","1041446.86998","1042213.51347","1042962.95023","1043729.73594","1044496.25236","1045263.06682","1046030.01732","1049896.08782","1050662.9335","1036863.15252","1037629.95864","1038396.77866","1039145.91491","1039913.11522","1040679.81158","1049905.15401","Mapping"
"Blocked","m160","tile","18","m160tile.wav","None","731.91653681","106","1049146.40742","1041446.86998","1042213.51347","1042962.95023","1043729.73594","1044496.25236","1045263.06682","1046030.01732","1049896.08782","1050662.9335","1051429.56555","1037629.95864","1038396.77866","1039145.91491","1039913.11522","1040679.81158","1050671.93972","Mapping"
"Blocked","m160","tile","18","m160park.wav","space","444.549941225","106","1049146.40742","1041446.86998","1042213.51347","1042962.95023","1043729.73594","1044496.25236","1045263.06682","1046030.01732","1049896.08782","1050662.9335","1051429.56555","1052196.04951","1038396.77866","1039145.91491","1039913.11522","1040679.81158","1051438.60423","Mapping"
"Blocked","m160","tile","18","m160tile.wav","None","725.958150811","106","1049146.40742","1041446.86998","1042213.51347","1042962.95023","1043729.73594","1044496.25236","1045263.06682","1046030.01732","1049896.08782","1050662.9335","1051429.56555","1052196.04951","1052963.22323","1039145.91491","1039913.11522","1040679.81158","1052205.12065","Mapping"
"Blocked","m160","tile","18","m160bluff.wav","space","606.020900654","106","1049146.40742","1041446.86998","1042213.51347","1042962.95023","1043729.73594","1044496.25236","1045263.06682","1046030.01732","1049896.08782","1050662.9335","1051429.56555","1052196.04951","1052963.22323","1053712.86992","1039913.11522","1040679.81158","1052973.10286","Mapping"
"Blocked","m160","tile","18","m160romp.wav","None","735.813664971","106","1049146.40742","1041446.86998","1042213.51347","1042962.95023","1043729.73594","1044496.25236","1045263.06682","1046030.01732","1049896.08782","1050662.9335","1051429.56555","1052196.04951","1052963.22323","1053712.86992","1054479.31987","1040679.81158","1053722.22798","Mapping"
"Blocked","m160","tile","18","m160bluff.wav","None","733.708195621","106","1049146.40742","1041446.86998","1042213.51347","1042962.95023","1043729.73594","1044496.25236","1045263.06682","1046030.01732","1049896.08782","1050662.9335","1051429.56555","1052196.04951","1052963.22323","1053712.86992","1054479.31987","1055246.17329","1054488.13007","Mapping"
"Blocked","m160","tile","18","m160tile.wav","None","730.413027573","106","1049146.40742","1056012.80163","1042213.51347","1042962.95023","1043729.73594","1044496.25236","1045263.06682","1046030.01732","1049896.08782","1050662.9335","1051429.56555","1052196.04951","1052963.22323","1053712.86992","1054479.31987","1055246.17329","1055255.21196","Mapping"
"Blocked","m160","tile","18","m160knife.wav","space","413.230387028","106","1049146.40742","1056012.80163","1056779.92897","1042962.95023","1043729.73594","1044496.25236","1045263.06682","1046030.01732","1049896.08782","1050662.9335","1051429.56555","1052196.04951","1052963.22323","1053712.86992","1054479.31987","1055246.17329","1056021.83814","Mapping"
"Blocked","m160","tile","18","m160priest.wav","None","722.765628481","106","1049146.40742","1056012.80163","1056779.92897","1057545.88548","1043729.73594","1044496.25236","1045263.06682","1046030.01732","1049896.08782","1050662.9335","1051429.56555","1052196.04951","1052963.22323","1053712.86992","1054479.31987","1055246.17329","1056789.86642","Mapping"
"Blocked","m160","tile","18","m160tile.wav","None","725.050109206","106","1049146.40742","1056012.80163","1056779.92897","1057545.88548","1058312.67582","1044496.25236","1045263.06682","1046030.01732","1049896.08782","1050662.9335","1051429.56555","1052196.04951","1052963.22323","1053712.86992","1054479.31987","1055246.17329","1057554.48606","Mapping"
"Blocked","m160","tile","18","m160romp.wav","space","625.228285789","106","1049146.40742","1056012.80163","1056779.92897","1057545.88548","1058312.67582","1059062.67003","1045263.06682","1046030.01732","1049896.08782","1050662.9335","1051429.56555","1052196.04951","1052963.22323","1053712.86992","1054479.31987","1055246.17329","1058321.79674","Mapping"
"Blocked","m160","tile","18","m160gnash.wav","None","734.208128415","106","1049146.40742","1056012.80163","1056779.92897","1057545.88548","1058312.67582","1059062.67003","1059829.42853","1046030.01732","1049896.08782","1050662.9335","1051429.56555","1052196.04951","1052963.22323","1053712.86992","1054479.31987","1055246.17329","1059072.46494","Mapping"
"Blocked","m160","tile","18","m160jolt.wav","None","731.970333029","106","1049146.40742","1056012.80163","1056779.92897","1057545.88548","1058312.67582","1059062.67003","1059829.42853","1060595.93011","1049896.08782","1050662.9335","1051429.56555","1052196.04951","1052963.22323","1053712.86992","1054479.31987","1055246.17329","1059838.48607","Mapping"
"Blocked","m160","cave","12","m160park.wav","None","729.282381246","106","1063729.88341","1056012.80163","1056779.92897","1057545.88548","1058312.67582","1059062.67003","1059829.42853","1060595.93011","1049896.08782","1050662.9335","1051429.56555","1052196.04951","1052963.22323","1053712.86992","1054479.31987","1055246.17329","1060604.97899","Mapping"
"Blocked","m160","cave","12","m160lash.wav","None","719.329477521","106","1063729.88341","1056012.80163","1056779.92897","1057545.88548","1058312.67582","1059062.67003","1059829.42853","1060595.93011","1064479.27504","1050662.9335","1051429.56555","1052196.04951","1052963.22323","1053712.86992","1054479.31987","1055246.17329","1063739.41337","Mapping"
"Blocked","m160","cave","12","m160gnash.wav","None","734.339527087","106","1063729.88341","1056012.80163","1056779.92897","1057545.88548","1058312.67582","1059062.67003","1059829.42853","1060595.93011","1064479.27504","1065245.95068","1051429.56555","1052196.04951","1052963.22323","1053712.86992","1054479.31987","1055246.17329","1064488.10317","Mapping"
"Blocked","m160","cave","12","m160cave.wav","None","731.264799833","106","1063729.88341","1056012.80163","1056779.92897","1057545.88548","1058312.67582","1059062.67003","1059829.42853","1060595.93011","1064479.27504","1065245.95068","1066012.68847","1052196.04951","1052963.22323","1053712.86992","1054479.31987","1055246.17329","1065255.00698","Mapping"
"Blocked","m160","cave","12","m160done.wav","space","549.083254999","106","1063729.88341","1056012.80163","1056779.92897","1057545.88548","1058312.67582","1059062.67003","1059829.42853","1060595.93011","1064479.27504","1065245.95068","1066012.68847","1066779.3434","1052963.22323","1053712.86992","1054479.31987","1055246.17329","1066021.82886","Mapping"
"Blocked","m160","cave","12","m160reek.wav","None","725.358664058","106","1063729.88341","1056012.80163","1056779.92897","1057545.88548","1058312.67582","1059062.67003","1059829.42853","1060595.93011","1064479.27504","1065245.95068","1066012.68847","1066779.3434","1067546.30781","1053712.86992","1054479.31987","1055246.17329","1066788.57284","Mapping"
"Blocked","m160","cave","12","m160cave.wav","None","722.30248712","106","1063729.88341","1056012.80163","1056779.92897","1057545.88548","1058312.67582","1059062.67003","1059829.42853","1060595.93011","1064479.27504","1065245.95068","1066012.68847","1066779.3434","1067546.30781","1068313.09815","1054479.31987","1055246.17329","1067555.73604","Mapping"
"Blocked","m160","cave","12","m160priest.wav","space","536.109729437","106","1063729.88341","1056012.80163","1056779.92897","1057545.88548","1058312.67582","1059062.67003","1059829.42853","1060595.93011","1064479.27504","1065245.95068","1066012.68847","1066779.3434","1067546.30781","1068313.09815","1069062.33643","1055246.17329","1068322.73508","Mapping"
"Blocked","m160","cave","12","m160bluff.wav","None","733.471677871","106","1063729.88341","1056012.80163","1056779.92897","1057545.88548","1058312.67582","1059062.67003","1059829.42853","1060595.93011","1064479.27504","1065245.95068","1066012.68847","1066779.3434","1067546.30781","1068313.09815","1069062.33643","1069829.05721","1069071.31915","Mapping"
"Blocked","m160","cave","12","m160cave.wav","None","730.385201983","106","1063729.88341","1070595.84817","1056779.92897","1057545.88548","1058312.67582","1059062.67003","1059829.42853","1060595.93011","1064479.27504","1065245.95068","1066012.68847","1066779.3434","1067546.30781","1068313.09815","1069062.33643","1069829.05721","1069838.24646","Mapping"
"Blocked","m160","cave","12","m160depth.wav","space","589.627301088","106","1063729.88341","1070595.84817","1071363.06611","1057545.88548","1058312.67582","1059062.67003","1059829.42853","1060595.93011","1064479.27504","1065245.95068","1066012.68847","1066779.3434","1067546.30781","1068313.09815","1069062.33643","1069829.05721","1070605.17686","Mapping"
"Blocked","m160","cave","12","m160bluff.wav","None","722.600839101","106","1063729.88341","1070595.84817","1071363.06611","1072129.55068","1058312.67582","1059062.67003","1059829.42853","1060595.93011","1064479.27504","1065245.95068","1066012.68847","1066779.3434","1067546.30781","1068313.09815","1069062.33643","1069829.05721","1071372.83258","Mapping"
"Blocked","m160","cave","12","m160jolt.wav","None","719.811787829","106","1063729.88341","1070595.84817","1071363.06611","1072129.55068","1072879.22149","1059062.67003","1059829.42853","1060595.93011","1064479.27504","1065245.95068","1066012.68847","1066779.3434","1067546.30781","1068313.09815","1069062.33643","1069829.05721","1072139.24759","Mapping"
"Blocked","m160","cave","12","m160tile.wav","None","734.28047495","106","1063729.88341","1070595.84817","1071363.06611","1072129.55068","1072879.22149","1073645.80253","1059829.42853","1060595.93011","1064479.27504","1065245.95068","1066012.68847","1066779.3434","1067546.30781","1068313.09815","1069062.33643","1069829.05721","1072888.38136","Mapping"
"Blocked","m160","cave","12","m160cave.wav","space","507.973113097","106","1063729.88341","1070595.84817","1071363.06611","1072129.55068","1072879.22149","1073645.80253","1074412.50074","1060595.93011","1064479.27504","1065245.95068","1066012.68847","1066779.3434","1067546.30781","1068313.09815","1069062.33643","1069829.05721","1073654.80689","Mapping"
"Blocked","m160","cave","12","m160romp.wav","None","727.913671406","106","1063729.88341","1070595.84817","1071363.06611","1072129.55068","1072879.22149","1073645.80253","1074412.50074","1075179.17669","1064479.27504","1065245.95068","1066012.68847","1066779.3434","1067546.30781","1068313.09815","1069062.33643","1069829.05721","1074421.68875","Mapping"
"Blocked","m160","cave","10","m160depth.wav","None","718.473376939","106","1078296.10816","1070595.84817","1071363.06611","1072129.55068","1072879.22149","1073645.80253","1074412.50074","1075179.17669","1064479.27504","1065245.95068","1066012.68847","1066779.3434","1067546.30781","1068313.09815","1069062.33643","1069829.05721","1075194.9371","Mapping"
"Blocked","m160","cave","10","m160bluff.wav","None","720.04181263","106","1078296.10816","1070595.84817","1071363.06611","1072129.55068","1072879.22149","1073645.80253","1074412.50074","1075179.17669","1079045.36715","1065245.95068","1066012.68847","1066779.3434","1067546.30781","1068313.09815","1069062.33643","1069829.05721","1078305.70273","Mapping"
"Blocked","m160","cave","10","m160knife.wav","None","735.263955081","106","1078296.10816","1070595.84817","1071363.06611","1072129.55068","1072879.22149","1073645.80253","1074412.50074","1075179.17669","1079045.36715","1079812.3835","1066012.68847","1066779.3434","1067546.30781","1068313.09815","1069062.33643","1069829.05721","1079054.49363","Mapping"
"Blocked","m160","cave","10","m160cave.wav","None","732.083490351","106","1078296.10816","1070595.84817","1071363.06611","1072129.55068","1072879.22149","1073645.80253","1074412.50074","1075179.17669","1079045.36715","1079812.3835","1080579.1219","1066779.3434","1067546.30781","1068313.09815","1069062.33643","1069829.05721","1079821.45031","Mapping"
"Blocked","m160","cave","10","m160done.wav","space","558.463569963","106","1078296.10816","1070595.84817","1071363.06611","1072129.55068","1072879.22149","1073645.80253","1074412.50074","1075179.17669","1079045.36715","1079812.3835","1080579.1219","1081345.55577","1067546.30781","1068313.09815","1069062.33643","1069829.05721","1080588.15811","Mapping"
"Blocked","m160","cave","10","m160gnash.wav","None","725.600128295","106","1078296.10816","1070595.84817","1071363.06611","1072129.55068","1072879.22149","1073645.80253","1074412.50074","1075179.17669","1079045.36715","1079812.3835","1080579.1219","1081345.55577","1082112.74805","1068313.09815","1069062.33643","1069829.05721","1081354.66154","Mapping"
"Blocked","m160","cave","10","m160cave.wav","None","721.246660454","106","1078296.10816","1070595.84817","1071363.06611","1072129.55068","1072879.22149","1073645.80253","1074412.50074","1075179.17669","1079045.36715","1079812.3835","1080579.1219","1081345.55577","1082112.74805","1082879.33743","1069062.33643","1069829.05721","1082122.9353","Mapping"
"Blocked","m160","cave","10","m160jolt.wav","space","657.631492009","106","1078296.10816","1070595.84817","1071363.06611","1072129.55068","1072879.22149","1073645.80253","1074412.50074","1075179.17669","1079045.36715","1079812.3835","1080579.1219","1081345.55577","1082112.74805","1082879.33743","1083629.06914","1069829.05721","1082888.96539","Mapping"
"Blocked","m160","cave","10","m160cave.wav","None","732.710802695","106","1078296.10816","1070595.84817","1071363.06611","1072129.55068","1072879.22149","1073645.80253","1074412.50074","1075179.17669","1079045.36715","1079812.3835","1080579.1219","1081345.55577","1082112.74805","1082879.33743","1083629.06914","1084395.46004","1083638.33599","Mapping"
"Blocked","m160","cave","10","m160greet.wav","space","526.189288823","106","1078296.10816","1085162.26739","1071363.06611","1072129.55068","1072879.22149","1073645.80253","1074412.50074","1075179.17669","1079045.36715","1079812.3835","1080579.1219","1081345.55577","1082112.74805","1082879.33743","1083629.06914","1084395.46004","1084404.42359","Mapping"
"Blocked","m160","cave","10","m160romp.wav","None","727.144757751","106","1078296.10816","1085162.26739","1085929.25994","1072129.55068","1072879.22149","1073645.80253","1074412.50074","1075179.17669","1079045.36715","1079812.3835","1080579.1219","1081345.55577","1082112.74805","1082879.33743","1083629.06914","1084395.46004","1085171.47673","Mapping"
"Blocked","m160","cave","10","m160knife.wav","None","723.598541226","106","1078296.10816","1085162.26739","1085929.25994","1086695.95629","1072879.22149","1073645.80253","1074412.50074","1075179.17669","1079045.36715","1079812.3835","1080579.1219","1081345.55577","1082112.74805","1082879.33743","1083629.06914","1084395.46004","1085938.87275","Mapping"
"Blocked","m160","cave","10","m160priest.wav","None","721.098566661","106","1078296.10816","1085162.26739","1085929.25994","1086695.95629","1087445.2326","1073645.80253","1074412.50074","1075179.17669","1079045.36715","1079812.3835","1080579.1219","1081345.55577","1082112.74805","1082879.33743","1083629.06914","1084395.46004","1086705.41854","Mapping"
"Blocked","m160","cave","10","m160gnash.wav","None","735.206758138","106","1078296.10816","1085162.26739","1085929.25994","1086695.95629","1087445.2326","1088212.22792","1074412.50074","1075179.17669","1079045.36715","1079812.3835","1080579.1219","1081345.55577","1082112.74805","1082879.33743","1083629.06914","1084395.46004","1087454.98516","Mapping"
"Blocked","m160","cave","10","m160cave.wav","None","732.62887192","106","1078296.10816","1085162.26739","1085929.25994","1086695.95629","1087445.2326","1088212.22792","1088978.89058","1075179.17669","1079045.36715","1079812.3835","1080579.1219","1081345.55577","1082112.74805","1082879.33743","1083629.06914","1084395.46004","1088221.38842","Mapping"
"Blocked","m160","cave","10","m160park.wav","space","430.581805296","106","1078296.10816","1085162.26739","1085929.25994","1086695.95629","1087445.2326","1088212.22792","1088978.89058","1089745.36866","1079045.36715","1079812.3835","1080579.1219","1081345.55577","1082112.74805","1082879.33743","1083629.06914","1084395.46004","1088987.89927","Mapping"
"Blocked","m160","done","22","m160jolt.wav","None","718.253554776","106","1092862.53077","1085162.26739","1085929.25994","1086695.95629","1087445.2326","1088212.22792","1088978.89058","1089745.36866","1079045.36715","1079812.3835","1080579.1219","1081345.55577","1082112.74805","1082879.33743","1083629.06914","1084395.46004","1089762.768","Mapping"
"Blocked","m160","done","22","m160park.wav","None","718.580969144","106","1092862.53077","1085162.26739","1085929.25994","1086695.95629","1087445.2326","1088212.22792","1088978.89058","1089745.36866","1093612.1113","1079812.3835","1080579.1219","1081345.55577","1082112.74805","1082879.33743","1083629.06914","1084395.46004","1092872.86829","Mapping"
"Blocked","m160","done","22","m160dime.wav","None","733.625337249","106","1092862.53077","1085162.26739","1085929.25994","1086695.95629","1087445.2326","1088212.22792","1088978.89058","1089745.36866","1093612.1113","1094378.88866","1080579.1219","1081345.55577","1082112.74805","1082879.33743","1083629.06914","1084395.46004","1093621.8617","Mapping"
"Blocked","m160","done","22","m160tile.wav","space","406.294086017","106","1092862.53077","1085162.26739","1085929.25994","1086695.95629","1087445.2326","1088212.22792","1088978.89058","1089745.36866","1093612.1113","1094378.88866","1095145.20876","1081345.55577","1082112.74805","1082879.33743","1083629.06914","1084395.46004","1094388.08904","Mapping"
"Blocked","m160","done","22","m160done.wav","None","728.02404617","106","1092862.53077","1085162.26739","1085929.25994","1086695.95629","1087445.2326","1088212.22792","1088978.89058","1089745.36866","1093612.1113","1094378.88866","1095145.20876","1095912.20501","1082112.74805","1082879.33743","1083629.06914","1084395.46004","1095154.40141","Mapping"
"Blocked","m160","done","22","m160gnash.wav","space","681.001894176","106","1092862.53077","1085162.26739","1085929.25994","1086695.95629","1087445.2326","1088212.22792","1088978.89058","1089745.36866","1093612.1113","1094378.88866","1095145.20876","1095912.20501","1096679.0708","1082879.33743","1083629.06914","1084395.46004","1095921.40075","Mapping"
"Blocked","m160","done","22","m160done.wav","None","720.01893376","106","1092862.53077","1085162.26739","1085929.25994","1086695.95629","1087445.2326","1088212.22792","1088978.89058","1089745.36866","1093612.1113","1094378.88866","1095145.20876","1095912.20501","1096679.0708","1097428.32639","1083629.06914","1084395.46004","1096689.4584","Mapping"
"Blocked","m160","done","22","m160park.wav","space","484.12380158","106","1092862.53077","1085162.26739","1085929.25994","1086695.95629","1087445.2326","1088212.22792","1088978.89058","1089745.36866","1093612.1113","1094378.88866","1095145.20876","1095912.20501","1096679.0708","1097428.32639","1098195.26823","1084395.46004","1097438.21776","Mapping"
"Blocked","m160","done","22","m160cling.wav","None","732.193865348","106","1092862.53077","1085162.26739","1085929.25994","1086695.95629","1087445.2326","1088212.22792","1088978.89058","1089745.36866","1093612.1113","1094378.88866","1095145.20876","1095912.20501","1096679.0708","1097428.32639","1098195.26823","1098962.01869","1098204.438","Mapping"
"Blocked","m160","done","22","m160reek.wav","None","729.271559976","106","1092862.53077","1099728.68537","1085929.25994","1086695.95629","1087445.2326","1088212.22792","1088978.89058","1089745.36866","1093612.1113","1094378.88866","1095145.20876","1095912.20501","1096679.0708","1097428.32639","1098195.26823","1098962.01869","1098971.30193","Mapping"
"Blocked","m160","done","22","m160done.wav","None","726.712224307","106","1092862.53077","1099728.68537","1100495.66926","1086695.95629","1087445.2326","1088212.22792","1088978.89058","1089745.36866","1093612.1113","1094378.88866","1095145.20876","1095912.20501","1096679.0708","1097428.32639","1098195.26823","1098962.01869","1099737.93645","Mapping"
"Blocked","m160","done","22","m160greet.wav","space","472.569380654","106","1092862.53077","1099728.68537","1100495.66926","1101262.54339","1087445.2326","1088212.22792","1088978.89058","1089745.36866","1093612.1113","1094378.88866","1095145.20876","1095912.20501","1096679.0708","1097428.32639","1098195.26823","1098962.01869","1100505.74428","Mapping"
"Blocked","m160","done","22","m160cave.wav","None","718.751632841","106","1092862.53077","1099728.68537","1100495.66926","1101262.54339","1102011.83948","1088212.22792","1088978.89058","1089745.36866","1093612.1113","1094378.88866","1095145.20876","1095912.20501","1096679.0708","1097428.32639","1098195.26823","1098962.01869","1101272.71333","Mapping"
"Blocked","m160","done","22","m160bluff.wav","None","734.491022304","106","1092862.53077","1099728.68537","1100495.66926","1101262.54339","1102011.83948","1102778.61035","1088978.89058","1089745.36866","1093612.1113","1094378.88866","1095145.20876","1095912.20501","1096679.0708","1097428.32639","1098195.26823","1098962.01869","1102021.11251","Mapping"
"Blocked","m160","done","22","m160done.wav","None","731.592832366","106","1092862.53077","1099728.68537","1100495.66926","1101262.54339","1102011.83948","1102778.61035","1103545.16696","1089745.36866","1093612.1113","1094378.88866","1095145.20876","1095912.20501","1096679.0708","1097428.32639","1098195.26823","1098962.01869","1102787.95542","Mapping"
"Blocked","m160","done","22","m160cave.wav","space","439.309764653","106","1092862.53077","1099728.68537","1100495.66926","1101262.54339","1102011.83948","1102778.61035","1103545.16696","1104311.9604","1093612.1113","1094378.88866","1095145.20876","1095912.20501","1096679.0708","1097428.32639","1098195.26823","1098962.01869","1103554.91241","Mapping"
"Blocked","m160","done","24","m160tile.wav","None","725.145025412","106","1107428.7144","1099728.68537","1100495.66926","1101262.54339","1102011.83948","1102778.61035","1103545.16696","1104311.9604","1093612.1113","1094378.88866","1095145.20876","1095912.20501","1096679.0708","1097428.32639","1098195.26823","1098962.01869","1104321.37534","Mapping"
"Blocked","m160","done","24","m160cave.wav","None","719.980905531","106","1107428.7144","1099728.68537","1100495.66926","1101262.54339","1102011.83948","1102778.61035","1103545.16696","1104311.9604","1108178.50177","1094378.88866","1095145.20876","1095912.20501","1096679.0708","1097428.32639","1098195.26823","1098962.01869","1107438.04772","Mapping"
"Blocked","m160","done","24","m160gnash.wav","None","734.068382299","106","1107428.7144","1099728.68537","1100495.66926","1101262.54339","1102011.83948","1102778.61035","1103545.16696","1104311.9604","1108178.50177","1108945.08868","1095145.20876","1095912.20501","1096679.0708","1097428.32639","1098195.26823","1098962.01869","1108188.03883","Mapping"
"Blocked","m160","done","24","m160depth.wav","None","731.872634264","106","1107428.7144","1099728.68537","1100495.66926","1101262.54339","1102011.83948","1102778.61035","1103545.16696","1104311.9604","1108178.50177","1108945.08868","1109711.82801","1095912.20501","1096679.0708","1097428.32639","1098195.26823","1098962.01869","1108954.36418","Mapping"
"Blocked","m160","done","24","m160jolt.wav","None","729.080491001","106","1107428.7144","1099728.68537","1100495.66926","1101262.54339","1102011.83948","1102778.61035","1103545.16696","1104311.9604","1108178.50177","1108945.08868","1109711.82801","1110478.49314","1096679.0708","1097428.32639","1098195.26823","1098962.01869","1109721.13474","Mapping"
"Blocked","m160","done","24","m160done.wav","None","725.964025361","106","1107428.7144","1099728.68537","1100495.66926","1101262.54339","1102011.83948","1102778.61035","1103545.16696","1104311.9604","1108178.50177","1108945.08868","1109711.82801","1110478.49314","1111245.27266","1097428.32639","1098195.26823","1098962.01869","1110488.13007","Mapping"
"Blocked","m160","done","24","m160park.wav","space","498.678439297","106","1107428.7144","1099728.68537","1100495.66926","1101262.54339","1102011.83948","1102778.61035","1103545.16696","1104311.9604","1108178.50177","1108945.08868","1109711.82801","1110478.49314","1111245.27266","1112012.15638","1098195.26823","1098962.01869","1111255.45714","Mapping"
"Blocked","m160","done","24","m160jolt.wav","None","719.319893047","106","1107428.7144","1099728.68537","1100495.66926","1101262.54339","1102011.83948","1102778.61035","1103545.16696","1104311.9604","1108178.50177","1108945.08868","1109711.82801","1110478.49314","1111245.27266","1112012.15638","1112761.70012","1098962.01869","1112022.0425","Mapping"
"Blocked","m160","done","24","m160done.wav","None","734.529359499","106","1107428.7144","1099728.68537","1100495.66926","1101262.54339","1102011.83948","1102778.61035","1103545.16696","1104311.9604","1108178.50177","1108945.08868","1109711.82801","1110478.49314","1111245.27266","1112012.15638","1112761.70012","1113528.7242","1112771.08353","Mapping"
"Blocked","m160","done","24","m160ball.wav","space","488.018456381","106","1107428.7144","1114294.98277","1100495.66926","1101262.54339","1102011.83948","1102778.61035","1103545.16696","1104311.9604","1108178.50177","1108945.08868","1109711.82801","1110478.49314","1111245.27266","1112012.15638","1112761.70012","1113528.7242","1113538.02722","Mapping"
"Blocked","m160","done","24","m160done.wav","None","728.396600112","106","1107428.7144","1114294.98277","1115061.45281","1101262.54339","1102011.83948","1102778.61035","1103545.16696","1104311.9604","1108178.50177","1108945.08868","1109711.82801","1110478.49314","1111245.27266","1112012.15638","1112761.70012","1113528.7242","1114304.30712","Mapping"
"Blocked","m160","done","24","m160greet.wav","None","726.182919927","106","1107428.7144","1114294.98277","1115061.45281","1115828.84883","1102011.83948","1102778.61035","1103545.16696","1104311.9604","1108178.50177","1108945.08868","1109711.82801","1110478.49314","1111245.27266","1112012.15638","1112761.70012","1113528.7242","1115070.46954","Mapping"
"Blocked","m160","done","24","m160park.wav","None","722.154702293","106","1107428.7144","1114294.98277","1115061.45281","1115828.84883","1116595.31671","1102778.61035","1103545.16696","1104311.9604","1108178.50177","1108945.08868","1109711.82801","1110478.49314","1111245.27266","1112012.15638","1112761.70012","1113528.7242","1115838.60139","Mapping"
"Blocked","m160","done","24","m160done.wav","None","719.65380013","106","1107428.7144","1114294.98277","1115061.45281","1115828.84883","1116595.31671","1117344.896","1103545.16696","1104311.9604","1108178.50177","1108945.08868","1109711.82801","1110478.49314","1111245.27266","1112012.15638","1112761.70012","1113528.7242","1116605.31104","Mapping"
"Blocked","m160","done","24","m160greet.wav","space","487.204403151","106","1107428.7144","1114294.98277","1115061.45281","1115828.84883","1116595.31671","1117344.896","1118111.72159","1104311.9604","1108178.50177","1108945.08868","1109711.82801","1110478.49314","1111245.27266","1112012.15638","1112761.70012","1113528.7242","1117354.80067","Mapping"
"Blocked","m160","done","24","m160romp.wav","None","731.18472402","106","1107428.7144","1114294.98277","1115061.45281","1115828.84883","1116595.31671","1117344.896","1118111.72159","1118878.33664","1108178.50177","1108945.08868","1109711.82801","1110478.49314","1111245.27266","1112012.15638","1112761.70012","1113528.7242","1118121.02461","Mapping"
"Blocked","m160","tile","15","m160knife.wav","None","728.864997393","106","1122012.40248","1114294.98277","1115061.45281","1115828.84883","1116595.31671","1117344.896","1118111.72159","1118878.33664","1108178.50177","1108945.08868","1109711.82801","1110478.49314","1111245.27266","1112012.15638","1112761.70012","1113528.7242","1118887.6242","Mapping"
"Blocked","m160","tile","15","m160tile.wav","None","719.188803807","106","1122012.40248","1114294.98277","1115061.45281","1115828.84883","1116595.31671","1117344.896","1118111.72159","1118878.33664","1122761.61077","1108945.08868","1109711.82801","1110478.49314","1111245.27266","1112012.15638","1112761.70012","1113528.7242","1122021.95099","Mapping"
"Blocked","m160","tile","15","m160cad.wav","space","438.539923402","106","1122012.40248","1114294.98277","1115061.45281","1115828.84883","1116595.31671","1117344.896","1118111.72159","1118878.33664","1122761.61077","1123528.45058","1109711.82801","1110478.49314","1111245.27266","1112012.15638","1112761.70012","1113528.7242","1122771.36054","Mapping"
"Blocked","m160","tile","15","m160tile.wav","None","730.904612923","106","1122012.40248","1114294.98277","1115061.45281","1115828.84883","1116595.31671","1117344.896","1118111.72159","1118878.33664","1122761.61077","1123528.45058","1124294.77191","1110478.49314","1111245.27266","1112012.15638","1112761.70012","1113528.7242","1123537.60427","Mapping"
"Blocked","m160","tile","15","m160bluff.wav","space","457.90313161","106","1122012.40248","1114294.98277","1115061.45281","1115828.84883","1116595.31671","1117344.896","1118111.72159","1118878.33664","1122761.61077","1123528.45058","1124294.77191","1125061.53938","1111245.27266","1112012.15638","1112761.70012","1113528.7242","1124303.95838","Mapping"
"Blocked","m160","tile","15","m160cad.wav","None","725.000332342","106","1122012.40248","1114294.98277","1115061.45281","1115828.84883","1116595.31671","1117344.896","1118111.72159","1118878.33664","1122761.61077","1123528.45058","1124294.77191","1125061.53938","1125828.33375","1112012.15638","1112761.70012","1113528.7242","1125070.81767","Mapping"
"Blocked","m160","tile","15","m160cave.wav","None","722.305888077","106","1122012.40248","1114294.98277","1115061.45281","1115828.84883","1116595.31671","1117344.896","1118111.72159","1118878.33664","1122761.61077","1123528.45058","1124294.77191","1125061.53938","1125828.33375","1126595.05082","1112761.70012","1113528.7242","1125837.74405","Mapping"
"Blocked","m160","tile","15","m160ball.wav","None","719.317729119","106","1122012.40248","1114294.98277","1115061.45281","1115828.84883","1116595.31671","1117344.896","1118111.72159","1118878.33664","1122761.61077","1123528.45058","1124294.77191","1125061.53938","1125828.33375","1126595.05082","1127344.72688","1113528.7242","1126604.81203","Mapping"
"Blocked","m160","tile","15","m160gnash.wav","None","734.491022071","106","1122012.40248","1114294.98277","1115061.45281","1115828.84883","1116595.31671","1117344.896","1118111.72159","1118878.33664","1122761.61077","1123528.45058","1124294.77191","1125061.53938","1125828.33375","1126595.05082","1127344.72688","1128111.67923","1127353.9928","Mapping"
"Blocked","m160","tile","15","m160tile.wav","None","731.29293439","106","1122012.40248","1128878.4838","1115061.45281","1115828.84883","1116595.31671","1117344.896","1118111.72159","1118878.33664","1122761.61077","1123528.45058","1124294.77191","1125061.53938","1125828.33375","1126595.05082","1127344.72688","1128111.67923","1128121.36501","Mapping"
"Blocked","m160","tile","15","m160dime.wav","space","585.652570473","106","1122012.40248","1128878.4838","1129644.81719","1115828.84883","1116595.31671","1117344.896","1118111.72159","1118878.33664","1122761.61077","1123528.45058","1124294.77191","1125061.53938","1125828.33375","1126595.05082","1127344.72688","1128111.67923","1128888.13712","Mapping"
"Blocked","m160","tile","15","m160gnash.wav","None","725.92352354","106","1122012.40248","1128878.4838","1129644.81719","1130411.95783","1116595.31671","1117344.896","1118111.72159","1118878.33664","1122761.61077","1123528.45058","1124294.77191","1125061.53938","1125828.33375","1126595.05082","1127344.72688","1128111.67923","1129654.03766","Mapping"
"Blocked","m160","tile","15","m160jolt.wav","None","722.420282196","106","1122012.40248","1128878.4838","1129644.81719","1130411.95783","1131178.49991","1117344.896","1118111.72159","1118878.33664","1122761.61077","1123528.45058","1124294.77191","1125061.53938","1125828.33375","1126595.05082","1127344.72688","1128111.67923","1130421.76017","Mapping"
"Blocked","m160","tile","15","m160tile.wav","None","720.204746816","106","1122012.40248","1128878.4838","1129644.81719","1130411.95783","1131178.49991","1131927.64605","1118111.72159","1118878.33664","1122761.61077","1123528.45058","1124294.77191","1125061.53938","1125828.33375","1126595.05082","1127344.72688","1128111.67923","1131188.41602","Mapping"
"Blocked","m160","tile","15","m160cling.wav","space","633.111274801","106","1122012.40248","1128878.4838","1129644.81719","1130411.95783","1131178.49991","1131927.64605","1132694.60799","1118878.33664","1122761.61077","1123528.45058","1124294.77191","1125061.53938","1125828.33375","1126595.05082","1127344.72688","1128111.67923","1131936.60342","Mapping"
"Blocked","m160","tile","15","m160cave.wav","None","732.206541346","106","1122012.40248","1128878.4838","1129644.81719","1130411.95783","1131178.49991","1131927.64605","1132694.60799","1133461.49294","1122761.61077","1123528.45058","1124294.77191","1125061.53938","1125828.33375","1126595.05082","1127344.72688","1128111.67923","1132703.63492","Mapping"
"Blocked","m160","cave","8","m160done.wav","None","729.376679054","106","1136594.88355","1128878.4838","1129644.81719","1130411.95783","1131178.49991","1131927.64605","1132694.60799","1133461.49294","1122761.61077","1123528.45058","1124294.77191","1125061.53938","1125828.33375","1126595.05082","1127344.72688","1128111.67923","1133470.66642","Mapping"
"Blocked","m160","cave","8","m160done.wav","None","720.375719713","106","1136594.88355","1128878.4838","1129644.81719","1130411.95783","1131178.49991","1131927.64605","1132694.60799","1133461.49294","1137344.44863","1123528.45058","1124294.77191","1125061.53938","1125828.33375","1126595.05082","1127344.72688","1128111.67923","1136604.27871","Mapping"
"Blocked","m160","cave","8","m160cave.wav","None","734.182158019","106","1136594.88355","1128878.4838","1129644.81719","1130411.95783","1131178.49991","1131927.64605","1132694.60799","1133461.49294","1137344.44863","1138111.49095","1124294.77191","1125061.53938","1125828.33375","1126595.05082","1127344.72688","1128111.67923","1137354.70545","Mapping"
"Blocked","m160","cave","8","m160jolt.wav","space","568.834166741","106","1136594.88355","1128878.4838","1129644.81719","1130411.95783","1131178.49991","1131927.64605","1132694.60799","1133461.49294","1137344.44863","1138111.49095","1138877.99995","1125061.53938","1125828.33375","1126595.05082","1127344.72688","1128111.67923","1138120.76367","Mapping"
"Blocked","m160","cave","8","m160park.wav","None","728.974753758","106","1136594.88355","1128878.4838","1129644.81719","1130411.95783","1131178.49991","1131927.64605","1132694.60799","1133461.49294","1137344.44863","1138111.49095","1138877.99995","1139644.64931","1125828.33375","1126595.05082","1127344.72688","1128111.67923","1138887.28906","Mapping"
"Blocked","m160","cave","8","m160park.wav","None","726.142418338","106","1136594.88355","1128878.4838","1129644.81719","1130411.95783","1131178.49991","1131927.64605","1132694.60799","1133461.49294","1137344.44863","1138111.49095","1138877.99995","1139644.64931","1140411.72688","1126595.05082","1127344.72688","1128111.67923","1139654.19132","Mapping"
"Blocked","m160","cave","8","m160cave.wav","None","723.268962465","106","1136594.88355","1128878.4838","1129644.81719","1130411.95783","1131178.49991","1131927.64605","1132694.60799","1133461.49294","1137344.44863","1138111.49095","1138877.99995","1139644.64931","1140411.72688","1141178.30049","1127344.72688","1128111.67923","1140421.86559","Mapping"
"Blocked","m160","cave","8","m160priest.wav","space","477.343942504","106","1136594.88355","1128878.4838","1129644.81719","1130411.95783","1131178.49991","1131927.64605","1132694.60799","1133461.49294","1137344.44863","1138111.49095","1138877.99995","1139644.64931","1140411.72688","1141178.30049","1141927.66615","1128111.67923","1141188.22835","Mapping"
"Blocked","m160","cave","8","m160cave.wav","None","735.309403623","106","1136594.88355","1128878.4838","1129644.81719","1130411.95783","1131178.49991","1131927.64605","1132694.60799","1133461.49294","1137344.44863","1138111.49095","1138877.99995","1139644.64931","1140411.72688","1141178.30049","1141927.66615","1142694.53379","1141937.14076","Mapping"
"Blocked","m160","cave","8","m160dime.wav","None","732.991841156","106","1136594.88355","1143461.24684","1129644.81719","1130411.95783","1131178.49991","1131927.64605","1132694.60799","1133461.49294","1137344.44863","1138111.49095","1138877.99995","1139644.64931","1140411.72688","1141178.30049","1141927.66615","1142694.53379","1142703.6578","Mapping"
"Blocked","m160","cave","8","m160done.wav","space","2.69382609986","106","1136594.88355","1143461.24684","1144227.70359","1130411.95783","1131178.49991","1131927.64605","1132694.60799","1133461.49294","1137344.44863","1138111.49095","1138877.99995","1139644.64931","1140411.72688","1141178.30049","1141927.66615","1142694.53379","1143470.82904","Mapping"
"Blocked","m160","cave","8","m160cave.wav","None","727.113222005","106","1136594.88355","1143461.24684","1144227.70359","1144994.35944","1131178.49991","1131927.64605","1132694.60799","1133461.49294","1137344.44863","1138111.49095","1138877.99995","1139644.64931","1140411.72688","1141178.30049","1141927.66615","1142694.53379","1144236.88912","Mapping"
"Blocked","m160","cave","8","m160ball.wav","space","669.457057724","106","1136594.88355","1143461.24684","1144227.70359","1144994.35944","1145761.05797","1131927.64605","1132694.60799","1133461.49294","1137344.44863","1138111.49095","1138877.99995","1139644.64931","1140411.72688","1141178.30049","1141927.66615","1142694.53379","1145004.02915","Mapping"
"Blocked","m160","cave","8","m160done.wav","None","721.042297082","106","1136594.88355","1143461.24684","1144227.70359","1144994.35944","1145761.05797","1146510.73774","1132694.60799","1133461.49294","1137344.44863","1138111.49095","1138877.99995","1139644.64931","1140411.72688","1141178.30049","1141927.66615","1142694.53379","1145770.3344","Mapping"
"Blocked","m160","cave","8","m160knife.wav","None","735.760177951","106","1136594.88355","1143461.24684","1144227.70359","1144994.35944","1145761.05797","1146510.73774","1147277.93279","1133461.49294","1137344.44863","1138111.49095","1138877.99995","1139644.64931","1140411.72688","1141178.30049","1141927.66615","1142694.53379","1146519.92822","Mapping"
"Blocked","m160","cave","8","m160priest.wav","None","732.353398576","106","1136594.88355","1143461.24684","1144227.70359","1144994.35944","1145761.05797","1146510.73774","1147277.93279","1148044.37501","1137344.44863","1138111.49095","1138877.99995","1139644.64931","1140411.72688","1141178.30049","1141927.66615","1142694.53379","1147287.46399","Mapping"
"Blocked","m160","ball","1","m160priest.wav","None","730.52587593","106","1151178.12117","1143461.24684","1144227.70359","1144994.35944","1145761.05797","1146510.73774","1147277.93279","1148044.37501","1137344.44863","1138111.49095","1138877.99995","1139644.64931","1140411.72688","1141178.30049","1141927.66615","1142694.53379","1148053.55653","Mapping"
"Blocked","m160","ball","1","m160reek.wav","None","719.638650771","106","1151178.12117","1143461.24684","1144227.70359","1144994.35944","1145761.05797","1146510.73774","1147277.93279","1148044.37501","1151927.58391","1138111.49095","1138877.99995","1139644.64931","1140411.72688","1141178.30049","1141927.66615","1142694.53379","1151187.94237","Mapping"
"Blocked","m160","ball","1","m160done.wav","None","735.177695751","106","1151178.12117","1143461.24684","1144227.70359","1144994.35944","1145761.05797","1146510.73774","1147277.93279","1148044.37501","1151927.58391","1152693.94296","1138877.99995","1139644.64931","1140411.72688","1141178.30049","1141927.66615","1142694.53379","1151936.74595","Mapping"
"Blocked","m160","ball","1","m160ball.wav","None","735.69494253","106","1151178.12117","1143461.24684","1144227.70359","1144994.35944","1145761.05797","1146510.73774","1147277.93279","1148044.37501","1151927.58391","1152693.94296","1153460.70548","1139644.64931","1140411.72688","1141178.30049","1141927.66615","1142694.53379","1152702.9668","Mapping"
"Blocked","m160","ball","1","m160cave.wav","space","403.445055243","106","1151178.12117","1143461.24684","1144227.70359","1144994.35944","1145761.05797","1146510.73774","1147277.93279","1148044.37501","1151927.58391","1152693.94296","1153460.70548","1154227.86343","1140411.72688","1141178.30049","1141927.66615","1142694.53379","1153469.84711","Mapping"
"Blocked","m160","ball","1","m160bluff.wav","None","729.014018783","106","1151178.12117","1143461.24684","1144227.70359","1144994.35944","1145761.05797","1146510.73774","1147277.93279","1148044.37501","1151927.58391","1152693.94296","1153460.70548","1154227.86343","1154994.35512","1141178.30049","1141927.66615","1142694.53379","1154237.21159","Mapping"
"Blocked","m160","ball","1","m160jolt.wav","None","726.859699935","106","1151178.12117","1143461.24684","1144227.70359","1144994.35944","1145761.05797","1146510.73774","1147277.93279","1148044.37501","1151927.58391","1152693.94296","1153460.70548","1154227.86343","1154994.35512","1155761.01808","1141927.66615","1142694.53379","1155003.68658","Mapping"
"Blocked","m160","ball","1","m160ball.wav","None","724.577383371","106","1151178.12117","1143461.24684","1144227.70359","1144994.35944","1145761.05797","1146510.73774","1147277.93279","1148044.37501","1151927.58391","1152693.94296","1153460.70548","1154227.86343","1154994.35512","1155761.01808","1156528.1275","1142694.53379","1155770.38387","Mapping"
"Blocked","m160","ball","1","m160lash.wav","space","422.99902346","106","1151178.12117","1143461.24684","1144227.70359","1144994.35944","1145761.05797","1146510.73774","1147277.93279","1148044.37501","1151927.58391","1152693.94296","1153460.70548","1154227.86343","1154994.35512","1155761.01808","1156528.1275","1157277.4072","1156538.28662","Mapping"
"Blocked","m160","ball","1","m160cling.wav","None","735.209540464","106","1151178.12117","1158044.27515","1144227.70359","1144994.35944","1145761.05797","1146510.73774","1147277.93279","1148044.37501","1151927.58391","1152693.94296","1153460.70548","1154227.86343","1154994.35512","1155761.01808","1156528.1275","1157277.4072","1157286.97054","Mapping"
"Blocked","m160","ball","1","m160dime.wav","None","731.931686401","106","1151178.12117","1158044.27515","1158811.01386","1144994.35944","1145761.05797","1146510.73774","1147277.93279","1148044.37501","1151927.58391","1152693.94296","1153460.70548","1154227.86343","1154994.35512","1155761.01808","1156528.1275","1157277.4072","1158054.60741","Mapping"
"Blocked","m160","ball","1","m160ball.wav","None","730.626357021","106","1151178.12117","1158044.27515","1158811.01386","1159577.71146","1145761.05797","1146510.73774","1147277.93279","1148044.37501","1151927.58391","1152693.94296","1153460.70548","1154227.86343","1154994.35512","1155761.01808","1156528.1275","1157277.4072","1158820.21578","Mapping"
"Blocked","m160","ball","1","m160jolt.wav","space","326.101050945","106","1151178.12117","1158044.27515","1158811.01386","1159577.71146","1160344.68607","1146510.73774","1147277.93279","1148044.37501","1151927.58391","1152693.94296","1153460.70548","1154227.86343","1154994.35512","1155761.01808","1156528.1275","1157277.4072","1159587.09363","Mapping"
"Blocked","m160","ball","1","m160ball.wav","None","723.232789198","106","1151178.12117","1158044.27515","1158811.01386","1159577.71146","1160344.68607","1161111.46096","1147277.93279","1148044.37501","1151927.58391","1152693.94296","1153460.70548","1154227.86343","1154994.35512","1155761.01808","1156528.1275","1157277.4072","1160354.81613","Mapping"
"Blocked","m160","ball","1","m160jolt.wav","space","519.646874629","106","1151178.12117","1158044.27515","1158811.01386","1159577.71146","1160344.68607","1161111.46096","1161860.587","1148044.37501","1151927.58391","1152693.94296","1153460.70548","1154227.86343","1154994.35512","1155761.01808","1156528.1275","1157277.4072","1161121.56041","Mapping"
"Blocked","m160","ball","1","m160jaw.wav","None","735.774709145","106","1151178.12117","1158044.27515","1158811.01386","1159577.71146","1160344.68607","1161111.46096","1161860.587","1162627.67446","1151927.58391","1152693.94296","1153460.70548","1154227.86343","1154994.35512","1155761.01808","1156528.1275","1157277.4072","1161869.9228","Mapping"
"Blocked","m160","cave","9","m160jaw.wav","None","733.188784448","106","1165761.38507","1158044.27515","1158811.01386","1159577.71146","1160344.68607","1161111.46096","1161860.587","1162627.67446","1151927.58391","1152693.94296","1153460.70548","1154227.86343","1154994.35512","1155761.01808","1156528.1275","1157277.4072","1162636.89123","Mapping"
"Blocked","m160","cave","9","m160bluff.wav","None","719.747788738","106","1165761.38507","1158044.27515","1158811.01386","1159577.71146","1160344.68607","1161111.46096","1161860.587","1162627.67446","1166510.62304","1152693.94296","1153460.70548","1154227.86343","1154994.35512","1155761.01808","1156528.1275","1157277.4072","1165771.26996","Mapping"
"Blocked","m160","cave","9","m160jaw.wav","None","735.237057088","106","1165761.38507","1158044.27515","1158811.01386","1159577.71146","1160344.68607","1161111.46096","1161860.587","1162627.67446","1166510.62304","1167277.5083","1153460.70548","1154227.86343","1154994.35512","1155761.01808","1156528.1275","1157277.4072","1166520.20493","Mapping"
"Blocked","m160","cave","9","m160cave.wav","None","732.769854832","106","1165761.38507","1158044.27515","1158811.01386","1159577.71146","1160344.68607","1161111.46096","1161860.587","1162627.67446","1166510.62304","1167277.5083","1168043.98051","1154227.86343","1154994.35512","1155761.01808","1156528.1275","1157277.4072","1167286.97704","Mapping"
"Blocked","m160","cave","9","m160priest.wav","space","547.901595011","106","1165761.38507","1158044.27515","1158811.01386","1159577.71146","1160344.68607","1161111.46096","1161860.587","1162627.67446","1166510.62304","1167277.5083","1168043.98051","1168810.80548","1154994.35512","1155761.01808","1156528.1275","1157277.4072","1168053.15831","Mapping"
"Blocked","m160","cave","9","m160depth.wav","None","727.189587895","106","1165761.38507","1158044.27515","1158811.01386","1159577.71146","1160344.68607","1161111.46096","1161860.587","1162627.67446","1166510.62304","1167277.5083","1168043.98051","1168810.80548","1169577.44773","1155761.01808","1156528.1275","1157277.4072","1168820.16075","Mapping"
"Blocked","m160","cave","9","m160jolt.wav","None","724.653440062","106","1165761.38507","1158044.27515","1158811.01386","1159577.71146","1160344.68607","1161111.46096","1161860.587","1162627.67446","1166510.62304","1167277.5083","1168043.98051","1168810.80548","1169577.44773","1170344.6802","1156528.1275","1157277.4072","1169586.98263","Mapping"
"Blocked","m160","cave","9","m160greet.wav","None","721.681667026","106","1165761.38507","1158044.27515","1158811.01386","1159577.71146","1160344.68607","1161111.46096","1161860.587","1162627.67446","1166510.62304","1167277.5083","1168043.98051","1168810.80548","1169577.44773","1170344.6802","1171111.08902","1157277.4072","1170354.42812","Mapping"
"Blocked","m160","cave","9","m160cave.wav","None","719.549608883","106","1165761.38507","1158044.27515","1158811.01386","1159577.71146","1160344.68607","1161111.46096","1161860.587","1162627.67446","1166510.62304","1167277.5083","1168043.98051","1168810.80548","1169577.44773","1170344.6802","1171111.08902","1171860.57927","1171120.93526","Mapping"
"Blocked","m160","cave","9","m160dime.wav","space","627.046533395","106","1165761.38507","1172627.09075","1158811.01386","1159577.71146","1160344.68607","1161111.46096","1161860.587","1162627.67446","1166510.62304","1167277.5083","1168043.98051","1168810.80548","1169577.44773","1170344.6802","1171111.08902","1171860.57927","1171869.94351","Mapping"
"Blocked","m160","cave","9","m160cave.wav","None","731.725158636","106","1165761.38507","1172627.09075","1173393.93303","1159577.71146","1160344.68607","1161111.46096","1161860.587","1162627.67446","1166510.62304","1167277.5083","1168043.98051","1168810.80548","1169577.44773","1170344.6802","1171111.08902","1171860.57927","1172636.25093","Mapping"
"Blocked","m160","cave","9","m160tile.wav","space","565.803341568","106","1165761.38507","1172627.09075","1173393.93303","1174160.70328","1160344.68607","1161111.46096","1161860.587","1162627.67446","1166510.62304","1167277.5083","1168043.98051","1168810.80548","1169577.44773","1170344.6802","1171111.08902","1171860.57927","1173403.17886","Mapping"
"Blocked","m160","cave","9","m160lash.wav","None","725.932798581","106","1165761.38507","1172627.09075","1173393.93303","1174160.70328","1174927.72056","1161111.46096","1161860.587","1162627.67446","1166510.62304","1167277.5083","1168043.98051","1168810.80548","1169577.44773","1170344.6802","1171111.08902","1171860.57927","1174170.35814","Mapping"
"Blocked","m160","cave","9","m160cave.wav","None","723.334198119","106","1165761.38507","1172627.09075","1173393.93303","1174160.70328","1174927.72056","1175694.5307","1161860.587","1162627.67446","1166510.62304","1167277.5083","1168043.98051","1168810.80548","1169577.44773","1170344.6802","1171111.08902","1171860.57927","1174937.28916","Mapping"
"Blocked","m160","cave","9","m160cad.wav","space","480.61932344","106","1165761.38507","1172627.09075","1173393.93303","1174160.70328","1174927.72056","1175694.5307","1176443.56955","1162627.67446","1166510.62304","1167277.5083","1168043.98051","1168810.80548","1169577.44773","1170344.6802","1171111.08902","1171860.57927","1175704.31015","Mapping"
"Blocked","m160","cave","9","m160tile.wav","None","735.556123545","106","1165761.38507","1172627.09075","1173393.93303","1174160.70328","1174927.72056","1175694.5307","1176443.56955","1177210.56179","1166510.62304","1167277.5083","1168043.98051","1168810.80548","1169577.44773","1170344.6802","1171111.08902","1171860.57927","1176452.67996","Mapping"
"Blocked","m160","done","20","m160cling.wav","None","732.748831157","106","1180344.17655","1172627.09075","1173393.93303","1174160.70328","1174927.72056","1175694.5307","1176443.56955","1177210.56179","1166510.62304","1167277.5083","1168043.98051","1168810.80548","1169577.44773","1170344.6802","1171111.08902","1171860.57927","1177220.17769","Mapping"
"Blocked","m160","done","20","m160done.wav","None","720.040885033","106","1180344.17655","1172627.09075","1173393.93303","1174160.70328","1174927.72056","1175694.5307","1176443.56955","1177210.56179","1181093.44142","1167277.5083","1168043.98051","1168810.80548","1169577.44773","1170344.6802","1171111.08902","1171860.57927","1180353.969","Mapping"
"Blocked","m160","done","20","m160priest.wav","space","426.148879807","106","1180344.17655","1172627.09075","1173393.93303","1174160.70328","1174927.72056","1175694.5307","1176443.56955","1177210.56179","1181093.44142","1181860.61514","1168043.98051","1168810.80548","1169577.44773","1170344.6802","1171111.08902","1171860.57927","1181102.68631","Mapping"
"Blocked","m160","done","20","m160cling.wav","None","737.104772357","106","1180344.17655","1172627.09075","1173393.93303","1174160.70328","1174927.72056","1175694.5307","1176443.56955","1177210.56179","1181093.44142","1181860.61514","1182627.19432","1168810.80548","1169577.44773","1170344.6802","1171111.08902","1171860.57927","1181864.54318","Mapping"
"Blocked","m160","done","20","m160ball.wav","None","729.49694749","106","1180344.17655","1172627.09075","1173393.93303","1174160.70328","1174927.72056","1175694.5307","1176443.56955","1177210.56179","1181093.44142","1181860.61514","1182627.19432","1183393.72156","1169577.44773","1170344.6802","1171111.08902","1171860.57927","1182636.68037","Mapping"
"Blocked","m160","done","20","m160lash.wav","None","727.807006566","106","1180344.17655","1172627.09075","1173393.93303","1174160.70328","1174927.72056","1175694.5307","1176443.56955","1177210.56179","1181093.44142","1181860.61514","1182627.19432","1183393.72156","1184160.15636","1170344.6802","1171111.08902","1171860.57927","1183402.95069","Mapping"
"Blocked","m160","done","20","m160ball.wav","None","726.972548058","106","1180344.17655","1172627.09075","1173393.93303","1174160.70328","1174927.72056","1175694.5307","1176443.56955","1177210.56179","1181093.44142","1181860.61514","1182627.19432","1183393.72156","1184160.15636","1184927.37398","1171111.08902","1171860.57927","1184169.24079","Mapping"
"Blocked","m160","done","20","m160done.wav","None","723.88607217","106","1180344.17655","1172627.09075","1173393.93303","1174160.70328","1174927.72056","1175694.5307","1176443.56955","1177210.56179","1181093.44142","1181860.61514","1182627.19432","1183393.72156","1184160.15636","1184927.37398","1185694.08765","1171860.57927","1184936.77594","Mapping"
"Blocked","m160","done","20","m160ball.wav","space","433.131247526","106","1180344.17655","1172627.09075","1173393.93303","1174160.70328","1174927.72056","1175694.5307","1176443.56955","1177210.56179","1181093.44142","1181860.61514","1182627.19432","1183393.72156","1184160.15636","1184927.37398","1185694.08765","1186443.4533","1185703.64234","Mapping"
"Blocked","m160","done","20","m160dime.wav","None","735.301055945","106","1180344.17655","1187210.50861","1173393.93303","1174160.70328","1174927.72056","1175694.5307","1176443.56955","1177210.56179","1181093.44142","1181860.61514","1182627.19432","1183393.72156","1184160.15636","1184927.37398","1185694.08765","1186443.4533","1186452.82898","Mapping"
"Blocked","m160","done","20","m160done.wav","None","733.057694975","106","1180344.17655","1187210.50861","1187976.82994","1174160.70328","1174927.72056","1175694.5307","1176443.56955","1177210.56179","1181093.44142","1181860.61514","1182627.19432","1183393.72156","1184160.15636","1184927.37398","1185694.08765","1186443.4533","1187219.75598","Mapping"
"Blocked","m160","done","20","m160tile.wav","space","550.928400597","106","1180344.17655","1187210.50861","1187976.82994","1188743.7149","1174927.72056","1175694.5307","1176443.56955","1177210.56179","1181093.44142","1181860.61514","1182627.19432","1183393.72156","1184160.15636","1184927.37398","1185694.08765","1186443.4533","1187985.79102","Mapping"
"Blocked","m160","done","20","m160cave.wav","None","725.449870108","106","1180344.17655","1187210.50861","1187976.82994","1188743.7149","1189510.47896","1175694.5307","1176443.56955","1177210.56179","1181093.44142","1181860.61514","1182627.19432","1183393.72156","1184160.15636","1184927.37398","1185694.08765","1186443.4533","1188754.87357","Mapping"
"Blocked","m160","done","20","m160done.wav","None","725.12029158","106","1180344.17655","1187210.50861","1187976.82994","1188743.7149","1189510.47896","1190277.40504","1176443.56955","1177210.56179","1181093.44142","1181860.61514","1182627.19432","1183393.72156","1184160.15636","1184927.37398","1185694.08765","1186443.4533","1189519.76158","Mapping"
"Blocked","m160","done","20","m160jaw.wav","space","713.086961303","106","1180344.17655","1187210.50861","1187976.82994","1188743.7149","1189510.47896","1190277.40504","1191027.34266","1177210.56179","1181093.44142","1181860.61514","1182627.19432","1183393.72156","1184160.15636","1184927.37398","1185694.08765","1186443.4533","1190287.5688","Mapping"
"Blocked","m160","done","20","m160depth.wav","None","735.520568909","106","1180344.17655","1187210.50861","1187976.82994","1188743.7149","1189510.47896","1190277.40504","1191027.34266","1191793.57433","1181093.44142","1181860.61514","1182627.19432","1183393.72156","1184160.15636","1184927.37398","1185694.08765","1186443.4533","1191036.72885","Mapping"
"Blocked","m160","cave","11","m160greet.wav","None","734.304899815","106","1194927.43427","1187210.50861","1187976.82994","1188743.7149","1189510.47896","1190277.40504","1191027.34266","1191793.57433","1181093.44142","1181860.61514","1182627.19432","1183393.72156","1184160.15636","1184927.37398","1185694.08765","1186443.4533","1191802.59044","Mapping"
"Blocked","m160","cave","11","m160cave.wav","None","719.515599776","106","1194927.43427","1187210.50861","1187976.82994","1188743.7149","1189510.47896","1190277.40504","1191027.34266","1191793.57433","1195676.91277","1181860.61514","1182627.19432","1183393.72156","1184160.15636","1184927.37398","1185694.08765","1186443.4533","1194936.96422","Mapping"
"Blocked","m160","cave","11","m160depth.wav","space","674.461025978","106","1194927.43427","1187210.50861","1187976.82994","1188743.7149","1189510.47896","1190277.40504","1191027.34266","1191793.57433","1195676.91277","1196443.45918","1182627.19432","1183393.72156","1184160.15636","1184927.37398","1185694.08765","1186443.4533","1195686.14746","Mapping"
"Blocked","m160","cave","11","m160knife.wav","None","731.610764517","106","1194927.43427","1187210.50861","1187976.82994","1188743.7149","1189510.47896","1190277.40504","1191027.34266","1191793.57433","1195676.91277","1196443.45918","1197210.27148","1183393.72156","1184160.15636","1184927.37398","1185694.08765","1186443.4533","1196452.49322","Mapping"
"Blocked","m160","cave","11","m160lash.wav","None","729.071834357","106","1194927.43427","1187210.50861","1187976.82994","1188743.7149","1189510.47896","1190277.40504","1191027.34266","1191793.57433","1195676.91277","1196443.45918","1197210.27148","1197976.61167","1184160.15636","1184927.37398","1185694.08765","1186443.4533","1197219.52936","Mapping"
"Blocked","m160","cave","11","m160cave.wav","None","727.184022777","106","1194927.43427","1187210.50861","1187976.82994","1188743.7149","1189510.47896","1190277.40504","1191027.34266","1191793.57433","1195676.91277","1196443.45918","1197210.27148","1197976.61167","1198743.44375","1184927.37398","1185694.08765","1186443.4533","1197985.92798","Mapping"
"Blocked","m160","cave","11","m160gnash.wav","space","703.295755433","106","1194927.43427","1187210.50861","1187976.82994","1188743.7149","1189510.47896","1190277.40504","1191027.34266","1191793.57433","1195676.91277","1196443.45918","1197210.27148","1197976.61167","1198743.44375","1199510.69662","1185694.08765","1186443.4533","1198753.19909","Mapping"
"Blocked","m160","cave","11","m160jolt.wav","None","720.372936921","106","1194927.43427","1187210.50861","1187976.82994","1188743.7149","1189510.47896","1190277.40504","1191027.34266","1191793.57433","1195676.91277","1196443.45918","1197210.27148","1197976.61167","1198743.44375","1199510.69662","1200259.98127","1186443.4533","1199520.46958","Mapping"
"Blocked","m160","cave","11","m160bluff.wav","None","736.431393074","106","1194927.43427","1187210.50861","1187976.82994","1188743.7149","1189510.47896","1190277.40504","1191027.34266","1191793.57433","1195676.91277","1196443.45918","1197210.27148","1197976.61167","1198743.44375","1199510.69662","1200259.98127","1201026.80748","1200269.15104","Mapping"
"Blocked","m160","cave","11","m160knife.wav","None","733.670476358","106","1194927.43427","1201793.4117","1187976.82994","1188743.7149","1189510.47896","1190277.40504","1191027.34266","1191793.57433","1195676.91277","1196443.45918","1197210.27148","1197976.61167","1198743.44375","1199510.69662","1200259.98127","1201026.80748","1201036.43884","Mapping"
"Blocked","m160","cave","11","m160bluff.wav","None","731.895822333","106","1194927.43427","1201793.4117","1202560.07096","1188743.7149","1189510.47896","1190277.40504","1191027.34266","1191793.57433","1195676.91277","1196443.45918","1197210.27148","1197976.61167","1198743.44375","1199510.69662","1200259.98127","1201026.80748","1201802.8925","Mapping"
"Blocked","m160","cave","11","m160jaw.wav","None","730.033672182","106","1194927.43427","1201793.4117","1202560.07096","1203326.84863","1189510.47896","1190277.40504","1191027.34266","1191793.57433","1195676.91277","1196443.45918","1197210.27148","1197976.61167","1198743.44375","1199510.69662","1200259.98127","1201026.80748","1202569.44355","Mapping"
"Blocked","m160","cave","11","m160cave.wav","None","727.587184403","106","1194927.43427","1201793.4117","1202560.07096","1203326.84863","1204093.35918","1190277.40504","1191027.34266","1191793.57433","1195676.91277","1196443.45918","1197210.27148","1197976.61167","1198743.44375","1199510.69662","1200259.98127","1201026.80748","1203336.41661","Mapping"
"Blocked","m160","cave","11","m160romp.wav","None","725.126165897","106","1194927.43427","1201793.4117","1202560.07096","1203326.84863","1204093.35918","1204860.61977","1191027.34266","1191793.57433","1195676.91277","1196443.45918","1197210.27148","1197976.61167","1198743.44375","1199510.69662","1200259.98127","1201026.80748","1204103.43791","Mapping"
"Blocked","m160","cave","11","m160cave.wav","None","722.776758717","106","1194927.43427","1201793.4117","1202560.07096","1203326.84863","1204093.35918","1204860.61977","1205626.78528","1191793.57433","1195676.91277","1196443.45918","1197210.27148","1197976.61167","1198743.44375","1199510.69662","1200259.98127","1201026.80748","1204870.48704","Mapping"
"Blocked","m160","cave","11","m160romp.wav","None","721.700526774","106","1194927.43427","1201793.4117","1202560.07096","1203326.84863","1204093.35918","1204860.61977","1205626.78528","1206376.82586","1195676.91277","1196443.45918","1197210.27148","1197976.61167","1198743.44375","1199510.69662","1200259.98127","1201026.80748","1205636.09974","Mapping"
"Blocked","m160","tile","17","m160reek.wav","space","86.1483295448","106","1209510.2477","1201793.4117","1202560.07096","1203326.84863","1204093.35918","1204860.61977","1205626.78528","1206376.82586","1195676.91277","1196443.45918","1197210.27148","1197976.61167","1198743.44375","1199510.69662","1200259.98127","1201026.80748","1206386.25317","Mapping"
"Blocked","m160","tile","17","m160jolt.wav","None","719.156340463","106","1209510.2477","1201793.4117","1202560.07096","1203326.84863","1204093.35918","1204860.61977","1205626.78528","1206376.82586","1210259.88326","1196443.45918","1197210.27148","1197976.61167","1198743.44375","1199510.69662","1200259.98127","1201026.80748","1209520.2881","Mapping"
"Blocked","m160","tile","17","m160park.wav","None","734.771442134","106","1209510.2477","1201793.4117","1202560.07096","1203326.84863","1204093.35918","1204860.61977","1205626.78528","1206376.82586","1210259.88326","1211026.76636","1197210.27148","1197976.61167","1198743.44375","1199510.69662","1200259.98127","1201026.80748","1210269.43331","Mapping"
"Blocked","m160","tile","17","m160cling.wav","None","733.163123252","106","1209510.2477","1201793.4117","1202560.07096","1203326.84863","1204093.35918","1204860.61977","1205626.78528","1206376.82586","1210259.88326","1211026.76636","1211793.26083","1197976.61167","1198743.44375","1199510.69662","1200259.98127","1201026.80748","1211035.77258","Mapping"
"Blocked","m160","tile","17","m160romp.wav","None","730.236798758","106","1209510.2477","1201793.4117","1202560.07096","1203326.84863","1204093.35918","1204860.61977","1205626.78528","1206376.82586","1210259.88326","1211026.76636","1211793.26083","1212559.95162","1198743.44375","1199510.69662","1200259.98127","1201026.80748","1211803.7282","Mapping"
"Blocked","m160","tile","17","m160tile.wav","None","729.417489842","106","1209510.2477","1201793.4117","1202560.07096","1203326.84863","1204093.35918","1204860.61977","1205626.78528","1206376.82586","1210259.88326","1211026.76636","1211793.26083","1212559.95162","1213326.64891","1199510.69662","1200259.98127","1201026.80748","1212569.2565","Mapping"
"Blocked","m160","tile","17","m160reek.wav","space","448.393273167","106","1209510.2477","1201793.4117","1202560.07096","1203326.84863","1204093.35918","1204860.61977","1205626.78528","1206376.82586","1210259.88326","1211026.76636","1211793.26083","1212559.95162","1213326.64891","1214093.56385","1200259.98127","1201026.80748","1213335.88236","Mapping"
"Blocked","m160","tile","17","m160tile.wav","None","722.793454072","106","1209510.2477","1201793.4117","1202560.07096","1203326.84863","1204093.35918","1204860.61977","1205626.78528","1206376.82586","1210259.88326","1211026.76636","1211793.26083","1212559.95162","1213326.64891","1214093.56385","1214860.38449","1201026.80748","1214103.78573","Mapping"
"Blocked","m160","tile","17","m160cad.wav","space","593.978295336","106","1209510.2477","1201793.4117","1202560.07096","1203326.84863","1204093.35918","1204860.61977","1205626.78528","1206376.82586","1210259.88326","1211026.76636","1211793.26083","1212559.95162","1213326.64891","1214093.56385","1214860.38449","1215609.56743","1214870.22331","Mapping"
"Blocked","m160","tile","17","m160tile.wav","None","735.755231231","106","1209510.2477","1216393.05498","1202560.07096","1203326.84863","1204093.35918","1204860.61977","1205626.78528","1206376.82586","1210259.88326","1211026.76636","1211793.26083","1212559.95162","1213326.64891","1214093.56385","1214860.38449","1215609.56743","1215618.95021","Mapping"
"Blocked","m160","tile","17","m160knife.wav","None","720.733433031","106","1209510.2477","1216393.05498","1217142.94839","1203326.84863","1204093.35918","1204860.61977","1205626.78528","1206376.82586","1210259.88326","1211026.76636","1211793.26083","1212559.95162","1213326.64891","1214093.56385","1214860.38449","1215609.56743","1216402.0884","Mapping"
"Blocked","m160","tile","17","m160cad.wav","space","0.0349367037416","106","1209510.2477","1216393.05498","1217142.94839","1217910.11191","1204093.35918","1204860.61977","1205626.78528","1206376.82586","1210259.88326","1211026.76636","1211793.26083","1212559.95162","1213326.64891","1214093.56385","1214860.38449","1215609.56743","1217152.58965","Mapping"
"Blocked","m160","tile","17","m160tile.wav","None","731.947454158","106","1209510.2477","1216393.05498","1217142.94839","1217910.11191","1218676.55753","1204860.61977","1205626.78528","1206376.82586","1210259.88326","1211026.76636","1211793.26083","1212559.95162","1213326.64891","1214093.56385","1214860.38449","1215609.56743","1217919.31909","Mapping"
