"Condition","Talker","Target","Trial","current_stimulus","response_response","response_time_response","subject_nr","time_Audio1","time_Audio10","time_Audio11","time_Audio12","time_Audio13","time_Audio14","time_Audio15","time_Audio16","time_Audio2","time_Audio3","time_Audio4","time_Audio5","time_Audio6","time_Audio7","time_Audio8","time_Audio9","time_response","title"
"Blocked","m160","cave","7","m160park.wav","NA","NA","102","93744.0404547","NA","NA","NA","NA","NA","NA","NA","NA","NA","NA","NA","NA","NA","NA","NA","NA","Mapping"
"Blocked","m160","cave","7","m160cave.wav","None","715.82530858","102","93744.0404547","NA","NA","NA","NA","NA","NA","NA","94494.2111955","NA","NA","NA","NA","NA","NA","NA","93758.1062894","Mapping"
"Blocked","m160","cave","7","m160gnash.wav","None","734.140110435","102","93744.0404547","NA","NA","NA","NA","NA","NA","NA","94494.2111955","95260.2712747","NA","NA","NA","NA","NA","NA","94503.4236296","Mapping"
"Blocked","m160","cave","7","m160tile.wav","None","731.958584394","102","93744.0404547","NA","NA","NA","NA","NA","NA","NA","94494.2111955","95260.2712747","96026.7289507","NA","NA","NA","NA","NA","95269.3328322","Mapping"
"Blocked","m160","cave","7","m160ball.wav","None","729.318554513","102","93744.0404547","NA","NA","NA","NA","NA","NA","NA","94494.2111955","95260.2712747","96026.7289507","96793.62287","NA","NA","NA","NA","96035.6662204","Mapping"
"Blocked","m160","cave","7","m160greet.wav","None","725.308268797","102","93744.0404547","NA","NA","NA","NA","NA","NA","NA","94494.2111955","95260.2712747","96026.7289507","96793.62287","97560.8723385","NA","NA","NA","96803.2529969","Mapping"
"Blocked","m160","cave","7","m160lash.wav","None","721.858205041","102","93744.0404547","NA","NA","NA","NA","NA","NA","NA","94494.2111955","95260.2712747","96026.7289507","96793.62287","97560.8723385","98310.6522844","NA","NA","97570.4684563","Mapping"
"Blocked","m160","cave","7","m160cave.wav","None","735.734825721","102","93744.0404547","NA","NA","NA","NA","NA","NA","NA","94494.2111955","95260.2712747","96026.7289507","96793.62287","97560.8723385","98310.6522844","99076.6557849","NA","98320.112366","Mapping"
"Blocked","m160","cave","7","m160jolt.wav","None","733.714997536","102","93744.0404547","NA","NA","NA","NA","NA","NA","NA","94494.2111955","95260.2712747","96026.7289507","96793.62287","97560.8723385","98310.6522844","99076.6557849","99843.4479861","99085.7943262","Mapping"
"Blocked","m160","cave","7","m160reek.wav","None","731.07311246","102","93744.0404547","100610.628818","NA","NA","NA","NA","NA","NA","94494.2111955","95260.2712747","96026.7289507","96793.62287","97560.8723385","98310.6522844","99076.6557849","99843.4479861","99852.1907858","Mapping"
"Blocked","m160","cave","7","m160park.wav","None","731.447521131","102","93744.0404547","100610.628818","101376.830499","NA","NA","NA","NA","NA","94494.2111955","95260.2712747","96026.7289507","96793.62287","97560.8723385","98310.6522844","99076.6557849","99843.4479861","100615.392559","Mapping"
"Blocked","m160","cave","7","m160cave.wav","None","725.137914298","102","93744.0404547","100610.628818","101376.830499","102143.695974","NA","NA","NA","NA","94494.2111955","95260.2712747","96026.7289507","96793.62287","97560.8723385","98310.6522844","99076.6557849","99843.4479861","101385.6812","Mapping"
"Blocked","m160","cave","7","m160lash.wav","None","721.722478047","102","93744.0404547","100610.628818","101376.830499","102143.695974","102893.710582","NA","NA","NA","94494.2111955","95260.2712747","96026.7289507","96793.62287","97560.8723385","98310.6522844","99076.6557849","99843.4479861","102152.702498","Mapping"
"Blocked","m160","cave","7","m160cling.wav","None","735.195937101","102","93744.0404547","100610.628818","101376.830499","102143.695974","102893.710582","103660.518861","NA","NA","94494.2111955","95260.2712747","96026.7289507","96793.62287","97560.8723385","98310.6522844","99076.6557849","99843.4479861","102902.815424","Mapping"
"Blocked","m160","cave","7","m160cave.wav","None","732.264356688","102","93744.0404547","100610.628818","101376.830499","102143.695974","102893.710582","103660.518861","104426.801235","NA","94494.2111955","95260.2712747","96026.7289507","96793.62287","97560.8723385","98310.6522844","99076.6557849","99843.4479861","103669.606079","Mapping"
"Blocked","m160","cave","7","m160greet.wav","None","729.999972042","102","93744.0404547","100610.628818","101376.830499","102143.695974","102893.710582","103660.518861","104426.801235","105193.803984","94494.2111955","95260.2712747","96026.7289507","96793.62287","97560.8723385","98310.6522844","99076.6557849","99843.4479861","104435.663067","Mapping"
"Blocked","m160","cave","11","m160knife.wav","None","726.168079535","102","108394.210361","100610.628818","101376.830499","102143.695974","102893.710582","103660.518861","104426.801235","105193.803984","94494.2111955","95260.2712747","96026.7289507","96793.62287","97560.8723385","98310.6522844","99076.6557849","99843.4479861","105203.17255","Mapping"
"Blocked","m160","cave","11","m160cave.wav","None","719.767575851","102","108394.210361","100610.628818","101376.830499","102143.695974","102893.710582","103660.518861","104426.801235","105193.803984","109143.611879","95260.2712747","96026.7289507","96793.62287","97560.8723385","98310.6522844","99076.6557849","99843.4479861","108403.812044","Mapping"
"Blocked","m160","cave","11","m160tile.wav","None","734.507408459","102","108394.210361","100610.628818","101376.830499","102143.695974","102893.710582","103660.518861","104426.801235","105193.803984","109143.611879","109909.964745","96026.7289507","96793.62287","97560.8723385","98310.6522844","99076.6557849","99843.4479861","109152.789376","Mapping"
"Blocked","m160","cave","11","m160park.wav","None","732.701218454","102","108394.210361","100610.628818","101376.830499","102143.695974","102893.710582","103660.518861","104426.801235","105193.803984","109143.611879","109909.964745","110677.225653","96793.62287","97560.8723385","98310.6522844","99076.6557849","99843.4479861","109918.868315","Mapping"
"Blocked","m160","cave","11","m160cave.wav","None","729.57207635","102","108394.210361","100610.628818","101376.830499","102143.695974","102893.710582","103660.518861","104426.801235","105193.803984","109143.611879","109909.964745","110677.225653","111443.33149","97560.8723385","98310.6522844","99076.6557849","99843.4479861","110685.968762","Mapping"
"Blocked","m160","cave","11","m160done.wav","None","728.723086882","102","108394.210361","100610.628818","101376.830499","102143.695974","102893.710582","103660.518861","104426.801235","105193.803984","109143.611879","109909.964745","110677.225653","111443.33149","112209.991056","98310.6522844","99076.6557849","99843.4479861","111452.095313","Mapping"
"Blocked","m160","cave","11","m160jaw.wav","None","725.836645812","102","108394.210361","100610.628818","101376.830499","102143.695974","102893.710582","103660.518861","104426.801235","105193.803984","109143.611879","109909.964745","110677.225653","111443.33149","112209.991056","112977.548461","99076.6557849","99843.4479861","112218.68717","Mapping"
"Blocked","m160","cave","11","m160jaw.wav","None","720.294407103","102","108394.210361","100610.628818","101376.830499","102143.695974","102893.710582","103660.518861","104426.801235","105193.803984","109143.611879","109909.964745","110677.225653","111443.33149","112209.991056","112977.548461","113727.081686","99843.4479861","112987.847638","Mapping"
"Blocked","m160","cave","11","m160ball.wav","None","735.843964154","102","108394.210361","100610.628818","101376.830499","102143.695974","102893.710582","103660.518861","104426.801235","105193.803984","109143.611879","109909.964745","110677.225653","111443.33149","112209.991056","112977.548461","113727.081686","114493.595323","113736.052347","Mapping"
"Blocked","m160","cave","11","m160reek.wav","None","733.07995568","102","108394.210361","115260.284569","101376.830499","102143.695974","102893.710582","103660.518861","104426.801235","105193.803984","109143.611879","109909.964745","110677.225653","111443.33149","112209.991056","112977.548461","113727.081686","114493.595323","114502.557945","Mapping"
"Blocked","m160","cave","11","m160jolt.wav","None","730.040783063","102","108394.210361","115260.284569","116026.877972","102143.695974","102893.710582","103660.518861","104426.801235","105193.803984","109143.611879","109909.964745","110677.225653","111443.33149","112209.991056","112977.548461","113727.081686","114493.595323","115269.345508","Mapping"
"Blocked","m160","cave","11","m160cave.wav","None","726.989862043","102","108394.210361","115260.284569","116026.877972","116793.907928","102893.710582","103660.518861","104426.801235","105193.803984","109143.611879","109909.964745","110677.225653","111443.33149","112209.991056","112977.548461","113727.081686","114493.595323","116036.212838","Mapping"
"Blocked","m160","cave","11","m160knife.wav","None","723.679853603","102","108394.210361","115260.284569","116026.877972","116793.907928","117560.650043","103660.518861","104426.801235","105193.803984","109143.611879","109909.964745","110677.225653","111443.33149","112209.991056","112977.548461","113727.081686","114493.595323","116803.398308","Mapping"
"Blocked","m160","cave","11","m160cave.wav","None","720.821547555","102","108394.210361","115260.284569","116026.877972","116793.907928","117560.650043","118309.989726","104426.801235","105193.803984","109143.611879","109909.964745","110677.225653","111443.33149","112209.991056","112977.548461","113727.081686","114493.595323","117570.063439","Mapping"
"Blocked","m160","cave","11","m160dime.wav","None","735.574983293","102","108394.210361","115260.284569","116026.877972","116793.907928","117560.650043","118309.989726","119076.850255","105193.803984","109143.611879","109909.964745","110677.225653","111443.33149","112209.991056","112977.548461","113727.081686","114493.595323","118319.011709","Mapping"
"Blocked","m160","cave","11","m160knife.wav","None","732.258173171","102","108394.210361","115260.284569","116026.877972","116793.907928","117560.650043","118309.989726","119076.850255","119843.169112","109143.611879","109909.964745","110677.225653","111443.33149","112209.991056","112977.548461","113727.081686","114493.595323","119086.168117","Mapping"
"Blocked","m160","ball","5","m160cad.wav","None","730.445490917","102","122977.094904","115260.284569","116026.877972","116793.907928","117560.650043","118309.989726","119076.850255","119843.169112","109143.611879","109909.964745","110677.225653","111443.33149","112209.991056","112977.548461","113727.081686","114493.595323","119851.942829","Mapping"
"Blocked","m160","ball","5","m160ball.wav","None","720.840406837","102","122977.094904","115260.284569","116026.877972","116793.907928","117560.650043","118309.989726","119076.850255","119843.169112","123726.54187","109909.964745","110677.225653","111443.33149","112209.991056","112977.548461","113727.081686","114493.595323","122986.312593","Mapping"
"Blocked","m160","ball","5","m160reek.wav","None","735.52520643","102","122977.094904","115260.284569","116026.877972","116793.907928","117560.650043","118309.989726","119076.850255","119843.169112","123726.54187","124493.176702","110677.225653","111443.33149","112209.991056","112977.548461","113727.081686","114493.595323","123735.550249","Mapping"
"Blocked","m160","ball","5","m160reek.wav","None","732.601046329","102","122977.094904","115260.284569","116026.877972","116793.907928","117560.650043","118309.989726","119076.850255","119843.169112","123726.54187","124493.176702","125260.141731","111443.33149","112209.991056","112977.548461","113727.081686","114493.595323","124502.336886","Mapping"
"Blocked","m160","ball","5","m160ball.wav","None","729.444078635","102","122977.094904","115260.284569","116026.877972","116793.907928","117560.650043","118309.989726","119076.850255","119843.169112","123726.54187","124493.176702","125260.141731","126026.388242","112209.991056","112977.548461","113727.081686","114493.595323","125269.237916","Mapping"
"Blocked","m160","ball","5","m160romp.wav","None","727.390859509","102","122977.094904","115260.284569","116026.877972","116793.907928","117560.650043","118309.989726","119076.850255","119843.169112","123726.54187","124493.176702","125260.141731","126026.388242","126793.88845","112977.548461","113727.081686","114493.595323","126035.215755","Mapping"
"Blocked","m160","ball","5","m160cling.wav","None","722.628355492","102","122977.094904","115260.284569","116026.877972","116793.907928","117560.650043","118309.989726","119076.850255","119843.169112","123726.54187","124493.176702","125260.141731","126026.388242","126793.88845","127560.537504","113727.081686","114493.595323","126803.764369","Mapping"
"Blocked","m160","ball","5","m160romp.wav","None","720.294407103","102","122977.094904","115260.284569","116026.877972","116793.907928","117560.650043","118309.989726","119076.850255","119843.169112","123726.54187","124493.176702","125260.141731","126026.388242","126793.88845","127560.537504","128309.700958","114493.595323","127570.358081","Mapping"
"Blocked","m160","ball","5","m160jolt.wav","None","735.330118099","102","122977.094904","115260.284569","116026.877972","116793.907928","117560.650043","118309.989726","119076.850255","119843.169112","123726.54187","124493.176702","125260.141731","126026.388242","126793.88845","127560.537504","128309.700958","129076.857056","128319.138161","Mapping"
"Blocked","m160","ball","5","m160jolt.wav","None","732.151508331","102","122977.094904","129842.968459","116026.877972","116793.907928","117560.650043","118309.989726","119076.850255","119843.169112","123726.54187","124493.176702","125260.141731","126026.388242","126793.88845","127560.537504","128309.700958","129076.857056","129086.180484","Mapping"
"Blocked","m160","ball","5","m160ball.wav","None","730.673042359","102","122977.094904","129842.968459","130610.077871","116793.907928","117560.650043","118309.989726","119076.850255","119843.169112","123726.54187","124493.176702","125260.141731","126026.388242","126793.88845","127560.537504","128309.700958","129076.857056","129851.821324","Mapping"
"Blocked","m160","ball","5","m160jaw.wav","None","727.269354509","102","122977.094904","129842.968459","130610.077871","131377.049702","117560.650043","118309.989726","119076.850255","119843.169112","123726.54187","124493.176702","125260.141731","126026.388242","126793.88845","127560.537504","128309.700958","129076.857056","130619.123352","Mapping"
"Blocked","m160","ball","5","m160ball.wav","None","723.795484286","102","122977.094904","129842.968459","130610.077871","131377.049702","132143.671549","118309.989726","119076.850255","119843.169112","123726.54187","124493.176702","125260.141731","126026.388242","126793.88845","127560.537504","128309.700958","129076.857056","131386.596043","Mapping"
"Blocked","m160","ball","5","m160park.wav","None","721.056828275","102","122977.094904","129842.968459","130610.077871","131377.049702","132143.671549","132892.679799","119076.850255","119843.169112","123726.54187","124493.176702","125260.141731","126026.388242","126793.88845","127560.537504","128309.700958","129076.857056","132153.296729","Mapping"
"Blocked","m160","ball","5","m160jaw.wav","None","736.850941088","102","122977.094904","129842.968459","130610.077871","131377.049702","132143.671549","132892.679799","133659.506628","119843.169112","123726.54187","124493.176702","125260.141731","126026.388242","126793.88845","127560.537504","128309.700958","129076.857056","132901.514732","Mapping"
"Blocked","m160","ball","5","m160depth.wav","None","734.232244082","102","122977.094904","129842.968459","130610.077871","131377.049702","132143.671549","132892.679799","133659.506628","134426.2574","123726.54187","124493.176702","125260.141731","126026.388242","126793.88845","127560.537504","128309.700958","129076.857056","133668.227476","Mapping"
"Blocked","m160","tile","16","m160priest.wav","None","731.248413445","102","137560.1835","129842.968459","130610.077871","131377.049702","132143.671549","132892.679799","133659.506628","134426.2574","123726.54187","124493.176702","125260.141731","126026.388242","126793.88845","127560.537504","128309.700958","129076.857056","134435.185085","Mapping"
"Blocked","m160","tile","16","m160ball.wav","None","720.84999131","102","137560.1835","129842.968459","130610.077871","131377.049702","132143.671549","132892.679799","133659.506628","134426.2574","138309.256677","124493.176702","125260.141731","126026.388242","126793.88845","127560.537504","128309.700958","129076.857056","137569.566598","Mapping"
"Blocked","m160","tile","16","m160tile.wav","None","736.179726198","102","137560.1835","129842.968459","130610.077871","131377.049702","132143.671549","132892.679799","133659.506628","134426.2574","138309.256677","139076.422668","125260.141731","126026.388242","126793.88845","127560.537504","128309.700958","129076.857056","138318.265365","Mapping"
"Blocked","m160","tile","16","m160greet.wav","None","733.309980249","102","137560.1835","129842.968459","130610.077871","131377.049702","132143.671549","132892.679799","133659.506628","134426.2574","138309.256677","139076.422668","139843.121499","126026.388242","126793.88845","127560.537504","128309.700958","129076.857056","139085.126821","Mapping"
"Blocked","m160","tile","16","m160cad.wav","None","735.694324132","102","137560.1835","129842.968459","130610.077871","131377.049702","132143.671549","132892.679799","133659.506628","134426.2574","138309.256677","139076.422668","139843.121499","140609.834552","126793.88845","127560.537504","128309.700958","129076.857056","139846.873625","Mapping"
"Blocked","m160","tile","16","m160reek.wav","None","727.201336296","102","137560.1835","129842.968459","130610.077871","131377.049702","132143.671549","132892.679799","133659.506628","134426.2574","138309.256677","139076.422668","139843.121499","140609.834552","141376.137641","127560.537504","128309.700958","129076.857056","140619.34101","Mapping"
"Blocked","m160","tile","16","m160tile.wav","None","725.709266495","102","137560.1835","129842.968459","130610.077871","131377.049702","132143.671549","132892.679799","133659.506628","134426.2574","138309.256677","139076.422668","139843.121499","140609.834552","141376.137641","142142.950248","128309.700958","129076.857056","141384.949696","Mapping"
"Blocked","m160","tile","16","m160greet.wav","None","722.947422182","102","137560.1835","129842.968459","130610.077871","131377.049702","132143.671549","132892.679799","133659.506628","134426.2574","138309.256677","139076.422668","139843.121499","140609.834552","141376.137641","142142.950248","142892.864066","129076.857056","142151.766013","Mapping"
"Blocked","m160","tile","16","m160cave.wav","None","737.142800586","102","137560.1835","129842.968459","130610.077871","131377.049702","132143.671549","132892.679799","133659.506628","134426.2574","138309.256677","139076.422668","139843.121499","140609.834552","141376.137641","142142.950248","142892.864066","143659.704189","142901.592335","Mapping"
"Blocked","m160","tile","16","m160priest.wav","None","734.229461523","102","137560.1835","144426.33222","130610.077871","131377.049702","132143.671549","132892.679799","133659.506628","134426.2574","138309.256677","139076.422668","139843.121499","140609.834552","141376.137641","142142.950248","142892.864066","143659.704189","143668.761727","Mapping"
"Blocked","m160","tile","16","m160ball.wav","None","731.492351275","102","137560.1835","144426.33222","145192.765162","131377.049702","132143.671549","132892.679799","133659.506628","134426.2574","138309.256677","139076.422668","139843.121499","140609.834552","141376.137641","142142.950248","142892.864066","143659.704189","144435.565368","Mapping"
"Blocked","m160","tile","16","m160tile.wav","None","729.970600922","102","137560.1835","144426.33222","145192.765162","145959.740703","132143.671549","132892.679799","133659.506628","134426.2574","138309.256677","139076.422668","139843.121499","140609.834552","141376.137641","142142.950248","142892.864066","143659.704189","145201.387384","Mapping"
"Blocked","m160","tile","16","m160done.wav","None","726.568458835","102","137560.1835","144426.33222","145192.765162","145959.740703","146726.629984","132892.679799","133659.506628","134426.2574","138309.256677","139076.422668","139843.121499","140609.834552","141376.137641","142142.950248","142892.864066","143659.704189","145968.759903","Mapping"
"Blocked","m160","tile","16","m160tile.wav","None","723.285967018","102","137560.1835","144426.33222","145192.765162","145959.740703","146726.629984","147492.844959","133659.506628","134426.2574","138309.256677","139076.422668","139843.121499","140609.834552","141376.137641","142142.950248","142892.864066","143659.704189","146736.136133","Mapping"
"Blocked","m160","tile","16","m160bluff.wav","None","721.713511972","102","137560.1835","144426.33222","145192.765162","145959.740703","146726.629984","147492.844959","148242.453005","134426.2574","138309.256677","139076.422668","139843.121499","140609.834552","141376.137641","142142.950248","142892.864066","143659.704189","147501.888275","Mapping"
"Blocked","m160","tile","16","m160lash.wav","None","736.565265106","102","137560.1835","144426.33222","145192.765162","145959.740703","146726.629984","147492.844959","148242.453005","149009.301167","138309.256677","139076.422668","139843.121499","140609.834552","141376.137641","142142.950248","142892.864066","143659.704189","148251.118511","Mapping"
"Blocked","m160","ball","2","m160jaw.wav","None","733.889680123","102","152143.318473","144426.33222","145192.765162","145959.740703","146726.629984","147492.844959","148242.453005","149009.301167","138309.256677","139076.422668","139843.121499","140609.834552","141376.137641","142142.950248","142892.864066","143659.704189","149017.974711","Mapping"
"Blocked","m160","ball","2","m160park.wav","None","719.444180839","102","152143.318473","144426.33222","145192.765162","145959.740703","146726.629984","147492.844959","148242.453005","149009.301167","152892.786155","139076.422668","139843.121499","140609.834552","141376.137641","142142.950248","142892.864066","143659.704189","152153.360419","Mapping"
"Blocked","m160","ball","2","m160gnash.wav","None","734.976114938","102","152143.318473","144426.33222","145192.765162","145959.740703","146726.629984","147492.844959","148242.453005","149009.301167","152892.786155","153659.650702","139843.121499","140609.834552","141376.137641","142142.950248","142892.864066","143659.704189","152901.891614","Mapping"
"Blocked","m160","ball","2","m160ball.wav","None","732.326500583","102","152143.318473","144426.33222","145192.765162","145959.740703","146726.629984","147492.844959","148242.453005","149009.301167","152892.786155","153659.650702","154425.874025","140609.834552","141376.137641","142142.950248","142892.864066","143659.704189","153668.813359","Mapping"
"Blocked","m160","ball","2","m160knife.wav","None","730.506088817","102","152143.318473","144426.33222","145192.765162","145959.740703","146726.629984","147492.844959","148242.453005","149009.301167","152892.786155","153659.650702","154425.874025","155192.866571","141376.137641","142142.950248","142892.864066","143659.704189","154434.661964","Mapping"
"Blocked","m160","ball","2","m160lash.wav","None","727.174129104","102","152143.318473","144426.33222","145192.765162","145959.740703","146726.629984","147492.844959","148242.453005","149009.301167","152892.786155","153659.650702","154425.874025","155192.866571","155959.869009","142142.950248","142892.864066","143659.704189","155202.127235","Mapping"
"Blocked","m160","ball","2","m160ball.wav","None","724.121352891","102","152143.318473","144426.33222","145192.765162","145959.740703","146726.629984","147492.844959","148242.453005","149009.301167","152892.786155","153659.650702","154425.874025","155192.866571","155959.869009","156726.016276","142892.864066","143659.704189","155969.283643","Mapping"
"Blocked","m160","ball","2","m160bluff.wav","None","722.615679493","102","152143.318473","144426.33222","145192.765162","145959.740703","146726.629984","147492.844959","148242.453005","149009.301167","152892.786155","153659.650702","154425.874025","155192.866571","155959.869009","156726.016276","157476.392926","143659.704189","156734.854919","Mapping"
"Blocked","m160","ball","2","m160jolt.wav","None","736.093466869","102","152143.318473","144426.33222","145192.765162","145959.740703","146726.629984","147492.844959","148242.453005","149009.301167","152892.786155","153659.650702","154425.874025","155192.866571","155959.869009","156726.016276","157476.392926","158242.894195","157485.533941","Mapping"
"Blocked","m160","ball","2","m160ball.wav","None","733.52794745","102","152143.318473","159009.128029","145192.765162","145959.740703","146726.629984","147492.844959","148242.453005","149009.301167","152892.786155","153659.650702","154425.874025","155192.866571","155959.869009","156726.016276","157476.392926","158242.894195","158252.075403","Mapping"
"Blocked","m160","ball","2","m160lash.wav","None","731.750820065","102","152143.318473","159009.128029","159776.277635","145959.740703","146726.629984","147492.844959","148242.453005","149009.301167","152892.786155","153659.650702","154425.874025","155192.866571","155959.869009","156726.016276","157476.392926","158242.894195","159018.021087","Mapping"
"Blocked","m160","ball","2","m160dime.wav","None","727.695395239","102","152143.318473","159009.128029","159776.277635","160542.706867","146726.629984","147492.844959","148242.453005","149009.301167","152892.786155","153659.650702","154425.874025","155192.866571","155959.869009","156726.016276","157476.392926","158242.894195","159786.045653","Mapping"
"Blocked","m160","ball","2","m160dime.wav","None","725.751313847","102","152143.318473","159009.128029","159776.277635","160542.706867","161309.307072","147492.844959","148242.453005","149009.301167","152892.786155","153659.650702","154425.874025","155192.866571","155959.869009","156726.016276","157476.392926","158242.894195","160552.054719","Mapping"
"Blocked","m160","ball","2","m160ball.wav","None","723.603797145","102","152143.318473","159009.128029","159776.277635","160542.706867","161309.307072","162075.970039","148242.453005","149009.301167","152892.786155","153659.650702","154425.874025","155192.866571","155959.869009","156726.016276","157476.392926","158242.894195","161318.407276","Mapping"
"Blocked","m160","ball","2","m160gnash.wav","None","721.257790923","102","152143.318473","159009.128029","159776.277635","160542.706867","161309.307072","162075.970039","162826.002579","149009.301167","152892.786155","153659.650702","154425.874025","155192.866571","155959.869009","156726.016276","157476.392926","158242.894195","162084.749939","Mapping"
"Blocked","m160","ball","2","m160bluff.wav","None","734.971477184","102","152143.318473","159009.128029","159776.277635","160542.706867","161309.307072","162075.970039","162826.002579","163592.70883","152892.786155","153659.650702","154425.874025","155192.866571","155959.869009","156726.016276","157476.392926","158242.894195","162835.019615","Mapping"
"Blocked","m160","done","22","m160lash.wav","None","732.21272463","102","166725.828298","159009.128029","159776.277635","160542.706867","161309.307072","162075.970039","162826.002579","163592.70883","152892.786155","153659.650702","154425.874025","155192.866571","155959.869009","156726.016276","157476.392926","158242.894195","163601.838715","Mapping"
"Blocked","m160","done","22","m160jaw.wav","None","721.732680686","102","166725.828298","159009.128029","159776.277635","160542.706867","161309.307072","162075.970039","162826.002579","163592.70883","167475.498488","153659.650702","154425.874025","155192.866571","155959.869009","156726.016276","157476.392926","158242.894195","166734.82833","Mapping"
"Blocked","m160","done","22","m160priest.wav","None","736.844757572","102","166725.828298","159009.128029","159776.277635","160542.706867","161309.307072","162075.970039","162826.002579","163592.70883","167475.498488","168242.740227","154425.874025","155192.866571","155959.869009","156726.016276","157476.392926","158242.894195","167484.238505","Mapping"
"Blocked","m160","done","22","m160gnash.wav","None","733.12014807","102","166725.828298","159009.128029","159776.277635","160542.706867","161309.307072","162075.970039","162826.002579","163592.70883","167475.498488","168242.740227","169008.953347","155192.866571","155959.869009","156726.016276","157476.392926","158242.894195","168251.920507","Mapping"
"Blocked","m160","done","22","m160done.wav","None","731.436700094","102","166725.828298","159009.128029","159776.277635","160542.706867","161309.307072","162075.970039","162826.002579","163592.70883","167475.498488","168242.740227","169008.953347","169775.616004","155959.869009","156726.016276","157476.392926","158242.894195","169017.737885","Mapping"
"Blocked","m160","done","22","m160romp.wav","None","728.809346212","102","166725.828298","159009.128029","159776.277635","160542.706867","161309.307072","162075.970039","162826.002579","163592.70883","167475.498488","168242.740227","169008.953347","169775.616004","170542.299377","156726.016276","157476.392926","158242.894195","169784.529159","Mapping"
"Blocked","m160","done","22","m160cad.wav","None","726.283091819","102","166725.828298","159009.128029","159776.277635","160542.706867","161309.307072","162075.970039","162826.002579","163592.70883","167475.498488","168242.740227","169008.953347","169775.616004","170542.299377","171309.01243","157476.392926","158242.894195","170551.172957","Mapping"
"Blocked","m160","done","22","m160knife.wav","None","723.756219493","102","166725.828298","159009.128029","159776.277635","160542.706867","161309.307072","162075.970039","162826.002579","163592.70883","167475.498488","168242.740227","169008.953347","169775.616004","170542.299377","171309.01243","172075.732594","158242.894195","171317.87828","Mapping"
"Blocked","m160","done","22","m160jaw.wav","None","721.263046842","102","166725.828298","159009.128029","159776.277635","160542.706867","161309.307072","162075.970039","162826.002579","163592.70883","167475.498488","168242.740227","169008.953347","169775.616004","170542.299377","171309.01243","172075.732594","172825.767298","172084.541866","Mapping"
"Blocked","m160","done","22","m160done.wav","None","734.692603117","102","166725.828298","173592.144898","159776.277635","160542.706867","161309.307072","162075.970039","162826.002579","163592.70883","167475.498488","168242.740227","169008.953347","169775.616004","170542.299377","171309.01243","172075.732594","172825.767298","172835.361561","Mapping"
"Blocked","m160","done","22","m160cling.wav","None","733.373051742","102","166725.828298","173592.144898","174358.876502","160542.706867","161309.307072","162075.970039","162826.002579","163592.70883","167475.498488","168242.740227","169008.953347","169775.616004","170542.299377","171309.01243","172075.732594","172825.767298","173600.841322","Mapping"
"Blocked","m160","done","22","m160done.wav","None","730.82422791","102","166725.828298","173592.144898","174358.876502","175125.423529","161309.307072","162075.970039","162826.002579","163592.70883","167475.498488","168242.740227","169008.953347","169775.616004","170542.299377","171309.01243","172075.732594","172825.767298","174367.532115","Mapping"
"Blocked","m160","done","22","m160cling.wav","None","730.455384357","102","166725.828298","173592.144898","174358.876502","175125.423529","175892.427823","162075.970039","162826.002579","163592.70883","167475.498488","168242.740227","169008.953347","169775.616004","170542.299377","171309.01243","172075.732594","172825.767298","175134.014524","Mapping"
"Blocked","m160","done","22","m160knife.wav","None","726.826618426","102","166725.828298","173592.144898","174358.876502","175125.423529","175892.427823","176658.853963","162826.002579","163592.70883","167475.498488","168242.740227","169008.953347","169775.616004","170542.299377","171309.01243","172075.732594","172825.767298","175901.844002","Mapping"
"Blocked","m160","done","22","m160done.wav","None","725.349388784","102","166725.828298","173592.144898","174358.876502","175125.423529","175892.427823","176658.853963","177425.753447","163592.70883","167475.498488","168242.740227","169008.953347","169775.616004","170542.299377","171309.01243","172075.732594","172825.767298","176667.502465","Mapping"
"Blocked","m160","done","22","m160park.wav","None","722.420281963","102","166725.828298","173592.144898","174358.876502","175125.423529","175892.427823","176658.853963","177425.753447","178175.748887","167475.498488","168242.740227","169008.953347","169775.616004","170542.299377","171309.01243","172075.732594","172825.767298","177434.554681","Mapping"
"Blocked","m160","tile","18","m160cling.wav","None","737.021295354","102","181309.566777","173592.144898","174358.876502","175125.423529","175892.427823","176658.853963","177425.753447","178175.748887","167475.498488","168242.740227","169008.953347","169775.616004","170542.299377","171309.01243","172075.732594","172825.767298","178184.376984","Mapping"
"Blocked","m160","tile","18","m160done.wav","None","720.272765029","102","181309.566777","173592.144898","174358.876502","175125.423529","175892.427823","176658.853963","177425.753447","178175.748887","182058.780627","168242.740227","169008.953347","169775.616004","170542.299377","171309.01243","172075.732594","172825.767298","181319.160731","Mapping"
"Blocked","m160","tile","18","m160romp.wav","None","735.948773799","102","181309.566777","173592.144898","174358.876502","175125.423529","175892.427823","176658.853963","177425.753447","178175.748887","182058.780627","182825.656614","169008.953347","169775.616004","170542.299377","171309.01243","172075.732594","172825.767298","182067.729336","Mapping"
"Blocked","m160","tile","18","m160dime.wav","None","733.276898973","102","181309.566777","173592.144898","174358.876502","175125.423529","175892.427823","176658.853963","177425.753447","178175.748887","182058.780627","182825.656614","183592.335658","169775.616004","170542.299377","171309.01243","172075.732594","172825.767298","182834.644279","Mapping"
"Blocked","m160","tile","18","m160tile.wav","None","730.622337898","102","181309.566777","173592.144898","174358.876502","175125.423529","175892.427823","176658.853963","177425.753447","178175.748887","182058.780627","182825.656614","183592.335658","184358.657607","170542.299377","171309.01243","172075.732594","172825.767298","183601.693403","Mapping"
"Blocked","m160","tile","18","m160lash.wav","None","729.361838661","102","181309.566777","173592.144898","174358.876502","175125.423529","175892.427823","176658.853963","177425.753447","178175.748887","182058.780627","182825.656614","183592.335658","184358.657607","185125.602849","171309.01243","172075.732594","172825.767298","184367.332698","Mapping"
"Blocked","m160","tile","18","m160knife.wav","None","726.565676276","102","181309.566777","173592.144898","174358.876502","175125.423529","175892.427823","176658.853963","177425.753447","178175.748887","182058.780627","182825.656614","183592.335658","184358.657607","185125.602849","185892.853554","172075.732594","172825.767298","185134.604427","Mapping"
"Blocked","m160","tile","18","m160lash.wav","None","723.255358869","102","181309.566777","173592.144898","174358.876502","175125.423529","175892.427823","176658.853963","177425.753447","178175.748887","182058.780627","182825.656614","183592.335658","184358.657607","185125.602849","185892.853554","186658.740806","172825.767298","185902.394948","Mapping"
"Blocked","m160","tile","18","m160reek.wav","None","722.629901487","102","181309.566777","173592.144898","174358.876502","175125.423529","175892.427823","176658.853963","177425.753447","178175.748887","182058.780627","182825.656614","183592.335658","184358.657607","185125.602849","185892.853554","186658.740806","187426.11518","186668.037025","Mapping"
"Blocked","m160","tile","18","m160cling.wav","None","719.529203605","102","181309.566777","188175.593682","174358.876502","175125.423529","175892.427823","176658.853963","177425.753447","178175.748887","182058.780627","182825.656614","183592.335658","184358.657607","185125.602849","185892.853554","186658.740806","187426.11518","187435.45623","Mapping"
"Blocked","m160","tile","18","m160tile.wav","None","734.735578066","102","181309.566777","188175.593682","188942.231915","175125.423529","175892.427823","176658.853963","177425.753447","178175.748887","182058.780627","182825.656614","183592.335658","184358.657607","185125.602849","185892.853554","186658.740806","187426.11518","188184.570217","Mapping"
"Blocked","m160","tile","18","m160bluff.wav","None","731.917155208","102","181309.566777","188175.593682","188942.231915","189708.926727","175892.427823","176658.853963","177425.753447","178175.748887","182058.780627","182825.656614","183592.335658","184358.657607","185125.602849","185892.853554","186658.740806","187426.11518","188951.576984","Mapping"
"Blocked","m160","tile","18","m160tile.wav","None","729.746141005","102","181309.566777","188175.593682","188942.231915","189708.926727","190475.225797","176658.853963","177425.753447","178175.748887","182058.780627","182825.656614","183592.335658","184358.657607","185125.602849","185892.853554","186658.740806","187426.11518","189718.008999","Mapping"
"Blocked","m160","tile","18","m160cave.wav","None","727.897903649","102","181309.566777","188175.593682","188942.231915","189708.926727","190475.225797","191242.407556","177425.753447","178175.748887","182058.780627","182825.656614","183592.335658","184358.657607","185125.602849","185892.853554","186658.740806","187426.11518","190484.287045","Mapping"
"Blocked","m160","tile","18","m160tile.wav","None","725.121218944","102","181309.566777","188175.593682","188942.231915","189708.926727","190475.225797","191242.407556","192008.746819","178175.748887","182058.780627","182825.656614","183592.335658","184358.657607","185125.602849","185892.853554","186658.740806","187426.11518","191251.444071","Mapping"
"Blocked","m160","tile","18","m160jaw.wav","None","723.334507318","102","181309.566777","188175.593682","188942.231915","189708.926727","190475.225797","191242.407556","192008.746819","192775.367429","182058.780627","182825.656614","183592.335658","184358.657607","185125.602849","185892.853554","186658.740806","187426.11518","192017.593192","Mapping"
"Blocked","m160","done","23","m160cave.wav","None","720.88523698","102","195892.527686","188175.593682","188942.231915","189708.926727","190475.225797","191242.407556","192008.746819","192775.367429","182058.780627","182825.656614","183592.335658","184358.657607","185125.602849","185892.853554","186658.740806","187426.11518","192784.326959","Mapping"
"Blocked","m160","done","23","m160depth.wav","None","719.903612044","102","195892.527686","188175.593682","188942.231915","189708.926727","190475.225797","191242.407556","192008.746819","192775.367429","196641.592514","182825.656614","183592.335658","184358.657607","185125.602849","185892.853554","186658.740806","187426.11518","195902.0765","Mapping"
"Blocked","m160","done","23","m160park.wav","space","399.12745147","102","195892.527686","188175.593682","188942.231915","189708.926727","190475.225797","191242.407556","192008.746819","192775.367429","196641.592514","197408.384715","183592.335658","184358.657607","185125.602849","185892.853554","186658.740806","187426.11518","196650.37427","Mapping"
"Blocked","m160","done","23","m160done.wav","None","733.409843408","102","195892.527686","188175.593682","188942.231915","189708.926727","190475.225797","191242.407556","192008.746819","192775.367429","196641.592514","197408.384715","198175.109208","184358.657607","185125.602849","185892.853554","186658.740806","187426.11518","197417.081139","Mapping"
"Blocked","m160","done","23","m160romp.wav","None","730.816498632","102","195892.527686","188175.593682","188942.231915","189708.926727","190475.225797","191242.407556","192008.746819","192775.367429","196641.592514","197408.384715","198175.109208","198941.775576","185125.602849","185892.853554","186658.740806","187426.11518","198183.953107","Mapping"
"Blocked","m160","done","23","m160done.wav","None","728.472038172","102","195892.527686","188175.593682","188942.231915","189708.926727","190475.225797","191242.407556","192008.746819","192775.367429","196641.592514","197408.384715","198175.109208","198941.775576","199708.445963","185892.853554","186658.740806","187426.11518","198950.586393","Mapping"
"Blocked","m160","done","23","m160romp.wav","None","726.228368236","102","195892.527686","188175.593682","188942.231915","189708.926727","190475.225797","191242.407556","192008.746819","192775.367429","196641.592514","197408.384715","198175.109208","198941.775576","199708.445963","200475.231053","186658.740806","187426.11518","199717.075914","Mapping"
"Blocked","m160","done","23","m160dime.wav","None","723.526503658","102","195892.527686","188175.593682","188942.231915","189708.926727","190475.225797","191242.407556","192008.746819","192775.367429","196641.592514","197408.384715","198175.109208","198941.775576","199708.445963","200475.231053","201242.777018","187426.11518","200484.048982","Mapping"
"Blocked","m160","done","23","m160dime.wav","None","719.339061994","102","195892.527686","188175.593682","188942.231915","189708.926727","190475.225797","191242.407556","192008.746819","192775.367429","196641.592514","197408.384715","198175.109208","198941.775576","199708.445963","200475.231053","201242.777018","201991.610276","201252.562969","Mapping"
"Blocked","m160","done","23","m160done.wav","None","735.885702306","102","195892.527686","202758.384855","188942.231915","189708.926727","190475.225797","191242.407556","192008.746819","192775.367429","196641.592514","197408.384715","198175.109208","198941.775576","199708.445963","200475.231053","201242.777018","201991.610276","202000.373172","Mapping"
"Blocked","m160","done","23","m160depth.wav","None","733.590709744","102","195892.527686","202758.384855","203524.99959","189708.926727","190475.225797","191242.407556","192008.746819","192775.367429","196641.592514","197408.384715","198175.109208","198941.775576","199708.445963","200475.231053","201242.777018","201991.610276","202767.152079","Mapping"
"Blocked","m160","done","23","m160gnash.wav","None","731.393725146","102","195892.527686","202758.384855","203524.99959","204291.660084","190475.225797","191242.407556","192008.746819","192775.367429","196641.592514","197408.384715","198175.109208","198941.775576","199708.445963","200475.231053","201242.777018","201991.610276","203533.877499","Mapping"
"Blocked","m160","done","23","m160done.wav","None","729.235695908","102","195892.527686","202758.384855","203524.99959","204291.660084","205058.301409","191242.407556","192008.746819","192775.367429","196641.592514","197408.384715","198175.109208","198941.775576","199708.445963","200475.231053","201242.777018","201991.610276","204300.377841","Mapping"
"Blocked","m160","done","23","m160lash.wav","None","727.000064682","102","195892.527686","202758.384855","203524.99959","204291.660084","205058.301409","205825.591379","192008.746819","192775.367429","196641.592514","197408.384715","198175.109208","198941.775576","199708.445963","200475.231053","201242.777018","201991.610276","205066.923012","Mapping"
"Blocked","m160","done","23","m160lash.wav","None","723.119013477","102","195892.527686","202758.384855","203524.99959","204291.660084","205058.301409","205825.591379","206592.241051","192775.367429","196641.592514","197408.384715","198175.109208","198941.775576","199708.445963","200475.231053","201242.777018","201991.610276","205835.087324","Mapping"
"Blocked","m160","done","23","m160romp.wav","None","721.528626513","102","195892.527686","202758.384855","203524.99959","204291.660084","205058.301409","205825.591379","206592.241051","207341.50004","196641.592514","197408.384715","198175.109208","198941.775576","199708.445963","200475.231053","201242.777018","201991.610276","206601.053415","Mapping"
"Blocked","m160","cave","9","m160lash.wav","None","736.639157403","102","210475.555685","202758.384855","203524.99959","204291.660084","205058.301409","205825.591379","206592.241051","207341.50004","196641.592514","197408.384715","198175.109208","198941.775576","199708.445963","200475.231053","201242.777018","201991.610276","207350.324153","Mapping"
"Blocked","m160","cave","9","m160bluff.wav","None","720.549474936","102","210475.555685","202758.384855","203524.99959","204291.660084","205058.301409","205825.591379","206592.241051","207341.50004","211224.625769","197408.384715","198175.109208","198941.775576","199708.445963","200475.231053","201242.777018","201991.610276","210485.078529","Mapping"
"Blocked","m160","cave","9","m160cave.wav","None","736.661727075","102","210475.555685","202758.384855","203524.99959","204291.660084","205058.301409","205825.591379","206592.241051","207341.50004","211224.625769","211991.502684","198175.109208","198941.775576","199708.445963","200475.231053","201242.777018","201991.610276","211233.320338","Mapping"
"Blocked","m160","cave","9","m160dime.wav","None","733.898646198","102","210475.555685","202758.384855","203524.99959","204291.660084","205058.301409","205825.591379","206592.241051","207341.50004","211224.625769","211991.502684","212758.142772","198941.775576","199708.445963","200475.231053","201242.777018","201991.610276","212000.436553","Mapping"
"Blocked","m160","cave","9","m160cave.wav","None","731.936633121","102","210475.555685","202758.384855","203524.99959","204291.660084","205058.301409","205825.591379","206592.241051","207341.50004","211224.625769","211991.502684","212758.142772","213524.813777","199708.445963","200475.231053","201242.777018","201991.610276","212766.79653","Mapping"
"Blocked","m160","cave","9","m160cad.wav","None","729.429856641","102","210475.555685","202758.384855","203524.99959","204291.660084","205058.301409","205825.591379","206592.241051","207341.50004","211224.625769","211991.502684","212758.142772","213524.813777","214291.466541","200475.231053","201242.777018","201991.610276","213533.654585","Mapping"
"Blocked","m160","cave","9","m160tile.wav","None","727.271209471","102","210475.555685","202758.384855","203524.99959","204291.660084","205058.301409","205825.591379","206592.241051","207341.50004","211224.625769","211991.502684","212758.142772","213524.813777","214291.466541","215058.690658","201242.777018","201991.610276","214300.126483","Mapping"
"Blocked","m160","cave","9","m160cave.wav","None","723.131998908","102","210475.555685","202758.384855","203524.99959","204291.660084","205058.301409","205825.591379","206592.241051","207341.50004","211224.625769","211991.502684","212758.142772","213524.813777","214291.466541","215058.690658","215824.927275","201991.610276","215068.953971","Mapping"
"Blocked","m160","cave","9","m160bluff.wav","None","722.619389649","102","210475.555685","202758.384855","203524.99959","204291.660084","205058.301409","205825.591379","206592.241051","207341.50004","211224.625769","211991.502684","212758.142772","213524.813777","214291.466541","215058.690658","215824.927275","216575.124295","215833.772102","Mapping"
"Blocked","m160","cave","9","m160gnash.wav","None","736.901954748","102","210475.555685","217341.72079","203524.99959","204291.660084","205058.301409","205825.591379","206592.241051","207341.50004","211224.625769","211991.502684","212758.142772","213524.813777","214291.466541","215058.690658","215824.927275","216575.124295","216583.879153","Mapping"
"Blocked","m160","cave","9","m160cave.wav","None","734.259760706","102","210475.555685","217341.72079","218108.009657","204291.660084","205058.301409","205825.591379","206592.241051","207341.50004","211224.625769","211991.502684","212758.142772","213524.813777","214291.466541","215058.690658","215824.927275","216575.124295","217350.939407","Mapping"
"Blocked","m160","cave","9","m160greet.wav","None","732.857659925","102","210475.555685","217341.72079","218108.009657","218874.725184","205058.301409","205825.591379","206592.241051","207341.50004","211224.625769","211991.502684","212758.142772","213524.813777","214291.466541","215058.690658","215824.927275","216575.124295","218116.698043","Mapping"
"Blocked","m160","cave","9","m160priest.wav","None","730.510417139","102","210475.555685","217341.72079","218108.009657","218874.725184","219641.401445","205825.591379","206592.241051","207341.50004","211224.625769","211991.502684","212758.142772","213524.813777","214291.466541","215058.690658","215824.927275","216575.124295","218883.660289","Mapping"
"Blocked","m160","cave","9","m160dime.wav","None","728.841500124","102","210475.555685","217341.72079","218108.009657","218874.725184","219641.401445","220408.088218","206592.241051","207341.50004","211224.625769","211991.502684","212758.142772","213524.813777","214291.466541","215058.690658","215824.927275","216575.124295","219650.107762","Mapping"
"Blocked","m160","cave","9","m160dime.wav","None","726.550526917","102","210475.555685","217341.72079","218108.009657","218874.725184","219641.401445","220408.088218","221175.341706","207341.50004","211224.625769","211991.502684","212758.142772","213524.813777","214291.466541","215058.690658","215824.927275","216575.124295","220416.756198","Mapping"
"Blocked","m160","cave","9","m160romp.wav","None","723.044502782","102","210475.555685","217341.72079","218108.009657","218874.725184","219641.401445","220408.088218","221175.341706","221941.970664","211224.625769","211991.502684","212758.142772","213524.813777","214291.466541","215058.690658","215824.927275","216575.124295","221184.759122","Mapping"
"Blocked","m160","tile","17","m160depth.wav","None","721.545321867","102","225058.681692","217341.72079","218108.009657","218874.725184","219641.401445","220408.088218","221175.341706","221941.970664","211224.625769","211991.502684","212758.142772","213524.813777","214291.466541","215058.690658","215824.927275","216575.124295","221950.796013","Mapping"
"Blocked","m160","tile","17","m160ball.wav","None","720.531851985","102","225058.681692","217341.72079","218108.009657","218874.725184","219641.401445","220408.088218","221175.341706","221941.970664","225807.727661","211991.502684","212758.142772","213524.813777","214291.466541","215058.690658","215824.927275","216575.124295","225068.085504","Mapping"
"Blocked","m160","tile","17","m160priest.wav","None","736.737783765","102","225058.681692","217341.72079","218108.009657","218874.725184","219641.401445","220408.088218","221175.341706","221941.970664","225807.727661","226574.620652","212758.142772","213524.813777","214291.466541","215058.690658","215824.927275","216575.124295","225816.515909","Mapping"
"Blocked","m160","tile","17","m160depth.wav","None","732.98905883","102","225058.681692","217341.72079","218108.009657","218874.725184","219641.401445","220408.088218","221175.341706","221941.970664","225807.727661","226574.620652","227341.247446","213524.813777","214291.466541","215058.690658","215824.927275","216575.124295","226584.919211","Mapping"
"Blocked","m160","tile","17","m160park.wav","j","306.972504826","102","225058.681692","217341.72079","218108.009657","218874.725184","219641.401445","220408.088218","221175.341706","221941.970664","225807.727661","226574.620652","227341.247446","228107.843013","214291.466541","215058.690658","215824.927275","216575.124295","227349.947889","Mapping"
"Blocked","m160","tile","17","m160priest.wav","space","636.492702179","102","225058.681692","217341.72079","218108.009657","218874.725184","219641.401445","220408.088218","221175.341706","221941.970664","225807.727661","226574.620652","227341.247446","228107.843013","228874.570597","215058.690658","215824.927275","216575.124295","228116.462453","Mapping"
"Blocked","m160","tile","17","m160tile.wav","space","325.470028212","102","225058.681692","217341.72079","218108.009657","218874.725184","219641.401445","220408.088218","221175.341706","221941.970664","225807.727661","226574.620652","227341.247446","228107.843013","228874.570597","229641.384131","215824.927275","216575.124295","228883.464582","Mapping"
"Blocked","m160","tile","17","m160knife.wav","space","494.616830954","102","225058.681692","217341.72079","218108.009657","218874.725184","219641.401445","220408.088218","221175.341706","221941.970664","225807.727661","226574.620652","227341.247446","228107.843013","228874.570597","229641.384131","230408.475303","216575.124295","229650.274097","Mapping"
"Blocked","m160","tile","17","m160tile.wav","None","720.120342448","102","225058.681692","217341.72079","218108.009657","218874.725184","219641.401445","220408.088218","221175.341706","221941.970664","225807.727661","226574.620652","227341.247446","228107.843013","228874.570597","229641.384131","230408.475303","231158.001727","230417.711234","Mapping"
"Blocked","m160","tile","17","m160greet.wav","None","735.561688896","102","225058.681692","231924.763011","218108.009657","218874.725184","219641.401445","220408.088218","221175.341706","221941.970664","225807.727661","226574.620652","227341.247446","228107.843013","228874.570597","229641.384131","230408.475303","231158.001727","231167.028348","Mapping"
"Blocked","m160","tile","17","m160reek.wav","None","733.19898732","102","225058.681692","231924.763011","232691.279121","218874.725184","219641.401445","220408.088218","221175.341706","221941.970664","225807.727661","226574.620652","227341.247446","228107.843013","228874.570597","229641.384131","230408.475303","231158.001727","231934.07809","Mapping"
"Blocked","m160","tile","17","m160cave.wav","None","731.919319369","102","225058.681692","231924.763011","232691.279121","233458.097293","219641.401445","220408.088218","221175.341706","221941.970664","225807.727661","226574.620652","227341.247446","228107.843013","228874.570597","229641.384131","230408.475303","231158.001727","232700.05191","Mapping"
"Blocked","m160","tile","17","m160tile.wav","None","729.280835483","102","225058.681692","231924.763011","232691.279121","233458.097293","234224.459434","220408.088218","221175.341706","221941.970664","225807.727661","226574.620652","227341.247446","228107.843013","228874.570597","229641.384131","230408.475303","231158.001727","233467.182656","Mapping"
"Blocked","m160","tile","17","m160cave.wav","None","727.835450554","102","225058.681692","231924.763011","232691.279121","233458.097293","234224.459434","234991.120236","221175.341706","221941.970664","225807.727661","226574.620652","227341.247446","228107.843013","228874.570597","229641.384131","230408.475303","231158.001727","234233.405051","Mapping"
"Blocked","m160","tile","17","m160tile.wav","None","726.300096372","102","225058.681692","231924.763011","232691.279121","233458.097293","234224.459434","234991.120236","235757.986949","221941.970664","225807.727661","226574.620652","227341.247446","228107.843013","228874.570597","229641.384131","230408.475303","231158.001727","234999.767502","Mapping"
"Blocked","m160","tile","17","m160ball.wav","None","723.826092668","102","225058.681692","231924.763011","232691.279121","233458.097293","234224.459434","234991.120236","235757.986949","236525.065444","225807.727661","226574.620652","227341.247446","228107.843013","228874.570597","229641.384131","230408.475303","231158.001727","235766.834558","Mapping"
"Blocked","m160","done","20","m160lash.wav","None","720.823711483","102","239641.73257","231924.763011","232691.279121","233458.097293","234224.459434","234991.120236","235757.986949","236525.065444","225807.727661","226574.620652","227341.247446","228107.843013","228874.570597","229641.384131","230408.475303","231158.001727","236534.480387","Mapping"
"Blocked","m160","done","20","m160lash.wav","None","719.868366374","102","239641.73257","231924.763011","232691.279121","233458.097293","234224.459434","234991.120236","235757.986949","236525.065444","240390.851812","226574.620652","227341.247446","228107.843013","228874.570597","229641.384131","230408.475303","231158.001727","239651.337963","Mapping"
"Blocked","m160","done","20","m160park.wav","None","736.01648258","102","239641.73257","231924.763011","232691.279121","233458.097293","234224.459434","234991.120236","235757.986949","236525.065444","240390.851812","241157.965863","227341.247446","228107.843013","228874.570597","229641.384131","230408.475303","231158.001727","240399.672215","Mapping"
"Blocked","m160","done","20","m160greet.wav","None","733.228049474","102","239641.73257","231924.763011","232691.279121","233458.097293","234224.459434","234991.120236","235757.986949","236525.065444","240390.851812","241157.965863","241924.309763","228107.843013","228874.570597","229641.384131","230408.475303","231158.001727","241167.106878","Mapping"
"Blocked","m160","done","20","m160done.wav","None","731.737525435","102","239641.73257","231924.763011","232691.279121","233458.097293","234224.459434","234991.120236","235757.986949","236525.065444","240390.851812","241157.965863","241924.309763","242691.068574","228874.570597","229641.384131","230408.475303","231158.001727","241933.15088","Mapping"
"Blocked","m160","done","20","m160jaw.wav","None","729.453663109","102","239641.73257","231924.763011","232691.279121","233458.097293","234224.459434","234991.120236","235757.986949","236525.065444","240390.851812","241157.965863","241924.309763","242691.068574","243457.943015","229641.384131","230408.475303","231158.001727","242700.05933","Mapping"
"Blocked","m160","done","20","m160depth.wav","None","726.94997862","102","239641.73257","231924.763011","232691.279121","233458.097293","234224.459434","234991.120236","235757.986949","236525.065444","240390.851812","241157.965863","241924.309763","242691.068574","243457.943015","244224.263418","230408.475303","231158.001727","243467.040746","Mapping"
"Blocked","m160","done","20","m160done.wav","None","725.593017414","102","239641.73257","231924.763011","232691.279121","233458.097293","234224.459434","234991.120236","235757.986949","236525.065444","240390.851812","241157.965863","241924.309763","242691.068574","243457.943015","244224.263418","244991.615223","231158.001727","244233.137307","Mapping"
"Blocked","m160","done","20","m160greet.wav","None","722.074626479","102","239641.73257","231924.763011","232691.279121","233458.097293","234224.459434","234991.120236","235757.986949","236525.065444","240390.851812","241157.965863","241924.309763","242691.068574","243457.943015","244224.263418","244991.615223","245758.449781","245000.981316","Mapping"
"Blocked","m160","done","20","m160ball.wav","None","719.149229582","102","239641.73257","246507.361878","232691.279121","233458.097293","234224.459434","234991.120236","235757.986949","236525.065444","240390.851812","241157.965863","241924.309763","242691.068574","243457.943015","244224.263418","244991.615223","245758.449781","245768.482451","Mapping"
"Blocked","m160","done","20","m160done.wav","None","736.285154242","102","239641.73257","246507.361878","247274.508392","233458.097293","234224.459434","234991.120236","235757.986949","236525.065444","240390.851812","241157.965863","241924.309763","242691.068574","243457.943015","244224.263418","244991.615223","245758.449781","246516.178261","Mapping"
"Blocked","m160","done","20","m160lash.wav","None","733.517435612","102","239641.73257","246507.361878","247274.508392","248041.180943","234224.459434","234991.120236","235757.986949","236525.065444","240390.851812","241157.965863","241924.309763","242691.068574","243457.943015","244224.263418","244991.615223","245758.449781","247283.490491","Mapping"
"Blocked","m160","done","20","m160priest.wav","None","731.666106498","102","239641.73257","246507.361878","247274.508392","248041.180943","248807.868334","234991.120236","235757.986949","236525.065444","240390.851812","241157.965863","241924.309763","242691.068574","243457.943015","244224.263418","244991.615223","245758.449781","248050.02175","Mapping"
"Blocked","m160","done","20","m160done.wav","None","728.809037013","102","239641.73257","246507.361878","247274.508392","248041.180943","248807.868334","249574.185645","235757.986949","236525.065444","240390.851812","241157.965863","241924.309763","242691.068574","243457.943015","244224.263418","244991.615223","245758.449781","248817.402617","Mapping"
"Blocked","m160","done","20","m160priest.wav","None","728.583340533","102","239641.73257","246507.361878","247274.508392","248041.180943","248807.868334","249574.185645","250340.818932","236525.065444","240390.851812","241157.965863","241924.309763","242691.068574","243457.943015","244224.263418","244991.615223","245758.449781","249583.047477","Mapping"
"Blocked","m160","done","20","m160ball.wav","None","726.679761196","102","239641.73257","246507.361878","247274.508392","248041.180943","248807.868334","249574.185645","250340.818932","251108.346038","240390.851812","241157.965863","241924.309763","242691.068574","243457.943015","244224.263418","244991.615223","245758.449781","250349.519066","Mapping"
"Blocked","m160","ball","4","m160jaw.wav","None","723.269271664","102","254224.813437","246507.361878","247274.508392","248041.180943","248807.868334","249574.185645","250340.818932","251108.346038","240390.851812","241157.965863","241924.309763","242691.068574","243457.943015","244224.263418","244991.615223","245758.449781","251117.596191","Mapping"
"Blocked","m160","ball","4","m160ball.wav","None","720.478983363","102","254224.813437","246507.361878","247274.508392","248041.180943","248807.868334","249574.185645","250340.818932","251108.346038","254974.117566","241157.965863","241924.309763","242691.068574","243457.943015","244224.263418","244991.615223","245758.449781","254234.461805","Mapping"
"Blocked","m160","ball","4","m160tile.wav","space","241.140255472","102","254224.813437","246507.361878","247274.508392","248041.180943","248807.868334","249574.185645","250340.818932","251108.346038","254974.117566","255741.424231","241924.309763","242691.068574","243457.943015","244224.263418","244991.615223","245758.449781","254983.301865","Mapping"
"Blocked","m160","ball","4","m160ball.wav","space","378.046167782","102","254224.813437","246507.361878","247274.508392","248041.180943","248807.868334","249574.185645","250340.818932","251108.346038","254974.117566","255741.424231","256507.701968","242691.068574","243457.943015","244224.263418","244991.615223","245758.449781","255750.391181","Mapping"
"Blocked","m160","ball","4","m160gnash.wav","space","187.675552443","102","254224.813437","246507.361878","247274.508392","248041.180943","248807.868334","249574.185645","250340.818932","251108.346038","254974.117566","255741.424231","256507.701968","257274.533125","243457.943015","244224.263418","244991.615223","245758.449781","256516.756105","Mapping"
"Blocked","m160","ball","4","m160done.wav","None","725.536438636","102","254224.813437","246507.361878","247274.508392","248041.180943","248807.868334","249574.185645","250340.818932","251108.346038","254974.117566","255741.424231","256507.701968","257274.533125","258041.504029","244224.263418","244991.615223","245758.449781","257284.48201","Mapping"
"Blocked","m160","ball","4","m160ball.wav","j","156.994750025","102","254224.813437","246507.361878","247274.508392","248041.180943","248807.868334","249574.185645","250340.818932","251108.346038","254974.117566","255741.424231","256507.701968","257274.533125","258041.504029","258808.084446","244991.615223","245758.449781","258051.4053","Mapping"
"Blocked","m160","ball","4","m160cling.wav","None","720.781973097","102","254224.813437","246507.361878","247274.508392","248041.180943","248807.868334","249574.185645","250340.818932","251108.346038","254974.117566","255741.424231","256507.701968","257274.533125","258041.504029","258808.084446","259557.295823","245758.449781","258817.535871","Mapping"
"Blocked","m160","ball","4","m160done.wav","f","202.224624809","102","254224.813437","246507.361878","247274.508392","248041.180943","248807.868334","249574.185645","250340.818932","251108.346038","254974.117566","255741.424231","256507.701968","257274.533125","258041.504029","258808.084446","259557.295823","260324.309701","259566.142196","Mapping"
"Blocked","m160","ball","4","m160depth.wav","f","450.980125461","102","254224.813437","261090.643708","247274.508392","248041.180943","248807.868334","249574.185645","250340.818932","251108.346038","254974.117566","255741.424231","256507.701968","257274.533125","258041.504029","258808.084446","259557.295823","260324.309701","260333.374969","Mapping"
"Blocked","m160","ball","4","m160jolt.wav","space","701.010965277","102","254224.813437","261090.643708","261857.251024","248041.180943","248807.868334","249574.185645","250340.818932","251108.346038","254974.117566","255741.424231","256507.701968","257274.533125","258041.504029","258808.084446","259557.295823","260324.309701","261099.312306","Mapping"
"Blocked","m160","ball","4","m160ball.wav","space","334.387201816","102","254224.813437","261090.643708","261857.251024","262624.14989","248807.868334","249574.185645","250340.818932","251108.346038","254974.117566","255741.424231","256507.701968","257274.533125","258041.504029","258808.084446","259557.295823","260324.309701","261865.914366","Mapping"
"Blocked","m160","ball","4","m160greet.wav","None","724.177004071","102","254224.813437","261090.643708","261857.251024","262624.14989","263391.636803","249574.185645","250340.818932","251108.346038","254974.117566","255741.424231","256507.701968","257274.533125","258041.504029","258808.084446","259557.295823","260324.309701","262633.073556","Mapping"
"Blocked","m160","ball","4","m160park.wav","None","721.013853326","102","254224.813437","261090.643708","261857.251024","262624.14989","263391.636803","264157.580633","250340.818932","251108.346038","254974.117566","255741.424231","256507.701968","257274.533125","258041.504029","258808.084446","259557.295823","260324.309701","263400.96023","Mapping"
"Blocked","m160","ball","4","m160jaw.wav","None","720.600797562","102","254224.813437","261090.643708","261857.251024","262624.14989","263391.636803","264157.580633","264907.335536","251108.346038","254974.117566","255741.424231","256507.701968","257274.533125","258041.504029","258808.084446","259557.295823","260324.309701","264166.515739","Mapping"
"Blocked","m160","ball","4","m160tile.wav","None","735.55303202","102","254224.813437","261090.643708","261857.251024","262624.14989","263391.636803","264157.580633","264907.335536","265673.831549","254974.117566","255741.424231","256507.701968","257274.533125","258041.504029","258808.084446","259557.295823","260324.309701","264916.34979","Mapping"
"Blocked","m160","cave","10","m160depth.wav","None","733.955534175","102","268807.699835","261090.643708","261857.251024","262624.14989","263391.636803","264157.580633","264907.335536","265673.831549","254974.117566","255741.424231","256507.701968","257274.533125","258041.504029","258808.084446","259557.295823","260324.309701","265682.841166","Mapping"
"Blocked","m160","cave","10","m160cave.wav","None","720.509591745","102","268807.699835","261090.643708","261857.251024","262624.14989","263391.636803","264157.580633","264907.335536","265673.831549","269557.268306","255741.424231","256507.701968","257274.533125","258041.504029","258808.084446","259557.295823","260324.309701","268817.23721","Mapping"
"Blocked","m160","cave","10","m160done.wav","None","736.183126923","102","268807.699835","261090.643708","261857.251024","262624.14989","263391.636803","264157.580633","264907.335536","265673.831549","269557.268306","270323.95848","256507.701968","257274.533125","258041.504029","258808.084446","259557.295823","260324.309701","269566.279159","Mapping"
"Blocked","m160","cave","10","m160knife.wav","None","737.224113196","102","268807.699835","261090.643708","261857.251024","262624.14989","263391.636803","264157.580633","264907.335536","265673.831549","269557.268306","270323.95848","271090.687301","257274.533125","258041.504029","258808.084446","259557.295823","260324.309701","270332.620277","Mapping"
"Blocked","m160","cave","10","m160reek.wav","None","734.626749065","102","268807.699835","261090.643708","261857.251024","262624.14989","263391.636803","264157.580633","264907.335536","265673.831549","269557.268306","270323.95848","271090.687301","271857.449513","258041.504029","258808.084446","259557.295823","260324.309701","271099.856142","Mapping"
"Blocked","m160","cave","10","m160gnash.wav","None","732.884558151","102","268807.699835","261090.643708","261857.251024","262624.14989","263391.636803","264157.580633","264907.335536","265673.831549","269557.268306","270323.95848","271090.687301","271857.449513","272624.051882","258808.084446","259557.295823","260324.309701","271866.518799","Mapping"
"Blocked","m160","cave","10","m160greet.wav","None","731.299427105","102","268807.699835","261090.643708","261857.251024","262624.14989","263391.636803","264157.580633","264907.335536","265673.831549","269557.268306","270323.95848","271090.687301","271857.449513","272624.051882","273390.735563","259557.295823","260324.309701","272633.01976","Mapping"
"Blocked","m160","cave","10","m160cave.wav","None","729.183445685","102","268807.699835","261090.643708","261857.251024","262624.14989","263391.636803","264157.580633","264907.335536","265673.831549","269557.268306","270323.95848","271090.687301","271857.449513","272624.051882","273390.735563","274157.126458","260324.309701","273399.883998","Mapping"
"Blocked","m160","cave","10","m160ball.wav","None","727.847199189","102","268807.699835","261090.643708","261857.251024","262624.14989","263391.636803","264157.580633","264907.335536","265673.831549","269557.268306","270323.95848","271090.687301","271857.449513","272624.051882","273390.735563","274157.126458","274923.734701","274165.951498","Mapping"
"Blocked","m160","cave","10","m160bluff.wav","None","726.011638064","102","268807.699835","275690.597703","261857.251024","262624.14989","263391.636803","264157.580633","264907.335536","265673.831549","269557.268306","270323.95848","271090.687301","271857.449513","272624.051882","273390.735563","274157.126458","274923.734701","274932.556649","Mapping"
"Blocked","m160","cave","10","m160cave.wav","None","723.868449219","102","268807.699835","275690.597703","276457.108247","262624.14989","263391.636803","264157.580633","264907.335536","265673.831549","269557.268306","270323.95848","271090.687301","271857.449513","272624.051882","273390.735563","274157.126458","274923.734701","275699.524461","Mapping"
"Blocked","m160","cave","10","m160park.wav","None","722.302796086","102","268807.699835","275690.597703","276457.108247","277207.784486","263391.636803","264157.580633","264907.335536","265673.831549","269557.268306","270323.95848","271090.687301","271857.449513","272624.051882","273390.735563","274157.126458","274923.734701","276466.006252","Mapping"
"Blocked","m160","cave","10","m160jaw.wav","None","735.877663828","102","268807.699835","275690.597703","276457.108247","277207.784486","277973.877956","264157.580633","264907.335536","265673.831549","269557.268306","270323.95848","271090.687301","271857.449513","272624.051882","273390.735563","274157.126458","274923.734701","277217.07947","Mapping"
"Blocked","m160","cave","10","m160cave.wav","None","734.863575781","102","268807.699835","275690.597703","276457.108247","277207.784486","277973.877956","278740.92368","264907.335536","265673.831549","269557.268306","270323.95848","271090.687301","271857.449513","272624.051882","273390.735563","274157.126458","274923.734701","277982.917253","Mapping"
"Blocked","m160","cave","10","m160park.wav","None","732.696271734","102","268807.699835","275690.597703","276457.108247","277207.784486","277973.877956","278740.92368","279507.479054","265673.831549","269557.268306","270323.95848","271090.687301","271857.449513","272624.051882","273390.735563","274157.126458","274923.734701","278749.94659","Mapping"
"Blocked","m160","cave","10","m160priest.wav","None","730.455693556","102","268807.699835","275690.597703","276457.108247","277207.784486","277973.877956","278740.92368","279507.479054","280273.617354","269557.268306","270323.95848","271090.687301","271857.449513","272624.051882","273390.735563","274157.126458","274923.734701","279516.995715","Mapping"
"Blocked","m160","ball","3","m160park.wav","None","730.050676502","102","283407.601271","275690.597703","276457.108247","277207.784486","277973.877956","278740.92368","279507.479054","280273.617354","269557.268306","270323.95848","271090.687301","271857.449513","272624.051882","273390.735563","274157.126458","274923.734701","280282.441157","Mapping"
"Blocked","m160","ball","3","m160greet.wav","None","720.680564409","102","283407.601271","275690.597703","276457.108247","277207.784486","277973.877956","278740.92368","279507.479054","280273.617354","284157.26033","270323.95848","271090.687301","271857.449513","272624.051882","273390.735563","274157.126458","274923.734701","283416.962726","Mapping"
"Blocked","m160","ball","3","m160tile.wav","None","736.211570911","102","283407.601271","275690.597703","276457.108247","277207.784486","277973.877956","278740.92368","279507.479054","280273.617354","284157.26033","284923.850332","271090.687301","271857.449513","272624.051882","273390.735563","274157.126458","274923.734701","284166.308902","Mapping"
"Blocked","m160","ball","3","m160depth.wav","None","734.208437614","102","283407.601271","275690.597703","276457.108247","277207.784486","277973.877956","278740.92368","279507.479054","280273.617354","284157.26033","284923.850332","285690.113538","271857.449513","272624.051882","273390.735563","274157.126458","274923.734701","284933.145006","Mapping"
"Blocked","m160","ball","3","m160park.wav","None","733.431176282","102","283407.601271","275690.597703","276457.108247","277207.784486","277973.877956","278740.92368","279507.479054","280273.617354","284157.26033","284923.850332","285690.113538","286456.885643","272624.051882","273390.735563","274157.126458","274923.734701","285698.776571","Mapping"
"Blocked","m160","ball","3","m160done.wav","None","731.440410018","102","283407.601271","275690.597703","276457.108247","277207.784486","277973.877956","278740.92368","279507.479054","280273.617354","284157.26033","284923.850332","285690.113538","286456.885643","287223.802441","273390.735563","274157.126458","274923.734701","286465.552386","Mapping"
"Blocked","m160","ball","3","m160jolt.wav","None","728.923740331","102","283407.601271","275690.597703","276457.108247","277207.784486","277973.877956","278740.92368","279507.479054","280273.617354","284157.26033","284923.850332","285690.113538","286456.885643","287223.802441","287990.385023","274157.126458","274923.734701","287232.853177","Mapping"
"Blocked","m160","ball","3","m160ball.wav","None","727.298416896","102","283407.601271","275690.597703","276457.108247","277207.784486","277973.877956","278740.92368","279507.479054","280273.617354","284157.26033","284923.850332","285690.113538","286456.885643","287223.802441","287990.385023","288756.923393","274923.734701","287999.601785","Mapping"
"Blocked","m160","ball","3","m160lash.wav","None","726.295458851","102","283407.601271","275690.597703","276457.108247","277207.784486","277973.877956","278740.92368","279507.479054","280273.617354","284157.26033","284923.850332","285690.113538","286456.885643","287223.802441","287990.385023","288756.923393","289524.294985","288765.685361","Mapping"
"Blocked","m160","ball","3","m160ball.wav","right","690.054485574","102","283407.601271","290290.767501","276457.108247","277207.784486","277973.877956","278740.92368","279507.479054","280273.617354","284157.26033","284923.850332","285690.113538","286456.885643","287223.802441","287990.385023","288756.923393","289524.294985","289533.763723","Mapping"
"Blocked","m160","ball","3","m160knife.wav","None","720.207220176","102","283407.601271","290290.767501","291040.237964","277207.784486","277973.877956","278740.92368","279507.479054","280273.617354","284157.26033","284923.850332","285690.113538","286456.885643","287223.802441","287990.385023","288756.923393","289524.294985","290300.174714","Mapping"
"Blocked","m160","ball","3","m160ball.wav","None","735.61115656","102","283407.601271","290290.767501","291040.237964","291806.976679","277973.877956","278740.92368","279507.479054","280273.617354","284157.26033","284923.850332","285690.113538","286456.885643","287223.802441","287990.385023","288756.923393","289524.294985","291049.657235","Mapping"
"Blocked","m160","ball","3","m160tile.wav","num_add","575.770158088","102","283407.601271","290290.767501","291040.237964","291806.976679","292573.386433","278740.92368","279507.479054","280273.617354","284157.26033","284923.850332","285690.113538","286456.885643","287223.802441","287990.385023","288756.923393","289524.294985","291816.042874","Mapping"
"Blocked","m160","ball","3","m160ball.wav","None","731.697333045","102","283407.601271","290290.767501","291040.237964","291806.976679","292573.386433","293340.113708","279507.479054","280273.617354","284157.26033","284923.850332","285690.113538","286456.885643","287223.802441","287990.385023","288756.923393","289524.294985","292582.261249","Mapping"
"Blocked","m160","ball","3","m160romp.wav","None","730.030889623","102","283407.601271","290290.767501","291040.237964","291806.976679","292573.386433","293340.113708","294107.086775","280273.617354","284157.26033","284923.850332","285690.113538","286456.885643","287223.802441","287990.385023","288756.923393","289524.294985","293348.76561","Mapping"
"Blocked","m160","ball","3","m160dime.wav","None","727.193607017","102","283407.601271","290290.767501","291040.237964","291806.976679","292573.386433","293340.113708","294107.086775","294873.302059","284157.26033","284923.850332","285690.113538","286456.885643","287223.802441","287990.385023","288756.923393","289524.294985","294116.512539","Mapping"
"Blocked","m160","done","19","m160greet.wav","space","213.694022968","102","298007.585564","290290.767501","291040.237964","291806.976679","292573.386433","293340.113708","294107.086775","294873.302059","284157.26033","284923.850332","285690.113538","286456.885643","287223.802441","287990.385023","288756.923393","289524.294985","294882.031565","Mapping"
"Blocked","m160","done","19","m160jolt.wav","None","719.656891888","102","298007.585564","290290.767501","291040.237964","291806.976679","292573.386433","293340.113708","294107.086775","294873.302059","298756.838061","284923.850332","285690.113538","286456.885643","287223.802441","287990.385023","288756.923393","289524.294985","298017.480034","Mapping"
"Blocked","m160","done","19","m160done.wav","None","735.481303884","102","298007.585564","290290.767501","291040.237964","291806.976679","292573.386433","293340.113708","294107.086775","294873.302059","298756.838061","299523.626552","285690.113538","286456.885643","287223.802441","287990.385023","288756.923393","289524.294985","298766.549191","Mapping"
"Blocked","m160","done","19","m160jaw.wav","None","734.284803504","102","298007.585564","290290.767501","291040.237964","291806.976679","292573.386433","293340.113708","294107.086775","294873.302059","298756.838061","299523.626552","300289.879555","286456.885643","287223.802441","287990.385023","288756.923393","289524.294985","299532.641115","Mapping"
"Blocked","m160","done","19","m160gnash.wav","None","733.301632805","102","298007.585564","290290.767501","291040.237964","291806.976679","292573.386433","293340.113708","294107.086775","294873.302059","298756.838061","299523.626552","300289.879555","301056.90611","287223.802441","287990.385023","288756.923393","289524.294985","300298.613698","Mapping"
"Blocked","m160","done","19","m160tile.wav","None","730.838449905","102","298007.585564","290290.767501","291040.237964","291806.976679","292573.386433","293340.113708","294107.086775","294873.302059","298756.838061","299523.626552","300289.879555","301056.90611","301823.543106","287990.385023","288756.923393","289524.294985","301066.004768","Mapping"
"Blocked","m160","done","19","m160lash.wav","None","728.847992839","102","298007.585564","290290.767501","291040.237964","291806.976679","292573.386433","293340.113708","294107.086775","294873.302059","298756.838061","299523.626552","300289.879555","301056.90611","301823.543106","302589.861345","288756.923393","289524.294985","301832.923421","Mapping"
"Blocked","m160","done","19","m160done.wav","None","728.199038422","102","298007.585564","290290.767501","291040.237964","291806.976679","292573.386433","293340.113708","294107.086775","294873.302059","298756.838061","299523.626552","300289.879555","301056.90611","301823.543106","302589.861345","303357.24314","289524.294985","302598.604145","Mapping"
"Blocked","m160","done","19","m160romp.wav","None","725.163575727","102","298007.585564","290290.767501","291040.237964","291806.976679","292573.386433","293340.113708","294107.086775","294873.302059","298756.838061","299523.626552","300289.879555","301056.90611","301823.543106","302589.861345","303357.24314","304123.477593","303366.52792","Mapping"
"Blocked","m160","done","19","m160done.wav","None","724.299436901","102","298007.585564","304890.024929","291040.237964","291806.976679","292573.386433","293340.113708","294107.086775","294873.302059","298756.838061","299523.626552","300289.879555","301056.90611","301823.543106","302589.861345","303357.24314","304123.477593","304132.257493","Mapping"
"Blocked","m160","done","19","m160tile.wav","None","722.581361188","102","298007.585564","304890.024929","305657.194012","291806.976679","292573.386433","293340.113708","294107.086775","294873.302059","298756.838061","299523.626552","300289.879555","301056.90611","301823.543106","302589.861345","303357.24314","304123.477593","304899.029289","Mapping"
"Blocked","m160","done","19","m160done.wav","None","720.907497453","102","298007.585564","304890.024929","305657.194012","306407.120506","292573.386433","293340.113708","294107.086775","294873.302059","298756.838061","299523.626552","300289.879555","301056.90611","301823.543106","302589.861345","303357.24314","304123.477593","305666.602153","Mapping"
"Blocked","m160","done","19","m160park.wav","None","735.975053394","102","298007.585564","304890.024929","305657.194012","306407.120506","307173.405045","293340.113708","294107.086775","294873.302059","298756.838061","299523.626552","300289.879555","301056.90611","301823.543106","302589.861345","303357.24314","304123.477593","306416.416108","Mapping"
"Blocked","m160","done","19","m160priest.wav","None","734.968694625","102","298007.585564","304890.024929","305657.194012","306407.120506","307173.405045","307940.094601","294107.086775","294873.302059","298756.838061","299523.626552","300289.879555","301056.90611","301823.543106","302589.861345","303357.24314","304123.477593","307182.476805","Mapping"
"Blocked","m160","done","19","m160cave.wav","None","733.08737576","102","298007.585564","304890.024929","305657.194012","306407.120506","307173.405045","307940.094601","308706.793432","294873.302059","298756.838061","299523.626552","300289.879555","301056.90611","301823.543106","302589.861345","303357.24314","304123.477593","307949.310126","Mapping"
"Blocked","m160","done","19","m160gnash.wav","None","731.344257249","102","298007.585564","304890.024929","305657.194012","306407.120506","307173.405045","307940.094601","308706.793432","309473.483297","298756.838061","299523.626552","300289.879555","301056.90611","301823.543106","302589.861345","303357.24314","304123.477593","308716.217958","Mapping"
"Blocked","m160","done","24","m160bluff.wav","None","729.522299487","102","312606.987376","304890.024929","305657.194012","306407.120506","307173.405045","307940.094601","308706.793432","309473.483297","298756.838061","299523.626552","300289.879555","301056.90611","301823.543106","302589.861345","303357.24314","304123.477593","309482.974605","Mapping"
"Blocked","m160","done","24","m160depth.wav","None","720.553494291","102","312606.987376","304890.024929","305657.194012","306407.120506","307173.405045","307940.094601","308706.793432","309473.483297","313356.624484","299523.626552","300289.879555","301056.90611","301823.543106","302589.861345","303357.24314","304123.477593","312616.385623","Mapping"
"Blocked","m160","done","24","m160knife.wav","None","735.601572087","102","312606.987376","304890.024929","305657.194012","306407.120506","307173.405045","307940.094601","308706.793432","309473.483297","313356.624484","314122.978896","300289.879555","301056.90611","301823.543106","302589.861345","303357.24314","304123.477593","313366.241626","Mapping"
"Blocked","m160","done","24","m160tile.wav","None","735.032384517","102","312606.987376","304890.024929","305657.194012","306407.120506","307173.405045","307940.094601","308706.793432","309473.483297","313356.624484","314122.978896","314889.60569","301056.90611","301823.543106","302589.861345","303357.24314","304123.477593","314131.849075","Mapping"
"Blocked","m160","done","24","m160done.wav","None","733.598748222","102","312606.987376","304890.024929","305657.194012","306407.120506","307173.405045","307940.094601","308706.793432","309473.483297","313356.624484","314122.978896","314889.60569","315656.635336","301823.543106","302589.861345","303357.24314","304123.477593","314898.328084","Mapping"
"Blocked","m160","done","24","m160cling.wav","None","731.441337615","102","312606.987376","304890.024929","305657.194012","306407.120506","307173.405045","307940.094601","308706.793432","309473.483297","313356.624484","314122.978896","314889.60569","315656.635336","316422.977072","302589.861345","303357.24314","304123.477593","315665.763675","Mapping"
"Blocked","m160","done","24","m160done.wav","None","730.390148936","102","312606.987376","304890.024929","305657.194012","306407.120506","307173.405045","307940.094601","308706.793432","309473.483297","313356.624484","314122.978896","314889.60569","315656.635336","316422.977072","317189.911184","303357.24314","304123.477593","316431.897955","Mapping"
"Blocked","m160","done","24","m160park.wav","None","728.170285001","102","312606.987376","304890.024929","305657.194012","306407.120506","307173.405045","307940.094601","308706.793432","309473.483297","313356.624484","314122.978896","314889.60569","315656.635336","316422.977072","317189.911184","317956.614343","304123.477593","317199.204621","Mapping"
"Blocked","m160","done","24","m160done.wav","None","726.756745251","102","312606.987376","304890.024929","305657.194012","306407.120506","307173.405045","307940.094601","308706.793432","309473.483297","313356.624484","314122.978896","314889.60569","315656.635336","316422.977072","317189.911184","317956.614343","318722.923925","317965.665698","Mapping"
"Blocked","m160","done","24","m160bluff.wav","None","725.607239176","102","312606.987376","319490.485968","305657.194012","306407.120506","307173.405045","307940.094601","308706.793432","309473.483297","313356.624484","314122.978896","314889.60569","315656.635336","316422.977072","317189.911184","317956.614343","318722.923925","318731.837698","Mapping"
"Blocked","m160","done","24","m160cling.wav","None","722.504067933","102","312606.987376","319490.485968","320256.784728","306407.120506","307173.405045","307940.094601","308706.793432","309473.483297","313356.624484","314122.978896","314889.60569","315656.635336","316422.977072","317189.911184","317956.614343","318722.923925","319500.061989","Mapping"
"Blocked","m160","done","24","m160gnash.wav","None","721.431545913","102","312606.987376","319490.485968","320256.784728","321023.620523","307173.405045","307940.094601","308706.793432","309473.483297","313356.624484","314122.978896","314889.60569","315656.635336","316422.977072","317189.911184","317956.614343","318722.923925","320266.438971","Mapping"
"Blocked","m160","done","24","m160depth.wav","None","719.328550156","102","312606.987376","319490.485968","320256.784728","321023.620523","321773.060379","307940.094601","308706.793432","309473.483297","313356.624484","314122.978896","314889.60569","315656.635336","316422.977072","317189.911184","317956.614343","318722.923925","321033.372155","Mapping"
"Blocked","m160","done","24","m160cave.wav","None","735.75801379","102","312606.987376","319490.485968","320256.784728","321023.620523","321773.060379","322539.851034","308706.793432","309473.483297","313356.624484","314122.978896","314889.60569","315656.635336","316422.977072","317189.911184","317956.614343","318722.923925","321782.067522","Mapping"
"Blocked","m160","done","24","m160done.wav","None","734.038701747","102","312606.987376","319490.485968","320256.784728","321023.620523","321773.060379","322539.851034","323306.055806","309473.483297","313356.624484","314122.978896","314889.60569","315656.635336","316422.977072","317189.911184","317956.614343","318722.923925","322548.876418","Mapping"
"Blocked","m160","done","24","m160greet.wav","None","733.28029993","102","312606.987376","319490.485968","320256.784728","321023.620523","321773.060379","322539.851034","323306.055806","324072.804414","313356.624484","314122.978896","314889.60569","315656.635336","316422.977072","317189.911184","317956.614343","318722.923925","323314.778819","Mapping"
"Blocked","m160","cave","8","m160jolt.wav","None","731.701352401","102","327206.880155","319490.485968","320256.784728","321023.620523","321773.060379","322539.851034","323306.055806","324072.804414","313356.624484","314122.978896","314889.60569","315656.635336","316422.977072","317189.911184","317956.614343","318722.923925","324081.620179","Mapping"
"Blocked","m160","cave","8","m160cave.wav","None","720.257306471","102","327206.880155","319490.485968","320256.784728","321023.620523","321773.060379","322539.851034","323306.055806","324072.804414","327956.257866","314122.978896","314889.60569","315656.635336","316422.977072","317189.911184","317956.614343","318722.923925","327216.251504","Mapping"
"Blocked","m160","cave","8","m160greet.wav","None","736.756334081","102","327206.880155","319490.485968","320256.784728","321023.620523","321773.060379","322539.851034","323306.055806","324072.804414","327956.257866","328722.730074","314889.60569","315656.635336","316422.977072","317189.911184","317956.614343","318722.923925","327965.019217","Mapping"
"Blocked","m160","cave","8","m160jolt.wav","None","735.326407943","102","327206.880155","319490.485968","320256.784728","321023.620523","321773.060379","322539.851034","323306.055806","324072.804414","327956.257866","328722.730074","329489.338935","315656.635336","316422.977072","317189.911184","317956.614343","318722.923925","328731.537491","Mapping"
"Blocked","m160","cave","8","m160cad.wav","None","734.173191944","102","327206.880155","319490.485968","320256.784728","321023.620523","321773.060379","322539.851034","323306.055806","324072.804414","327956.257866","328722.730074","329489.338935","330256.03622","316422.977072","317189.911184","317956.614343","318722.923925","329498.121618","Mapping"
"Blocked","m160","cave","8","m160cave.wav","None","732.652987586","102","327206.880155","319490.485968","320256.784728","321023.620523","321773.060379","322539.851034","323306.055806","324072.804414","327956.257866","328722.730074","329489.338935","330256.03622","331023.014544","317189.911184","317956.614343","318722.923925","330264.72677","Mapping"
"Blocked","m160","cave","8","m160romp.wav","None","730.369125027","102","327206.880155","319490.485968","320256.784728","321023.620523","321773.060379","322539.851034","323306.055806","324072.804414","327956.257866","328722.730074","329489.338935","330256.03622","331023.014544","331789.301556","317956.614343","318722.923925","331032.029416","Mapping"
"Blocked","m160","cave","8","m160cave.wav","None","729.494473897","102","327206.880155","319490.485968","320256.784728","321023.620523","321773.060379","322539.851034","323306.055806","324072.804414","327956.257866","328722.730074","329489.338935","330256.03622","331023.014544","331789.301556","332555.966996","318722.923925","331798.057032","Mapping"
"Blocked","m160","cave","8","m160tile.wav","None","728.185434593","102","327206.880155","319490.485968","320256.784728","321023.620523","321773.060379","322539.851034","323306.055806","324072.804414","327956.257866","328722.730074","329489.338935","330256.03622","331023.014544","331789.301556","332555.966996","333322.955213","332564.888498","Mapping"
"Blocked","m160","cave","8","m160dime.wav","None","725.981029915","102","327206.880155","334090.390495","320256.784728","321023.620523","321773.060379","322539.851034","323306.055806","324072.804414","327956.257866","328722.730074","329489.338935","330256.03622","331023.014544","331789.301556","332555.966996","333322.955213","333332.010896","Mapping"
"Blocked","m160","cave","8","m160romp.wav","None","723.596686032","102","327206.880155","334090.390495","334856.739033","321023.620523","321773.060379","322539.851034","323306.055806","324072.804414","327956.257866","328722.730074","329489.338935","330256.03622","331023.014544","331789.301556","332555.966996","333322.955213","334099.580359","Mapping"
"Blocked","m160","cave","8","m160cave.wav","None","721.566036344","102","327206.880155","334090.390495","334856.739033","335623.266273","321773.060379","322539.851034","323306.055806","324072.804414","327956.257866","328722.730074","329489.338935","330256.03622","331023.014544","331789.301556","332555.966996","333322.955213","334866.842195","Mapping"
"Blocked","m160","cave","8","m160gnash.wav","None","720.507118152","102","327206.880155","334090.390495","334856.739033","335623.266273","336389.967577","322539.851034","323306.055806","324072.804414","327956.257866","328722.730074","329489.338935","330256.03622","331023.014544","331789.301556","332555.966996","333322.955213","335632.956997","Mapping"
"Blocked","m160","cave","8","m160jolt.wav","None","719.159432221","102","327206.880155","334090.390495","334856.739033","335623.266273","336389.967577","337139.373424","323306.055806","324072.804414","327956.257866","328722.730074","329489.338935","330256.03622","331023.014544","331789.301556","332555.966996","333322.955213","336399.504334","Mapping"
"Blocked","m160","cave","8","m160ball.wav","None","735.640527913","102","327206.880155","334090.390495","334856.739033","335623.266273","336389.967577","337139.373424","337906.278164","324072.804414","327956.257866","328722.730074","329489.338935","330256.03622","331023.014544","331789.301556","332555.966996","333322.955213","337148.391387","Mapping"
"Blocked","m160","cave","8","m160lash.wav","None","733.718398027","102","327206.880155","334090.390495","334856.739033","335623.266273","336389.967577","337139.373424","337906.278164","338672.892281","327956.257866","328722.730074","329489.338935","330256.03622","331023.014544","331789.301556","332555.966996","333322.955213","337915.393208","Mapping"
"Blocked","m160","tile","14","m160lash.wav","None","731.926739682","102","341806.682655","334090.390495","334856.739033","335623.266273","336389.967577","337139.373424","337906.278164","338672.892281","327956.257866","328722.730074","329489.338935","330256.03622","331023.014544","331789.301556","332555.966996","333322.955213","338682.546214","Mapping"
"Blocked","m160","tile","14","m160done.wav","None","720.546073979","102","341806.682655","334090.390495","334856.739033","335623.266273","336389.967577","337139.373424","337906.278164","338672.892281","342556.126839","328722.730074","329489.338935","330256.03622","331023.014544","331789.301556","332555.966996","333322.955213","341815.964035","Mapping"
"Blocked","m160","tile","14","m160park.wav","None","736.935963854","102","341806.682655","334090.390495","334856.739033","335623.266273","336389.967577","337139.373424","337906.278164","338672.892281","342556.126839","343322.747758","329489.338935","330256.03622","331023.014544","331789.301556","332555.966996","333322.955213","342564.856653","Mapping"
"Blocked","m160","tile","14","m160tile.wav","None","735.31280458","102","341806.682655","334090.390495","334856.739033","335623.266273","336389.967577","337139.373424","337906.278164","338672.892281","342556.126839","343322.747758","344089.044046","330256.03622","331023.014544","331789.301556","332555.966996","333322.955213","343331.750573","Mapping"
"Blocked","m160","tile","14","m160cling.wav","None","734.465051675","102","341806.682655","334090.390495","334856.739033","335623.266273","336389.967577","337139.373424","337906.278164","338672.892281","342556.126839","343322.747758","344089.044046","344856.080185","331023.014544","331789.301556","332555.966996","333322.955213","344097.909896","Mapping"
"Blocked","m160","tile","14","m160depth.wav","None","732.769545633","102","341806.682655","334090.390495","334856.739033","335623.266273","336389.967577","337139.373424","337906.278164","338672.892281","342556.126839","343322.747758","344089.044046","344856.080185","345622.399969","331789.301556","332555.966996","333322.955213","344864.939852","Mapping"
"Blocked","m160","tile","14","m160tile.wav","None","731.846663635","102","341806.682655","334090.390495","334856.739033","335623.266273","336389.967577","337139.373424","337906.278164","338672.892281","342556.126839","343322.747758","344089.044046","344856.080185","345622.399969","346388.99801","332555.966996","333322.955213","345631.141842","Mapping"
"Blocked","m160","tile","14","m160jolt.wav","None","730.299251853","102","341806.682655","334090.390495","334856.739033","335623.266273","336389.967577","337139.373424","337906.278164","338672.892281","342556.126839","343322.747758","344089.044046","344856.080185","345622.399969","346388.99801","347156.084544","333322.955213","346397.951666","Mapping"
"Blocked","m160","tile","14","m160ball.wav","None","728.528307751","102","341806.682655","334090.390495","334856.739033","335623.266273","336389.967577","337139.373424","337906.278164","338672.892281","342556.126839","343322.747758","344089.044046","344856.080185","345622.399969","346388.99801","347156.084544","347922.353315","347165.130334","Mapping"
"Blocked","m160","tile","14","m160lash.wav","None","727.762485621","102","341806.682655","348688.958776","334856.739033","335623.266273","336389.967577","337139.373424","337906.278164","338672.892281","342556.126839","343322.747758","344089.044046","344856.080185","345622.399969","346388.99801","347156.084544","347922.353315","347931.173408","Mapping"
"Blocked","m160","tile","14","m160tile.wav","None","726.848260732","102","341806.682655","348688.958776","349456.399622","335623.266273","336389.967577","337139.373424","337906.278164","338672.892281","342556.126839","343322.747758","344089.044046","344856.080185","345622.399969","346388.99801","347156.084544","347922.353315","348697.657055","Mapping"
"Blocked","m160","tile","14","m160knife.wav","None","723.246083595","102","341806.682655","348688.958776","349456.399622","350222.539468","336389.967577","337139.373424","337906.278164","338672.892281","342556.126839","343322.747758","344089.044046","344856.080185","345622.399969","346388.99801","347156.084544","347922.353315","349466.589353","Mapping"
"Blocked","m160","tile","14","m160tile.wav","None","723.63997018","102","341806.682655","348688.958776","349456.399622","350222.539468","350989.833767","337139.373424","337906.278164","338672.892281","342556.126839","343322.747758","344089.044046","344856.080185","345622.399969","346388.99801","347156.084544","347922.353315","350231.489414","Mapping"
