"Condition","Talker","Target","Trial","current_stimulus","response_response","response_time_response","subject_nr","time_Audio1","time_Audio10","time_Audio11","time_Audio12","time_Audio13","time_Audio14","time_Audio15","time_Audio16","time_Audio2","time_Audio3","time_Audio4","time_Audio5","time_Audio6","time_Audio7","time_Audio8","time_Audio9","time_response","title"
"Mixed","Both","ball","12","m160priest.wav","NA","NA","152","447028.533683","NA","NA","NA","NA","NA","NA","NA","NA","NA","NA","NA","NA","NA","NA","NA","NA","Mapping"
"Mixed","Both","ball","12","m160romp.wav","None","717.07256604","152","447028.533683","NA","NA","NA","NA","NA","NA","NA","447795.163465","NA","NA","NA","NA","NA","NA","NA","447044.171712","Mapping"
"Mixed","Both","ball","12","m150depth.wav","None","723.343854537","152","447028.533683","NA","NA","NA","NA","NA","NA","NA","447795.163465","448561.500459","NA","NA","NA","NA","NA","NA","447804.623267","Mapping"
"Mixed","Both","ball","12","m150park.wav","None","723.730322206","152","447028.533683","NA","NA","NA","NA","NA","NA","NA","447795.163465","448561.500459","449328.427049","NA","NA","NA","NA","NA","448571.117321","Mapping"
"Mixed","Both","ball","12","m160ball.wav","None","723.24615554","152","447028.533683","NA","NA","NA","NA","NA","NA","NA","447795.163465","448561.500459","449328.427049","450094.915538","NA","NA","NA","NA","449338.3401","Mapping"
"Mixed","Both","ball","12","m160bluff.wav","space","389.1142254","152","447028.533683","NA","NA","NA","NA","NA","NA","NA","447795.163465","448561.500459","449328.427049","450094.915538","450861.658478","NA","NA","NA","450104.65978","Mapping"
"Mixed","Both","ball","12","m160done.wav","None","723.510190146","152","447028.533683","NA","NA","NA","NA","NA","NA","NA","447795.163465","448561.500459","449328.427049","450094.915538","450861.658478","451628.584758","NA","NA","450871.437966","Mapping"
"Mixed","Both","ball","12","m150ball.wav","None","724.056191859","152","447028.533683","NA","NA","NA","NA","NA","NA","NA","447795.163465","448561.500459","449328.427049","450094.915538","450861.658478","451628.584758","452394.526628","NA","451637.939132","Mapping"
"Mixed","Both","ball","12","m150reek.wav","space","393.894676119","152","447028.533683","NA","NA","NA","NA","NA","NA","NA","447795.163465","448561.500459","449328.427049","450094.915538","450861.658478","451628.584758","452394.526628","453161.154555","452403.845446","Mapping"
"Mixed","Both","ball","12","m150reek.wav","None","725.381930592","152","447028.533683","453928.319518","NA","NA","NA","NA","NA","NA","447795.163465","448561.500459","449328.427049","450094.915538","450861.658478","451628.584758","452394.526628","453161.154555","453170.118751","Mapping"
"Mixed","Both","ball","12","m160cave.wav","None","719.755579252","152","447028.533683","453928.319518","454695.05411","NA","NA","NA","NA","NA","447795.163465","448561.500459","449328.427049","450094.915538","450861.658478","451628.584758","452394.526628","453161.154555","453938.886163","Mapping"
"Mixed","Both","ball","12","m150ball.wav","None","720.720511745","152","447028.533683","453928.319518","454695.05411","455444.413424","NA","NA","NA","NA","447795.163465","448561.500459","449328.427049","450094.915538","450861.658478","451628.584758","452394.526628","453161.154555","454704.649639","Mapping"
"Mixed","Both","ball","12","m150cave.wav","space","360.271677491","152","447028.533683","453928.319518","454695.05411","455444.413424","456211.056501","NA","NA","NA","447795.163465","448561.500459","449328.427049","450094.915538","450861.658478","451628.584758","452394.526628","453161.154555","455453.420904","Mapping"
"Mixed","Both","ball","12","m160ball.wav","None","734.306860948","152","447028.533683","453928.319518","454695.05411","455444.413424","456211.056501","456978.254236","NA","NA","447795.163465","448561.500459","449328.427049","450094.915538","450861.658478","451628.584758","452394.526628","453161.154555","456220.71943","Mapping"
"Mixed","Both","ball","12","m150romp.wav","space","345.608784002","152","447028.533683","453928.319518","454695.05411","455444.413424","456211.056501","456978.254236","457744.943379","NA","447795.163465","448561.500459","449328.427049","450094.915538","450861.658478","451628.584758","452394.526628","453161.154555","456988.076699","Mapping"
"Mixed","Both","ball","12","m160cad.wav","None","731.172762462","152","447028.533683","453928.319518","454695.05411","455444.413424","456211.056501","456978.254236","457744.943379","458511.350865","447795.163465","448561.500459","449328.427049","450094.915538","450861.658478","451628.584758","452394.526628","453161.154555","457754.437499","Mapping"
"Mixed","Both","cave","24","m150park.wav","None","732.023919001","152","461678.659223","453928.319518","454695.05411","455444.413424","456211.056501","456978.254236","457744.943379","458511.350865","447795.163465","448561.500459","449328.427049","450094.915538","450861.658478","451628.584758","452394.526628","453161.154555","458520.428219","Mapping"
"Mixed","Both","cave","24","m160cave.wav","None","719.21514289","152","461678.659223","453928.319518","454695.05411","455444.413424","456211.056501","456978.254236","457744.943379","458511.350865","462427.993185","448561.500459","449328.427049","450094.915538","450861.658478","451628.584758","452394.526628","453161.154555","461688.489415","Mapping"
"Mixed","Both","cave","24","m150dime.wav","space","600.443726755","152","461678.659223","453928.319518","454695.05411","455444.413424","456211.056501","456978.254236","457744.943379","458511.350865","462427.993185","463194.895349","449328.427049","450094.915538","450861.658478","451628.584758","452394.526628","453161.154555","462437.182768","Mapping"
"Mixed","Both","cave","24","m160reek.wav","None","733.503008145","152","461678.659223","453928.319518","454695.05411","455444.413424","456211.056501","456978.254236","457744.943379","458511.350865","462427.993185","463194.895349","463961.405172","450094.915538","450861.658478","451628.584758","452394.526628","453161.154555","463204.226534","Mapping"
"Mixed","Both","cave","24","m160greet.wav","None","740.007723216","152","461678.659223","453928.319518","454695.05411","455444.413424","456211.056501","456978.254236","457744.943379","458511.350865","462427.993185","463194.895349","463961.405172","464728.182121","450861.658478","451628.584758","452394.526628","453161.154555","463964.913371","Mapping"
"Mixed","Both","cave","24","m160priest.wav","None","734.243789339","152","461678.659223","453928.319518","454695.05411","455444.413424","456211.056501","456978.254236","457744.943379","458511.350865","462427.993185","463194.895349","463961.405172","464728.182121","465494.9028","451628.584758","452394.526628","453161.154555","464737.478679","Mapping"
"Mixed","Both","cave","24","m150cave.wav","None","730.762488325","152","461678.659223","453928.319518","454695.05411","455444.413424","456211.056501","456978.254236","457744.943379","458511.350865","462427.993185","463194.895349","463961.405172","464728.182121","465494.9028","466261.337494","452394.526628","453161.154555","465504.336631","Mapping"
"Mixed","Both","cave","24","m160knife.wav","space","334.781505051","152","461678.659223","453928.319518","454695.05411","455444.413424","456211.056501","456978.254236","457744.943379","458511.350865","462427.993185","463194.895349","463961.405172","464728.182121","465494.9028","466261.337494","467028.178751","453161.154555","466270.779672","Mapping"
"Mixed","Both","cave","24","m150depth.wav","None","727.097228868","152","461678.659223","453928.319518","454695.05411","455444.413424","456211.056501","456978.254236","457744.943379","458511.350865","462427.993185","463194.895349","463961.405172","464728.182121","465494.9028","466261.337494","467028.178751","467795.249415","467037.868887","Mapping"
"Mixed","Both","cave","24","m150cave.wav","None","723.438152694","152","461678.659223","468562.252371","454695.05411","455444.413424","456211.056501","456978.254236","457744.943379","458511.350865","462427.993185","463194.895349","463961.405172","464728.182121","465494.9028","466261.337494","467028.178751","467795.249415","467804.844326","Mapping"
"Mixed","Both","cave","24","m160knife.wav","space","546.239004587","152","461678.659223","468562.252371","469311.41876","455444.413424","456211.056501","456978.254236","457744.943379","458511.350865","462427.993185","463194.895349","463961.405172","464728.182121","465494.9028","466261.337494","467028.178751","467795.249415","468571.290768","Mapping"
"Mixed","Both","cave","24","m160done.wav","None","734.296039795","152","461678.659223","468562.252371","469311.41876","470077.840777","456211.056501","456978.254236","457744.943379","458511.350865","462427.993185","463194.895349","463961.405172","464728.182121","465494.9028","466261.337494","467028.178751","467795.249415","469320.383574","Mapping"
"Mixed","Both","cave","24","m150bluff.wav","None","730.831125053","152","461678.659223","468562.252371","469311.41876","470077.840777","470844.49653","456978.254236","457744.943379","458511.350865","462427.993185","463194.895349","463961.405172","464728.182121","465494.9028","466261.337494","467028.178751","467795.249415","470087.121258","Mapping"
"Mixed","Both","cave","24","m150ball.wav","None","731.190076331","152","461678.659223","468562.252371","469311.41876","470077.840777","470844.49653","471611.13837","457744.943379","458511.350865","462427.993185","463194.895349","463961.405172","464728.182121","465494.9028","466261.337494","467028.178751","467795.249415","470853.412803","Mapping"
"Mixed","Both","cave","24","m160cave.wav","None","727.969409083","152","461678.659223","468562.252371","469311.41876","470077.840777","470844.49653","471611.13837","472377.7765","458511.350865","462427.993185","463194.895349","463961.405172","464728.182121","465494.9028","466261.337494","467028.178751","467795.249415","471620.230873","Mapping"
"Mixed","Both","cave","24","m150dime.wav","space","418.452070095","152","461678.659223","468562.252371","469311.41876","470077.840777","470844.49653","471611.13837","472377.7765","473145.078427","462427.993185","463194.895349","463961.405172","464728.182121","465494.9028","466261.337494","467028.178751","467795.249415","472387.009058","Mapping"
"Mixed","Both","tile","33","m150priest.wav","None","720.036618528","152","476261.601219","468562.252371","469311.41876","470077.840777","470844.49653","471611.13837","472377.7765","473145.078427","462427.993185","463194.895349","463961.405172","464728.182121","465494.9028","466261.337494","467028.178751","467795.249415","473154.796698","Mapping"
"Mixed","Both","tile","33","m160tile.wav","None","722.073458019","152","476261.601219","468562.252371","469311.41876","470077.840777","470844.49653","471611.13837","472377.7765","473145.078427","477027.519901","463194.895349","463961.405172","464728.182121","465494.9028","466261.337494","467028.178751","467795.249415","476272.755604","Mapping"
"Mixed","Both","tile","33","m160park.wav","space","593.053846154","152","476261.601219","468562.252371","469311.41876","470077.840777","470844.49653","471611.13837","472377.7765","473145.078427","477027.519901","477794.533677","463961.405172","464728.182121","465494.9028","466261.337494","467028.178751","467795.249415","477036.335074","Mapping"
"Mixed","Both","tile","33","m160bluff.wav","None","726.720345556","152","476261.601219","468562.252371","469311.41876","470077.840777","470844.49653","471611.13837","472377.7765","473145.078427","477027.519901","477794.533677","478561.766349","464728.182121","465494.9028","466261.337494","467028.178751","467795.249415","477803.532191","Mapping"
"Mixed","Both","tile","33","m160jaw.wav","None","722.426844062","152","476261.601219","468562.252371","469311.41876","470077.840777","470844.49653","471611.13837","472377.7765","473145.078427","477027.519901","477794.533677","478561.766349","479328.328113","465494.9028","466261.337494","467028.178751","467795.249415","478571.250575","Mapping"
"Mixed","Both","tile","33","m160knife.wav","None","722.322343034","152","476261.601219","468562.252371","469311.41876","470077.840777","470844.49653","471611.13837","472377.7765","473145.078427","477027.519901","477794.533677","478561.766349","479328.328113","480094.855868","466261.337494","467028.178751","467795.249415","479338.261569","Mapping"
"Mixed","Both","tile","33","m150ball.wav","None","720.174201066","152","476261.601219","468562.252371","469311.41876","470077.840777","470844.49653","471611.13837","472377.7765","473145.078427","477027.519901","477794.533677","478561.766349","479328.328113","480094.855868","480844.266504","467028.178751","467795.249415","480104.076369","Mapping"
"Mixed","Both","tile","33","m150cad.wav","None","734.500094783","152","476261.601219","468562.252371","469311.41876","470077.840777","470844.49653","471611.13837","472377.7765","473145.078427","477027.519901","477794.533677","478561.766349","479328.328113","480094.855868","480844.266504","481611.167123","467795.249415","480853.174739","Mapping"
"Mixed","Both","tile","33","m160tile.wav","None","734.159075655","152","476261.601219","468562.252371","469311.41876","470077.840777","470844.49653","471611.13837","472377.7765","473145.078427","477027.519901","477794.533677","478561.766349","479328.328113","480094.855868","480844.266504","481611.167123","482377.686221","481620.577457","Mapping"
"Mixed","Both","tile","33","m150cad.wav","space","394.396156655","152","476261.601219","483144.304255","469311.41876","470077.840777","470844.49653","471611.13837","472377.7765","473145.078427","477027.519901","477794.533677","478561.766349","479328.328113","480094.855868","480844.266504","481611.167123","482377.686221","482386.928673","Mapping"
"Mixed","Both","tile","33","m150cling.wav","None","727.579231258","152","476261.601219","483144.304255","483911.084605","470077.840777","470844.49653","471611.13837","472377.7765","473145.078427","477027.519901","477794.533677","478561.766349","479328.328113","480094.855868","480844.266504","481611.167123","482377.686221","483153.672541","Mapping"
"Mixed","Both","tile","33","m150tile.wav","None","728.134198929","152","476261.601219","483144.304255","483911.084605","484677.826926","470844.49653","471611.13837","472377.7765","473145.078427","477027.519901","477794.533677","478561.766349","479328.328113","480094.855868","480844.266504","481611.167123","482377.686221","483920.107234","Mapping"
"Mixed","Both","tile","33","m160done.wav","space","510.157762328","152","476261.601219","483144.304255","483911.084605","484677.826926","485444.145061","471611.13837","472377.7765","473145.078427","477027.519901","477794.533677","478561.766349","479328.328113","480094.855868","480844.266504","481611.167123","482377.686221","484687.090711","Mapping"
"Mixed","Both","tile","33","m150tile.wav","None","725.333081093","152","476261.601219","483144.304255","483911.084605","484677.826926","485444.145061","486211.425345","472377.7765","473145.078427","477027.519901","477794.533677","478561.766349","479328.328113","480094.855868","480844.266504","481611.167123","482377.686221","485453.114512","Mapping"
"Mixed","Both","tile","33","m150bluff.wav","space","583.965362515","152","476261.601219","483144.304255","483911.084605","484677.826926","485444.145061","486211.425345","486960.93801","473145.078427","477027.519901","477794.533677","478561.766349","479328.328113","480094.855868","480844.266504","481611.167123","482377.686221","486221.279962","Mapping"
"Mixed","Both","tile","33","m160cave.wav","None","734.433003934","152","476261.601219","483144.304255","483911.084605","484677.826926","485444.145061","486211.425345","486960.93801","487727.576139","477027.519901","477794.533677","478561.766349","479328.328113","480094.855868","480844.266504","481611.167123","482377.686221","486970.660919","Mapping"
"Mixed","Both","done","48","m160park.wav","None","732.084826217","152","490861.344357","483144.304255","483911.084605","484677.826926","485444.145061","486211.425345","486960.93801","487727.576139","477027.519901","477794.533677","478561.766349","479328.328113","480094.855868","480844.266504","481611.167123","482377.686221","487736.539098","Mapping"
"Mixed","Both","done","48","m160greet.wav","None","720.294160652","152","490861.344357","483144.304255","483911.084605","484677.826926","485444.145061","486211.425345","486960.93801","487727.576139","491610.840944","477794.533677","478561.766349","479328.328113","480094.855868","480844.266504","481611.167123","482377.686221","490871.084271","Mapping"
"Mixed","Both","done","48","m160tile.wav","None","734.815452481","152","490861.344357","483144.304255","483911.084605","484677.826926","485444.145061","486211.425345","486960.93801","487727.576139","491610.840944","492377.75393","478561.766349","479328.328113","480094.855868","480844.266504","481611.167123","482377.686221","491620.152652","Mapping"
"Mixed","Both","done","48","m150romp.wav","None","731.171834981","152","490861.344357","483144.304255","483911.084605","484677.826926","485444.145061","486211.425345","486960.93801","487727.576139","491610.840944","492377.75393","493144.382785","479328.328113","480094.855868","480844.266504","481611.167123","482377.686221","492387.25949","Mapping"
"Mixed","Both","done","48","m150done.wav","None","728.419566643","152","490861.344357","483144.304255","483911.084605","484677.826926","485444.145061","486211.425345","486960.93801","487727.576139","491610.840944","492377.75393","493144.382785","493910.9665","480094.855868","480844.266504","481611.167123","482377.686221","493153.920189","Mapping"
"Mixed","Both","done","48","m150jolt.wav","space","517.110470682","152","490861.344357","483144.304255","483911.084605","484677.826926","485444.145061","486211.425345","486960.93801","487727.576139","491610.840944","492377.75393","493144.382785","493910.9665","494677.677286","480844.266504","481611.167123","482377.686221","493920.020974","Mapping"
"Mixed","Both","done","48","m160cave.wav","None","728.76460501","152","490861.344357","483144.304255","483911.084605","484677.826926","485444.145061","486211.425345","486960.93801","487727.576139","491610.840944","492377.75393","493144.382785","493910.9665","494677.677286","495444.012116","481611.167123","482377.686221","494687.101223","Mapping"
"Mixed","Both","done","48","m150done.wav","None","726.405915339","152","490861.344357","483144.304255","483911.084605","484677.826926","485444.145061","486211.425345","486960.93801","487727.576139","491610.840944","492377.75393","493144.382785","493910.9665","494677.677286","495444.012116","496211.013835","482377.686221","495452.966727","Mapping"
"Mixed","Both","done","48","m150romp.wav","space","392.592434539","152","490861.344357","483144.304255","483911.084605","484677.826926","485444.145061","486211.425345","486960.93801","487727.576139","491610.840944","492377.75393","493144.382785","493910.9665","494677.677286","495444.012116","496211.013835","496961.587894","496220.503626","Mapping"
"Mixed","Both","done","48","m160done.wav","None","735.486360267","152","490861.344357","497727.697645","483911.084605","484677.826926","485444.145061","486211.425345","486960.93801","487727.576139","491610.840944","492377.75393","493144.382785","493910.9665","494677.677286","495444.012116","496211.013835","496961.587894","496970.908567","Mapping"
"Mixed","Both","done","48","m150ball.wav","space","571.948690689","152","490861.344357","497727.697645","498494.167893","484677.826926","485444.145061","486211.425345","486960.93801","487727.576139","491610.840944","492377.75393","493144.382785","493910.9665","494677.677286","495444.012116","496211.013835","496961.587894","497737.118491","Mapping"
"Mixed","Both","done","48","m160done.wav","None","729.812705424","152","490861.344357","497727.697645","498494.167893","499260.924437","485444.145061","486211.425345","486960.93801","487727.576139","491610.840944","492377.75393","493144.382785","493910.9665","494677.677286","495444.012116","496211.013835","496961.587894","498503.174755","Mapping"
"Mixed","Both","done","48","m150bluff.wav","space","302.141371067","152","490861.344357","497727.697645","498494.167893","499260.924437","500028.199156","486211.425345","486960.93801","487727.576139","491610.840944","492377.75393","493144.382785","493910.9665","494677.677286","495444.012116","496211.013835","496961.587894","499270.944153","Mapping"
"Mixed","Both","done","48","m160knife.wav","None","721.389873768","152","490861.344357","497727.697645","498494.167893","499260.924437","500028.199156","500794.60386","486960.93801","487727.576139","491610.840944","492377.75393","493144.382785","493910.9665","494677.677286","495444.012116","496211.013835","496961.587894","500038.080981","Mapping"
"Mixed","Both","done","48","m150jaw.wav","None","718.803013675","152","490861.344357","497727.697645","498494.167893","499260.924437","500028.199156","500794.60386","501544.458471","487727.576139","491610.840944","492377.75393","493144.382785","493910.9665","494677.677286","495444.012116","496211.013835","496961.587894","500804.299871","Mapping"
"Mixed","Both","done","48","m160depth.wav","None","736.312473658","152","490861.344357","497727.697645","498494.167893","499260.924437","500028.199156","500794.60386","501544.458471","502327.814265","491610.840944","492377.75393","493144.382785","493910.9665","494677.677286","495444.012116","496211.013835","496961.587894","501553.778835","Mapping"
"Mixed","Both","tile","25","m150cling.wav","None","719.998590066","152","505444.048908","497727.697645","498494.167893","499260.924437","500028.199156","500794.60386","501544.458471","502327.814265","491610.840944","492377.75393","493144.382785","493910.9665","494677.677286","495444.012116","496211.013835","496961.587894","502337.043423","Mapping"
"Mixed","Both","tile","25","m160knife.wav","None","720.563142211","152","505444.048908","497727.697645","498494.167893","499260.924437","500028.199156","500794.60386","501544.458471","502327.814265","506194.051613","492377.75393","493144.382785","493910.9665","494677.677286","495444.012116","496211.013835","496961.587894","505453.367107","Mapping"
"Mixed","Both","tile","25","m150knife.wav","None","734.097550041","152","505444.048908","497727.697645","498494.167893","499260.924437","500028.199156","500794.60386","501544.458471","502327.814265","506194.051613","506960.460336","493144.382785","493910.9665","494677.677286","495444.012116","496211.013835","496961.587894","506203.457927","Mapping"
"Mixed","Both","tile","25","m160bluff.wav","None","735.470901593","152","505444.048908","497727.697645","498494.167893","499260.924437","500028.199156","500794.60386","501544.458471","502327.814265","506194.051613","506960.460336","507727.507503","493910.9665","494677.677286","495444.012116","496211.013835","496961.587894","506969.84779","Mapping"
"Mixed","Both","tile","25","m150tile.wav","None","731.855728198","152","505444.048908","497727.697645","498494.167893","499260.924437","500028.199156","500794.60386","501544.458471","502327.814265","506194.051613","506960.460336","507727.507503","508493.9558","494677.677286","495444.012116","496211.013835","496961.587894","507737.024193","Mapping"
"Mixed","Both","tile","25","m150romp.wav","space","525.812486536","152","505444.048908","497727.697645","498494.167893","499260.924437","500028.199156","500794.60386","501544.458471","502327.814265","506194.051613","506960.460336","507727.507503","508493.9558","509260.50025","495444.012116","496211.013835","496961.587894","508503.103645","Mapping"
"Mixed","Both","tile","25","m160tile.wav","None","727.784832125","152","505444.048908","497727.697645","498494.167893","499260.924437","500028.199156","500794.60386","501544.458471","502327.814265","506194.051613","506960.460336","507727.507503","508493.9558","509260.50025","510028.008087","496211.013835","496961.587894","509269.489798","Mapping"
"Mixed","Both","tile","25","m150cad.wav","space","414.773825207","152","505444.048908","497727.697645","498494.167893","499260.924437","500028.199156","500794.60386","501544.458471","502327.814265","506194.051613","506960.460336","507727.507503","508493.9558","509260.50025","510028.008087","510794.017975","496961.587894","510038.125502","Mapping"
"Mixed","Both","tile","25","m160gnash.wav","None","720.865823678","152","505444.048908","497727.697645","498494.167893","499260.924437","500028.199156","500794.60386","501544.458471","502327.814265","506194.051613","506960.460336","507727.507503","508493.9558","509260.50025","510028.008087","510794.017975","511560.928178","510803.292272","Mapping"
"Mixed","Both","tile","25","m160tile.wav","None","720.218412927","152","505444.048908","512310.338815","498494.167893","499260.924437","500028.199156","500794.60386","501544.458471","502327.814265","506194.051613","506960.460336","507727.507503","508493.9558","509260.50025","510028.008087","510794.017975","511560.928178","511570.8706","Mapping"
"Mixed","Both","tile","25","m160lash.wav","space","549.169357168","152","505444.048908","512310.338815","513077.032596","499260.924437","500028.199156","500794.60386","501544.458471","502327.814265","506194.051613","506960.460336","507727.507503","508493.9558","509260.50025","510028.008087","510794.017975","511560.928178","512319.692879","Mapping"
"Mixed","Both","tile","25","m150tile.wav","None","735.781621654","152","505444.048908","512310.338815","513077.032596","513844.135105","500028.199156","500794.60386","501544.458471","502327.814265","506194.051613","506960.460336","507727.507503","508493.9558","509260.50025","510028.008087","510794.017975","511560.928178","513086.247532","Mapping"
"Mixed","Both","tile","25","m150depth.wav","space","479.214685271","152","505444.048908","512310.338815","513077.032596","513844.135105","514610.64431","500794.60386","501544.458471","502327.814265","506194.051613","506960.460336","507727.507503","508493.9558","509260.50025","510028.008087","510794.017975","511560.928178","513853.618095","Mapping"
"Mixed","Both","tile","25","m160bluff.wav","None","729.261138709","152","505444.048908","512310.338815","513077.032596","513844.135105","514610.64431","515377.540291","501544.458471","502327.814265","506194.051613","506960.460336","507727.507503","508493.9558","509260.50025","510028.008087","510794.017975","511560.928178","514620.171511","Mapping"
"Mixed","Both","tile","25","m150lash.wav","None","726.348408964","152","505444.048908","512310.338815","513077.032596","513844.135105","514610.64431","515377.540291","516144.061244","502327.814265","506194.051613","506960.460336","507727.507503","508493.9558","509260.50025","510028.008087","510794.017975","511560.928178","515386.937948","Mapping"
"Mixed","Both","tile","25","m160lash.wav","None","727.015606826","152","505444.048908","512310.338815","513077.032596","513844.135105","514610.64431","515377.540291","516144.061244","516911.055542","506194.051613","506960.460336","507727.507503","508493.9558","509260.50025","510028.008087","510794.017975","511560.928178","516153.43324","Mapping"
"Mixed","Both","ball","4","m160depth.wav","None","723.519774619","152","520027.821345","512310.338815","513077.032596","513844.135105","514610.64431","515377.540291","516144.061244","516911.055542","506194.051613","506960.460336","507727.507503","508493.9558","509260.50025","510028.008087","510794.017975","511560.928178","516920.658491","Mapping"
"Mixed","Both","ball","4","m160reek.wav","None","718.434478156","152","520027.821345","512310.338815","513077.032596","513844.135105","514610.64431","515377.540291","516144.061244","516911.055542","520777.351942","506960.460336","507727.507503","508493.9558","509260.50025","510028.008087","510794.017975","511560.928178","520038.045735","Mapping"
"Mixed","Both","ball","4","m160dime.wav","None","733.20094496","152","520027.821345","512310.338815","513077.032596","513844.135105","514610.64431","515377.540291","516144.061244","516911.055542","520777.351942","521543.998729","507727.507503","508493.9558","509260.50025","510028.008087","510794.017975","511560.928178","520786.849463","Mapping"
"Mixed","Both","ball","4","m150done.wav","None","733.468071441","152","520027.821345","512310.338815","513077.032596","513844.135105","514610.64431","515377.540291","516144.061244","516911.055542","520777.351942","521543.998729","522310.554618","508493.9558","509260.50025","510028.008087","510794.017975","511560.928178","521553.648054","Mapping"
"Mixed","Both","ball","4","m150jolt.wav","None","730.760942562","152","520027.821345","512310.338815","513077.032596","513844.135105","514610.64431","515377.540291","516144.061244","516911.055542","520777.351942","521543.998729","522310.554618","523077.076499","509260.50025","510028.008087","510794.017975","511560.928178","522319.975464","Mapping"
"Mixed","Both","ball","4","m150greet.wav","None","728.087204508","152","520027.821345","512310.338815","513077.032596","513844.135105","514610.64431","515377.540291","516144.061244","516911.055542","520777.351942","521543.998729","522310.554618","523077.076499","523843.952383","510028.008087","510794.017975","511560.928178","523086.261444","Mapping"
"Mixed","Both","ball","4","m160ball.wav","None","728.634442785","152","520027.821345","512310.338815","513077.032596","513844.135105","514610.64431","515377.540291","516144.061244","516911.055542","520777.351942","521543.998729","522310.554618","523077.076499","523843.952383","524610.550939","510794.017975","511560.928178","523853.379413","Mapping"
"Mixed","Both","ball","4","m150jaw.wav","space","432.412210735","152","520027.821345","512310.338815","513077.032596","513844.135105","514610.64431","515377.540291","516144.061244","516911.055542","520777.351942","521543.998729","522310.554618","523077.076499","523843.952383","524610.550939","525377.684675","511560.928178","524620.289307","Mapping"
"Mixed","Both","ball","4","m150dime.wav","None","721.933402121","152","520027.821345","512310.338815","513077.032596","513844.135105","514610.64431","515377.540291","516144.061244","516911.055542","520777.351942","521543.998729","522310.554618","523077.076499","523843.952383","524610.550939","525377.684675","526127.584735","525387.078623","Mapping"
"Mixed","Both","ball","4","m150ball.wav","None","735.910856514","152","520027.821345","526893.943371","513077.032596","513844.135105","514610.64431","515377.540291","516144.061244","516911.055542","520777.351942","521543.998729","522310.554618","523077.076499","523843.952383","524610.550939","525377.684675","526127.584735","526136.883766","Mapping"
"Mixed","Both","ball","4","m150greet.wav","space","469.170853728","152","520027.821345","526893.943371","527660.431242","513844.135105","514610.64431","515377.540291","516144.061244","516911.055542","520777.351942","521543.998729","522310.554618","523077.076499","523843.952383","524610.550939","525377.684675","526127.584735","526903.501181","Mapping"
"Mixed","Both","ball","4","m160ball.wav","None","729.523009155","152","520027.821345","526893.943371","527660.431242","528427.001045","514610.64431","515377.540291","516144.061244","516911.055542","520777.351942","521543.998729","522310.554618","523077.076499","523843.952383","524610.550939","525377.684675","526127.584735","527670.006366","Mapping"
"Mixed","Both","ball","4","m160tile.wav","space","688.471792382","152","520027.821345","526893.943371","527660.431242","528427.001045","529193.805819","515377.540291","516144.061244","516911.055542","520777.351942","521543.998729","522310.554618","523077.076499","523843.952383","524610.550939","525377.684675","526127.584735","528436.132503","Mapping"
"Mixed","Both","ball","4","m150ball.wav","None","722.75456856","152","520027.821345","526893.943371","527660.431242","528427.001045","529193.805819","529960.574421","516144.061244","516911.055542","520777.351942","521543.998729","522310.554618","523077.076499","523843.952383","524610.550939","525377.684675","526127.584735","529203.432884","Mapping"
"Mixed","Both","ball","4","m160priest.wav","space","418.563991203","152","520027.821345","526893.943371","527660.431242","528427.001045","529193.805819","529960.574421","530710.445418","516911.055542","520777.351942","521543.998729","522310.554618","523077.076499","523843.952383","524610.550939","525377.684675","526127.584735","529970.033295","Mapping"
"Mixed","Both","ball","4","m160cad.wav","None","732.955769752","152","520027.821345","526893.943371","527660.431242","528427.001045","529193.805819","529960.574421","530710.445418","531477.202889","520777.351942","521543.998729","522310.554618","523077.076499","523843.952383","524610.550939","525377.684675","526127.584735","530720.135554","Mapping"
"Mixed","Both","done","41","m160lash.wav","None","730.517931632","152","534610.853311","526893.943371","527660.431242","528427.001045","529193.805819","529960.574421","530710.445418","531477.202889","520777.351942","521543.998729","522310.554618","523077.076499","523843.952383","524610.550939","525377.684675","526127.584735","531486.457708","Mapping"
"Mixed","Both","done","41","m150gnash.wav","None","720.185949816","152","534610.853311","526893.943371","527660.431242","528427.001045","529193.805819","529960.574421","530710.445418","531477.202889","535377.402399","521543.998729","522310.554618","523077.076499","523843.952383","524610.550939","525377.684675","526127.584735","534620.376184","Mapping"
"Mixed","Both","done","41","m160gnash.wav","None","720.508109196","152","534610.853311","526893.943371","527660.431242","528427.001045","529193.805819","529960.574421","530710.445418","531477.202889","535377.402399","536126.761404","522310.554618","523077.076499","523843.952383","524610.550939","525377.684675","526127.584735","535387.343276","Mapping"
"Mixed","Both","done","41","m150dime.wav","None","735.726588638","152","534610.853311","526893.943371","527660.431242","528427.001045","529193.805819","529960.574421","530710.445418","531477.202889","535377.402399","536126.761404","536893.802078","523077.076499","523843.952383","524610.550939","525377.684675","526127.584735","536135.891626","Mapping"
"Mixed","Both","done","41","m150done.wav","space","437.206883566","152","534610.853311","526893.943371","527660.431242","528427.001045","529193.805819","529960.574421","530710.445418","531477.202889","535377.402399","536126.761404","536893.802078","537660.339108","523843.952383","524610.550939","525377.684675","526127.584735","536903.269919","Mapping"
"Mixed","Both","done","41","m160jolt.wav","space","526.567798923","152","534610.853311","526893.943371","527660.431242","528427.001045","529193.805819","529960.574421","530710.445418","531477.202889","535377.402399","536126.761404","536893.802078","537660.339108","538426.790497","524610.550939","525377.684675","526127.584735","537669.908667","Mapping"
"Mixed","Both","done","41","m160done.wav","None","729.343997431","152","534610.853311","526893.943371","527660.431242","528427.001045","529193.805819","529960.574421","530710.445418","531477.202889","535377.402399","536126.761404","536893.802078","537660.339108","538426.790497","539193.652778","525377.684675","526127.584735","538435.942052","Mapping"
"Mixed","Both","done","41","m150cave.wav","None","725.842909189","152","534610.853311","526893.943371","527660.431242","528427.001045","529193.805819","529960.574421","530710.445418","531477.202889","535377.402399","536126.761404","536893.802078","537660.339108","538426.790497","539193.652778","539960.633782","526127.584735","539203.190183","Mapping"
"Mixed","Both","done","41","m150cling.wav","space","0.0238064676523","152","534610.853311","526893.943371","527660.431242","528427.001045","529193.805819","529960.574421","530710.445418","531477.202889","535377.402399","536126.761404","536893.802078","537660.339108","538426.790497","539193.652778","539960.633782","540726.962738","539970.736666","Mapping"
"Mixed","Both","done","41","m160done.wav","None","724.042897345","152","534610.853311","541493.774933","527660.431242","528427.001045","529193.805819","529960.574421","530710.445418","531477.202889","535377.402399","536126.761404","536893.802078","537660.339108","538426.790497","539193.652778","539960.633782","540726.962738","540735.828307","Mapping"
"Mixed","Both","done","41","m160bluff.wav","None","720.43885407","152","534610.853311","541493.774933","542243.308312","528427.001045","529193.805819","529960.574421","530710.445418","531477.202889","535377.402399","536126.761404","536893.802078","537660.339108","538426.790497","539193.652778","539960.633782","540726.962738","541503.323777","Mapping"
"Mixed","Both","done","41","m150done.wav","space","0.0231880694628","152","534610.853311","541493.774933","542243.308312","543010.237684","529193.805819","529960.574421","530710.445418","531477.202889","535377.402399","536126.761404","536893.802078","537660.339108","538426.790497","539193.652778","539960.633782","540726.962738","542252.565295","Mapping"
"Mixed","Both","done","41","m150knife.wav","space","584.925966687","152","534610.853311","541493.774933","542243.308312","543010.237684","543776.790791","529960.574421","530710.445418","531477.202889","535377.402399","536126.761404","536893.802078","537660.339108","538426.790497","539193.652778","539960.633782","540726.962738","543019.471479","Mapping"
"Mixed","Both","done","41","m160park.wav","None","727.654360584","152","534610.853311","541493.774933","542243.308312","543010.237684","543776.790791","544543.491683","530710.445418","531477.202889","535377.402399","536126.761404","536893.802078","537660.339108","538426.790497","539193.652778","539960.633782","540726.962738","543786.087348","Mapping"
"Mixed","Both","done","41","m150knife.wav","None","724.87550322","152","534610.853311","541493.774933","542243.308312","543010.237684","543776.790791","544543.491683","545310.521537","531477.202889","535377.402399","536126.761404","536893.802078","537660.339108","538426.790497","539193.652778","539960.633782","540726.962738","544552.690542","Mapping"
"Mixed","Both","done","41","m160cad.wav","None","720.646928297","152","534610.853311","541493.774933","542243.308312","543010.237684","543776.790791","544543.491683","545310.521537","546060.085524","535377.402399","536126.761404","536893.802078","537660.339108","538426.790497","539193.652778","539960.633782","540726.962738","545320.768186","Mapping"
"Mixed","Both","ball","10","m150cad.wav","None","735.781312454","152","549193.996271","541493.774933","542243.308312","543010.237684","543776.790791","544543.491683","545310.521537","546060.085524","535377.402399","536126.761404","536893.802078","537660.339108","538426.790497","539193.652778","539960.633782","540726.962738","546069.651681","Mapping"
"Mixed","Both","ball","10","m160ball.wav","None","719.365092344","152","549193.996271","541493.774933","542243.308312","543010.237684","543776.790791","544543.491683","545310.521537","546060.085524","549943.449573","536126.761404","536893.802078","537660.339108","538426.790497","539193.652778","539960.633782","540726.962738","549203.989089","Mapping"
"Mixed","Both","ball","10","m150jolt.wav","space","427.279610536","152","549193.996271","541493.774933","542243.308312","543010.237684","543776.790791","544543.491683","545310.521537","546060.085524","549943.449573","550710.156031","536893.802078","537660.339108","538426.790497","539193.652778","539960.633782","540726.962738","549953.008929","Mapping"
"Mixed","Both","ball","10","m150ball.wav","None","730.879665352","152","549193.996271","541493.774933","542243.308312","543010.237684","543776.790791","544543.491683","545310.521537","546060.085524","549943.449573","550710.156031","551476.65596","537660.339108","538426.790497","539193.652778","539960.633782","540726.962738","550719.692199","Mapping"
"Mixed","Both","ball","10","m150jolt.wav","space","414.374372223","152","549193.996271","541493.774933","542243.308312","543010.237684","543776.790791","544543.491683","545310.521537","546060.085524","549943.449573","550710.156031","551476.65596","552243.610993","538426.790497","539193.652778","539960.633782","540726.962738","551485.879243","Mapping"
"Mixed","Both","ball","10","m160tile.wav","None","724.554889719","152","549193.996271","541493.774933","542243.308312","543010.237684","543776.790791","544543.491683","545310.521537","546060.085524","549943.449573","550710.156031","551476.65596","552243.610993","553010.316523","539193.652778","539960.633782","540726.962738","552253.262174","Mapping"
"Mixed","Both","ball","10","m150cave.wav","None","721.712651663","152","549193.996271","541493.774933","542243.308312","543010.237684","543776.790791","544543.491683","545310.521537","546060.085524","549943.449573","550710.156031","551476.65596","552243.610993","553010.316523","553777.339575","539960.633782","540726.962738","553020.492991","Mapping"
"Mixed","Both","ball","10","m160done.wav","None","719.126100768","152","549193.996271","541493.774933","542243.308312","543010.237684","543776.790791","544543.491683","545310.521537","546060.085524","549943.449573","550710.156031","551476.65596","552243.610993","553010.316523","553777.339575","554526.571509","540726.962738","553787.141632","Mapping"
"Mixed","Both","ball","10","m160romp.wav","None","734.699202934","152","549193.996271","541493.774933","542243.308312","543010.237684","543776.790791","544543.491683","545310.521537","546060.085524","549943.449573","550710.156031","551476.65596","552243.610993","553010.316523","553777.339575","554526.571509","555293.560552","554535.57497","Mapping"
"Mixed","Both","ball","10","m150ball.wav","None","730.981074506","152","549193.996271","556059.989989","542243.308312","543010.237684","543776.790791","544543.491683","545310.521537","546060.085524","549943.449573","550710.156031","551476.65596","552243.610993","553010.316523","553777.339575","554526.571509","555293.560552","555303.127946","Mapping"
"Mixed","Both","ball","10","m150cave.wav","space","422.589747817","152","549193.996271","556059.989989","556826.571231","543010.237684","543776.790791","544543.491683","545310.521537","546060.085524","549943.449573","550710.156031","551476.65596","552243.610993","553010.316523","553777.339575","554526.571509","555293.560552","556069.625402","Mapping"
"Mixed","Both","ball","10","m160ball.wav","None","725.27712048","152","549193.996271","556059.989989","556826.571231","557593.845641","543776.790791","544543.491683","545310.521537","546060.085524","549943.449573","550710.156031","551476.65596","552243.610993","553010.316523","553777.339575","554526.571509","555293.560552","556836.010936","Mapping"
"Mixed","Both","ball","10","m160done.wav","space","400.721241487","152","549193.996271","556059.989989","556826.571231","557593.845641","558343.203409","544543.491683","545310.521537","546060.085524","549943.449573","550710.156031","551476.65596","552243.610993","553010.316523","553777.339575","554526.571509","555293.560552","557603.466832","Mapping"
"Mixed","Both","ball","10","m160greet.wav","None","735.671246541","152","549193.996271","556059.989989","556826.571231","557593.845641","558343.203409","559109.8672","545310.521537","546060.085524","549943.449573","550710.156031","551476.65596","552243.610993","553010.316523","553777.339575","554526.571509","555293.560552","558352.656718","Mapping"
"Mixed","Both","ball","10","m150tile.wav","None","733.253813698","152","549193.996271","556059.989989","556826.571231","557593.845641","558343.203409","559109.8672","559876.759471","546060.085524","549943.449573","550710.156031","551476.65596","552243.610993","553010.316523","553777.339575","554526.571509","555293.560552","559119.083991","Mapping"
"Mixed","Both","ball","10","m160cad.wav","None","730.344175827","152","549193.996271","556059.989989","556826.571231","557593.845641","558343.203409","559109.8672","559876.759471","560643.408732","549943.449573","550710.156031","551476.65596","552243.610993","553010.316523","553777.339575","554526.571509","555293.560552","559885.960494","Mapping"
"Mixed","Both","cave","21","m150reek.wav","None","727.083934238","152","563777.041531","556059.989989","556826.571231","557593.845641","558343.203409","559109.8672","559876.759471","560643.408732","549943.449573","550710.156031","551476.65596","552243.610993","553010.316523","553777.339575","554526.571509","555293.560552","560653.00086","Mapping"
"Mixed","Both","cave","21","m150cave.wav","None","718.982025515","152","563777.041531","556059.989989","556826.571231","557593.845641","558343.203409","559109.8672","559876.759471","560643.408732","564526.412903","550710.156031","551476.65596","552243.610993","553010.316523","553777.339575","554526.571509","555293.560552","563786.999103","Mapping"
"Mixed","Both","cave","21","m150reek.wav","space","612.608802272","152","563777.041531","556059.989989","556826.571231","557593.845641","558343.203409","559109.8672","559876.759471","560643.408732","564526.412903","565293.414312","551476.65596","552243.610993","553010.316523","553777.339575","554526.571509","555293.560552","564535.46243","Mapping"
"Mixed","Both","cave","21","m150cave.wav","None","730.053552077","152","563777.041531","556059.989989","556826.571231","557593.845641","558343.203409","559109.8672","559876.759471","560643.408732","564526.412903","565293.414312","566059.896927","552243.610993","553010.316523","553777.339575","554526.571509","555293.560552","565302.960064","Mapping"
"Mixed","Both","cave","21","m150done.wav","space","614.506822429","152","563777.041531","556059.989989","556826.571231","557593.845641","558343.203409","559109.8672","559876.759471","560643.408732","564526.412903","565293.414312","566059.896927","566826.856598","553010.316523","553777.339575","554526.571509","555293.560552","566069.547799","Mapping"
"Mixed","Both","cave","21","m160park.wav","None","723.431969178","152","563777.041531","556059.989989","556826.571231","557593.845641","558343.203409","559109.8672","559876.759471","560643.408732","564526.412903","565293.414312","566059.896927","566826.856598","567593.281707","553777.339575","554526.571509","555293.560552","566836.459857","Mapping"
"Mixed","Both","cave","21","m160cave.wav","None","721.182418056","152","563777.041531","556059.989989","556826.571231","557593.845641","558343.203409","559109.8672","559876.759471","560643.408732","564526.412903","565293.414312","566059.896927","566826.856598","567593.281707","568342.913713","554526.571509","555293.560552","567602.676892","Mapping"
"Mixed","Both","cave","21","m160cling.wav","space","627.600038773","152","563777.041531","556059.989989","556826.571231","557593.845641","558343.203409","559109.8672","559876.759471","560643.408732","564526.412903","565293.414312","566059.896927","566826.856598","567593.281707","568342.913713","569110.311174","555293.560552","568352.427311","Mapping"
"Mixed","Both","cave","21","m150ball.wav","None","735.808828962","152","563777.041531","556059.989989","556826.571231","557593.845641","558343.203409","559109.8672","559876.759471","560643.408732","564526.412903","565293.414312","566059.896927","566826.856598","567593.281707","568342.913713","569110.311174","569876.609213","569119.613916","Mapping"
"Mixed","Both","cave","21","m150tile.wav","None","733.291223878","152","563777.041531","570643.135422","556826.571231","557593.845641","558343.203409","559109.8672","559876.759471","560643.408732","564526.412903","565293.414312","566059.896927","566826.856598","567593.281707","568342.913713","569110.311174","569876.609213","569885.97317","Mapping"
"Mixed","Both","cave","21","m160park.wav","None","730.998388259","152","563777.041531","570643.135422","571409.79674","557593.845641","558343.203409","559109.8672","559876.759471","560643.408732","564526.412903","565293.414312","566059.896927","566826.856598","567593.281707","568342.913713","569110.311174","569876.609213","570652.34572","Mapping"
"Mixed","Both","cave","21","m160done.wav","None","728.406890528","152","563777.041531","570643.135422","571409.79674","572176.871114","558343.203409","559109.8672","559876.759471","560643.408732","564526.412903","565293.414312","566059.896927","566826.856598","567593.281707","568342.913713","569110.311174","569876.609213","571418.880895","Mapping"
"Mixed","Both","cave","21","m160cave.wav","None","724.936410552","152","563777.041531","570643.135422","571409.79674","572176.871114","572942.598726","559109.8672","559876.759471","560643.408732","564526.412903","565293.414312","566059.896927","566826.856598","567593.281707","568342.913713","569110.311174","569876.609213","572186.261352","Mapping"
"Mixed","Both","cave","21","m150gnash.wav","space","524.487366085","152","563777.041531","570643.135422","571409.79674","572176.871114","572942.598726","573710.153867","559876.759471","560643.408732","564526.412903","565293.414312","566059.896927","566826.856598","567593.281707","568342.913713","569110.311174","569876.609213","572951.462131","Mapping"
"Mixed","Both","cave","21","m160cad.wav","None","720.249330509","152","563777.041531","570643.135422","571409.79674","572176.871114","572942.598726","573710.153867","574459.672405","560643.408732","564526.412903","565293.414312","566059.896927","566826.856598","567593.281707","568342.913713","569110.311174","569876.609213","573719.792371","Mapping"
"Mixed","Both","cave","21","m160gnash.wav","None","735.044241301","152","563777.041531","570643.135422","571409.79674","572176.871114","572942.598726","573710.153867","574459.672405","575226.311153","564526.412903","565293.414312","566059.896927","566826.856598","567593.281707","568342.913713","569110.311174","569876.609213","574468.89507","Mapping"
"Mixed","Both","tile","27","m160dime.wav","None","732.3875078","152","578359.989711","570643.135422","571409.79674","572176.871114","572942.598726","573710.153867","574459.672405","575226.311153","564526.412903","565293.414312","566059.896927","566826.856598","567593.281707","568342.913713","569110.311174","569876.609213","575235.472911","Mapping"
"Mixed","Both","tile","27","m160cad.wav","None","720.115458011","152","578359.989711","570643.135422","571409.79674","572176.871114","572942.598726","573710.153867","574459.672405","575226.311153","579109.558026","565293.414312","566059.896927","566826.856598","567593.281707","568342.913713","569110.311174","569876.609213","578370.164632","Mapping"
"Mixed","Both","tile","27","m160reek.wav","None","734.899547766","152","578359.989711","570643.135422","571409.79674","572176.871114","572942.598726","573710.153867","574459.672405","575226.311153","579109.558026","579876.504403","566059.896927","566826.856598","567593.281707","568342.913713","569110.311174","569876.609213","579119.362866","Mapping"
"Mixed","Both","tile","27","m150tile.wav","None","732.794690062","152","578359.989711","570643.135422","571409.79674","572176.871114","572942.598726","573710.153867","574459.672405","575226.311153","579109.558026","579876.504403","580643.138823","566826.856598","567593.281707","568342.913713","569110.311174","569876.609213","579886.050773","Mapping"
"Mixed","Both","tile","27","m160priest.wav","space","479.357214645","152","578359.989711","570643.135422","571409.79674","572176.871114","572942.598726","573710.153867","574459.672405","575226.311153","579109.558026","579876.504403","580643.138823","581409.718518","567593.281707","568342.913713","569110.311174","569876.609213","580652.460732","Mapping"
"Mixed","Both","tile","27","m150jaw.wav","None","726.281627314","152","578359.989711","570643.135422","571409.79674","572176.871114","572942.598726","573710.153867","574459.672405","575226.311153","579109.558026","579876.504403","580643.138823","581409.718518","582176.896467","568342.913713","569110.311174","569876.609213","581419.781828","Mapping"
"Mixed","Both","tile","27","m160tile.wav","None","723.326231586","152","578359.989711","570643.135422","571409.79674","572176.871114","572942.598726","573710.153867","574459.672405","575226.311153","579109.558026","579876.504403","580643.138823","581409.718518","582176.896467","582943.340744","569110.311174","569876.609213","582186.780764","Mapping"
"Mixed","Both","tile","27","m150romp.wav","space","682.639840175","152","578359.989711","570643.135422","571409.79674","572176.871114","572942.598726","573710.153867","574459.672405","575226.311153","579109.558026","579876.504403","580643.138823","581409.718518","582176.896467","582943.340744","583692.870104","569876.609213","582953.169081","Mapping"
"Mixed","Both","tile","27","m160tile.wav","None","728.867560043","152","578359.989711","570643.135422","571409.79674","572176.871114","572942.598726","573710.153867","574459.672405","575226.311153","579109.558026","579876.504403","580643.138823","581409.718518","582176.896467","582943.340744","583692.870104","584459.556774","583708.685599","Mapping"
"Mixed","Both","tile","27","m150priest.wav","space","399.340469739","152","578359.989711","585226.099988","571409.79674","572176.871114","572942.598726","573710.153867","574459.672405","575226.311153","579109.558026","579876.504403","580643.138823","581409.718518","582176.896467","582943.340744","583692.870104","584459.556774","584468.463154","Mapping"
"Mixed","Both","tile","27","m150cad.wav","None","730.003465782","152","578359.989711","585226.099988","585992.959486","572176.871114","572942.598726","573710.153867","574459.672405","575226.311153","579109.558026","579876.504403","580643.138823","581409.718518","582176.896467","582943.340744","583692.870104","584459.556774","585235.240103","Mapping"
"Mixed","Both","tile","27","m160park.wav","None","726.621718961","152","578359.989711","585226.099988","585992.959486","586759.587722","572942.598726","573710.153867","574459.672405","575226.311153","579109.558026","579876.504403","580643.138823","581409.718518","582176.896467","582943.340744","583692.870104","584459.556774","586002.640038","Mapping"
"Mixed","Both","tile","27","m150tile.wav","None","724.983405089","152","578359.989711","585226.099988","585992.959486","586759.587722","587526.688995","573710.153867","574459.672405","575226.311153","579109.558026","579876.504403","580643.138823","581409.718518","582176.896467","582943.340744","583692.870104","584459.556774","586768.56243","Mapping"
"Mixed","Both","tile","27","m150greet.wav","space","642.703505349","152","578359.989711","585226.099988","585992.959486","586759.587722","587526.688995","588276.008735","574459.672405","575226.311153","579109.558026","579876.504403","580643.138823","581409.718518","582176.896467","582943.340744","583692.870104","584459.556774","587537.035199","Mapping"
"Mixed","Both","tile","27","m160cave.wav","None","735.623633722","152","578359.989711","585226.099988","585992.959486","586759.587722","587526.688995","588276.008735","589042.86576","575226.311153","579109.558026","579876.504403","580643.138823","581409.718518","582176.896467","582943.340744","583692.870104","584459.556774","588285.265718","Mapping"
"Mixed","Both","tile","27","m150reek.wav","None","733.319667866","152","578359.989711","585226.099988","585992.959486","586759.587722","587526.688995","588276.008735","589042.86576","589809.501416","579109.558026","579876.504403","580643.138823","581409.718518","582176.896467","582943.340744","583692.870104","584459.556774","589051.900756","Mapping"
"Mixed","Both","tile","26","m150depth.wav","None","731.012919452","152","592943.282929","585226.099988","585992.959486","586759.587722","587526.688995","588276.008735","589042.86576","589809.501416","579109.558026","579876.504403","580643.138823","581409.718518","582176.896467","582943.340744","583692.870104","584459.556774","589818.373787","Mapping"
"Mixed","Both","tile","26","m150tile.wav","None","719.459081301","152","592943.282929","585226.099988","585992.959486","586759.587722","587526.688995","588276.008735","589042.86576","589809.501416","593692.638223","579876.504403","580643.138823","581409.718518","582176.896467","582943.340744","583692.870104","584459.556774","592953.242047","Mapping"
"Mixed","Both","tile","26","m160ball.wav","space","461.617419845","152","592943.282929","585226.099988","585992.959486","586759.587722","587526.688995","588276.008735","589042.86576","589809.501416","593692.638223","594459.306961","580643.138823","581409.718518","582176.896467","582943.340744","583692.870104","584459.556774","593702.031862","Mapping"
"Mixed","Both","tile","26","m160dime.wav","None","732.186235371","152","592943.282929","585226.099988","585992.959486","586759.587722","587526.688995","588276.008735","589042.86576","589809.501416","593692.638223","594459.306961","595226.00909","581409.718518","582176.896467","582943.340744","583692.870104","584459.556774","594468.349996","Mapping"
"Mixed","Both","tile","26","m160depth.wav","space","440.482583712","152","592943.282929","585226.099988","585992.959486","586759.587722","587526.688995","588276.008735","589042.86576","589809.501416","593692.638223","594459.306961","595226.00909","595992.983293","582176.896467","582943.340744","583692.870104","584459.556774","595235.143332","Mapping"
"Mixed","Both","tile","26","m150cling.wav","None","725.268154405","152","592943.282929","585226.099988","585992.959486","586759.587722","587526.688995","588276.008735","589042.86576","589809.501416","593692.638223","594459.306961","595226.00909","595992.983293","596759.944509","582943.340744","583692.870104","584459.556774","596002.557489","Mapping"
"Mixed","Both","tile","26","m160tile.wav","None","722.98459406","152","592943.282929","585226.099988","585992.959486","586759.587722","587526.688995","588276.008735","589042.86576","589809.501416","593692.638223","594459.306961","595226.00909","595992.983293","596759.944509","597526.510293","583692.870104","584459.556774","596769.741929","Mapping"
"Mixed","Both","tile","26","m150cling.wav","space","611.547716544","152","592943.282929","585226.099988","585992.959486","586759.587722","587526.688995","588276.008735","589042.86576","589809.501416","593692.638223","594459.306961","595226.00909","595992.983293","596759.944509","597526.510293","598275.895268","584459.556774","597536.065938","Mapping"
"Mixed","Both","tile","26","m150lash.wav","None","734.93324779","152","592943.282929","585226.099988","585992.959486","586759.587722","587526.688995","588276.008735","589042.86576","589809.501416","593692.638223","594459.306961","595226.00909","595992.983293","596759.944509","597526.510293","598275.895268","599042.554731","598285.052079","Mapping"
"Mixed","Both","tile","26","m150tile.wav","None","732.723270892","152","592943.282929","599809.252222","585992.959486","586759.587722","587526.688995","588276.008735","589042.86576","589809.501416","593692.638223","594459.306961","595226.00909","595992.983293","596759.944509","597526.510293","598275.895268","599042.554731","599051.489245","Mapping"
"Mixed","Both","tile","26","m160dime.wav","space","617.221062304","152","592943.282929","599809.252222","600576.150367","586759.587722","587526.688995","588276.008735","589042.86576","589809.501416","593692.638223","594459.306961","595226.00909","595992.983293","596759.944509","597526.510293","598275.895268","599042.554731","599818.328029","Mapping"
"Mixed","Both","tile","26","m150bluff.wav","None","725.823122077","152","592943.282929","599809.252222","600576.150367","601343.185477","587526.688995","588276.008735","589042.86576","589809.501416","593692.638223","594459.306961","595226.00909","595992.983293","596759.944509","597526.510293","598275.895268","599042.554731","600585.985507","Mapping"
"Mixed","Both","tile","26","m150cad.wav","None","722.872363986","152","592943.282929","599809.252222","600576.150367","601343.185477","602109.582451","588276.008735","589042.86576","589809.501416","593692.638223","594459.306961","595226.00909","595992.983293","596759.944509","597526.510293","598275.895268","599042.554731","601353.127281","Mapping"
"Mixed","Both","tile","26","m160bluff.wav","None","720.656512771","152","592943.282929","599809.252222","600576.150367","601343.185477","602109.582451","602859.464578","589042.86576","589809.501416","593692.638223","594459.306961","595226.00909","595992.983293","596759.944509","597526.510293","598275.895268","599042.554731","602119.703576","Mapping"
"Mixed","Both","tile","26","m160tile.wav","None","736.440471723","152","592943.282929","599809.252222","600576.150367","601343.185477","602109.582451","602859.464578","603626.272445","589809.501416","593692.638223","594459.306961","595226.00909","595992.983293","596759.944509","597526.510293","598275.895268","599042.554731","602868.413006","Mapping"
"Mixed","Both","tile","26","m160priest.wav","None","733.711700654","152","592943.282929","599809.252222","600576.150367","601343.185477","602109.582451","602859.464578","603626.272445","604392.393636","593692.638223","594459.306961","595226.00909","595992.983293","596759.944509","597526.510293","598275.895268","599042.554731","603635.585698","Mapping"
"Mixed","Both","tile","35","m160lash.wav","space","2.22636316903","152","607526.386314","599809.252222","600576.150367","601343.185477","602109.582451","602859.464578","603626.272445","604392.393636","593692.638223","594459.306961","595226.00909","595992.983293","596759.944509","597526.510293","598275.895268","599042.554731","604401.197988","Mapping"
"Mixed","Both","tile","35","m150bluff.wav","None","718.833003659","152","607526.386314","599809.252222","600576.150367","601343.185477","602109.582451","602859.464578","603626.272445","604392.393636","608275.939789","594459.306961","595226.00909","595992.983293","596759.944509","597526.510293","598275.895268","599042.554731","607536.580095","Mapping"
"Mixed","Both","tile","35","m150lash.wav","None","734.218746307","152","607526.386314","599809.252222","600576.150367","601343.185477","602109.582451","602859.464578","603626.272445","604392.393636","608275.939789","609042.920484","595226.00909","595992.983293","596759.944509","597526.510293","598275.895268","599042.554731","608285.414122","Mapping"
"Mixed","Both","tile","35","m150tile.wav","None","731.706397142","152","607526.386314","599809.252222","600576.150367","601343.185477","602109.582451","602859.464578","603626.272445","604392.393636","608275.939789","609042.920484","609809.213266","595992.983293","596759.944509","597526.510293","598275.895268","599042.554731","609052.296808","Mapping"
"Mixed","Both","tile","35","m160gnash.wav","space","384.912857786","152","607526.386314","599809.252222","600576.150367","601343.185477","602109.582451","602859.464578","603626.272445","604392.393636","608275.939789","609042.920484","609809.213266","610575.692171","596759.944509","597526.510293","598275.895268","599042.554731","609818.485708","Mapping"
"Mixed","Both","tile","35","m160tile.wav","None","726.596057415","152","607526.386314","599809.252222","600576.150367","601343.185477","602109.582451","602859.464578","603626.272445","604392.393636","608275.939789","609042.920484","609809.213266","610575.692171","611342.980804","597526.510293","598275.895268","599042.554731","610584.875881","Mapping"
"Mixed","Both","tile","35","m160lash.wav","space","458.413448068","152","607526.386314","599809.252222","600576.150367","601343.185477","602109.582451","602859.464578","603626.272445","604392.393636","608275.939789","609042.920484","609809.213266","610575.692171","611342.980804","612109.566992","598275.895268","599042.554731","611352.966201","Mapping"
"Mixed","Both","tile","35","m150romp.wav","None","719.673338928","152","607526.386314","599809.252222","600576.150367","601343.185477","602109.582451","602859.464578","603626.272445","604392.393636","608275.939789","609042.920484","609809.213266","610575.692171","611342.980804","612109.566992","612859.177356","599042.554731","612119.15912","Mapping"
"Mixed","Both","tile","35","m160park.wav","None","735.135756899","152","607526.386314","599809.252222","600576.150367","601343.185477","602109.582451","602859.464578","603626.272445","604392.393636","608275.939789","609042.920484","609809.213266","610575.692171","611342.980804","612109.566992","612859.177356","613626.091578","612868.142479","Mapping"
"Mixed","Both","tile","35","m150knife.wav","None","732.159646344","152","607526.386314","614392.593053","600576.150367","601343.185477","602109.582451","602859.464578","603626.272445","604392.393636","608275.939789","609042.920484","609809.213266","610575.692171","611342.980804","612109.566992","612859.177356","613626.091578","613635.438531","Mapping"
"Mixed","Both","tile","35","m160cling.wav","None","729.927408975","152","607526.386314","614392.593053","615159.143068","601343.185477","602109.582451","602859.464578","603626.272445","604392.393636","608275.939789","609042.920484","609809.213266","610575.692171","611342.980804","612109.566992","612859.177356","613626.091578","614402.217335","Mapping"
"Mixed","Both","tile","35","m160bluff.wav","None","728.079784196","152","607526.386314","614392.593053","615159.143068","615925.96021","602109.582451","602859.464578","603626.272445","604392.393636","608275.939789","609042.920484","609809.213266","610575.692171","611342.980804","612109.566992","612859.177356","613626.091578","615168.387685","Mapping"
"Mixed","Both","tile","35","m160tile.wav","None","725.385331432","152","607526.386314","614392.593053","615159.143068","615925.96021","616693.034585","602859.464578","603626.272445","604392.393636","608275.939789","609042.920484","609809.213266","610575.692171","611342.980804","612109.566992","612859.177356","613626.091578","615935.408263","Mapping"
"Mixed","Both","tile","35","m150greet.wav","space","500.461133197","152","607526.386314","614392.593053","615159.143068","615925.96021","616693.034585","617459.429085","603626.272445","604392.393636","608275.939789","609042.920484","609809.213266","610575.692171","611342.980804","612109.566992","612859.177356","613626.091578","616702.854265","Mapping"
"Mixed","Both","tile","35","m150tile.wav","None","719.133830047","152","607526.386314","614392.593053","615159.143068","615925.96021","616693.034585","617459.429085","618208.905885","604392.393636","608275.939789","609042.920484","609809.213266","610575.692171","611342.980804","612109.566992","612859.177356","613626.091578","617469.315856","Mapping"
"Mixed","Both","tile","35","m150park.wav","space","624.938358436","152","607526.386314","614392.593053","615159.143068","615925.96021","616693.034585","617459.429085","618208.905885","618975.838658","608275.939789","609042.920484","609809.213266","610575.692171","611342.980804","612109.566992","612859.177356","613626.091578","618218.350537","Mapping"
"Mixed","Both","done","38","m150gnash.wav","None","730.821540696","152","622109.357681","614392.593053","615159.143068","615925.96021","616693.034585","617459.429085","618208.905885","618975.838658","608275.939789","609042.920484","609809.213266","610575.692171","611342.980804","612109.566992","612859.177356","613626.091578","618985.22333","Mapping"
"Mixed","Both","done","38","m160lash.wav","None","719.926552614","152","622109.357681","614392.593053","615159.143068","615925.96021","616693.034585","617459.429085","618208.905885","618975.838658","622858.845612","609042.920484","609809.213266","610575.692171","611342.980804","612109.566992","612859.177356","613626.091578","622119.278462","Mapping"
"Mixed","Both","done","38","m150done.wav","None","735.374439275","152","622109.357681","614392.593053","615159.143068","615925.96021","616693.034585","617459.429085","618208.905885","618975.838658","622858.845612","623625.772201","609809.213266","610575.692171","611342.980804","612109.566992","612859.177356","613626.091578","622868.09703","Mapping"
"Mixed","Both","done","38","m150bluff.wav","space","455.492988927","152","622109.357681","614392.593053","615159.143068","615925.96021","616693.034585","617459.429085","618208.905885","618975.838658","622858.845612","623625.772201","624392.484533","610575.692171","611342.980804","612109.566992","612859.177356","613626.091578","623635.730391","Mapping"
"Mixed","Both","done","38","m150cad.wav","None","728.729359107","152","622109.357681","614392.593053","615159.143068","615925.96021","616693.034585","617459.429085","618208.905885","618975.838658","622858.845612","623625.772201","624392.484533","625158.860174","611342.980804","612109.566992","612859.177356","613626.091578","624402.038323","Mapping"
"Mixed","Both","done","38","m150done.wav","None","726.993037038","152","622109.357681","614392.593053","615159.143068","615925.96021","616693.034585","617459.429085","618208.905885","618975.838658","622858.845612","623625.772201","624392.484533","625158.860174","625926.018644","612109.566992","612859.177356","613626.091578","625168.031207","Mapping"
"Mixed","Both","done","38","m160cling.wav","space","459.596039145","152","622109.357681","614392.593053","615159.143068","615925.96021","616693.034585","617459.429085","618208.905885","618975.838658","622858.845612","623625.772201","624392.484533","625158.860174","625926.018644","626692.491365","612859.177356","613626.091578","625935.587893","Mapping"
"Mixed","Both","done","38","m160done.wav","None","720.341773471","152","622109.357681","614392.593053","615159.143068","615925.96021","616693.034585","617459.429085","618208.905885","618975.838658","622858.845612","623625.772201","624392.484533","625158.860174","625926.018644","626692.491365","627441.787299","613626.091578","626702.147802","Mapping"
"Mixed","Both","done","38","m160reek.wav","space","455.98117495","152","622109.357681","614392.593053","615159.143068","615925.96021","616693.034585","617459.429085","618208.905885","618975.838658","622858.845612","623625.772201","624392.484533","625158.860174","625926.018644","626692.491365","627441.787299","628208.945769","627451.155894","Mapping"
"Mixed","Both","done","38","m150tile.wav","None","731.37558077","152","622109.357681","628975.727665","615159.143068","615925.96021","616693.034585","617459.429085","618208.905885","618975.838658","622858.845612","623625.772201","624392.484533","625158.860174","625926.018644","626692.491365","627441.787299","628208.945769","628218.627248","Mapping"
"Mixed","Both","done","38","m160done.wav","None","728.958457126","152","622109.357681","628975.727665","629742.061876","615925.96021","616693.034585","617459.429085","618208.905885","618975.838658","622858.845612","623625.772201","624392.484533","625158.860174","625926.018644","626692.491365","627441.787299","628208.945769","628985.334015","Mapping"
"Mixed","Both","done","38","m160jolt.wav","space","555.944290594","152","622109.357681","628975.727665","629742.061876","630509.287437","616693.034585","617459.429085","618208.905885","618975.838658","622858.845612","623625.772201","624392.484533","625158.860174","625926.018644","626692.491365","627441.787299","628208.945769","629751.158089","Mapping"
"Mixed","Both","done","38","m150reek.wav","None","723.123104195","152","622109.357681","628975.727665","629742.061876","630509.287437","631276.120656","617459.429085","618208.905885","618975.838658","622858.845612","623625.772201","624392.484533","625158.860174","625926.018644","626692.491365","627441.787299","628208.945769","630518.993341","Mapping"
"Mixed","Both","done","38","m160dime.wav","None","720.176365343","152","622109.357681","628975.727665","629742.061876","630509.287437","631276.120656","632025.410405","618208.905885","618975.838658","622858.845612","623625.772201","624392.484533","625158.860174","625926.018644","626692.491365","627441.787299","628208.945769","631286.343808","Mapping"
"Mixed","Both","done","38","m150park.wav","None","736.347410246","152","622109.357681","628975.727665","629742.061876","630509.287437","631276.120656","632025.410405","632792.139123","618975.838658","622858.845612","623625.772201","624392.484533","625158.860174","625926.018644","626692.491365","627441.787299","628208.945769","632034.650384","Mapping"
"Mixed","Both","done","38","m160romp.wav","None","734.099714202","152","622109.357681","628975.727665","629742.061876","630509.287437","631276.120656","632025.410405","632792.139123","633558.848673","622858.845612","623625.772201","624392.484533","625158.860174","625926.018644","626692.491365","627441.787299","628208.945769","632801.497825","Mapping"
"Mixed","Both","tile","34","m160cling.wav","None","731.877988786","152","636692.59463","628975.727665","629742.061876","630509.287437","631276.120656","632025.410405","632792.139123","633558.848673","622858.845612","623625.772201","624392.484533","625158.860174","625926.018644","626692.491365","627441.787299","628208.945769","633568.077212","Mapping"
"Mixed","Both","tile","34","m150dime.wav","None","719.559253659","152","636692.59463","628975.727665","629742.061876","630509.287437","631276.120656","632025.410405","632792.139123","633558.848673","637441.633948","623625.772201","624392.484533","625158.860174","625926.018644","626692.491365","627441.787299","628208.945769","636702.422967","Mapping"
"Mixed","Both","tile","34","m150knife.wav","None","735.651150229","152","636692.59463","628975.727665","629742.061876","630509.287437","631276.120656","632025.410405","632792.139123","633558.848673","637441.633948","638208.793655","624392.484533","625158.860174","625926.018644","626692.491365","627441.787299","628208.945769","637450.779629","Mapping"
"Mixed","Both","tile","34","m160park.wav","None","732.676276471","152","636692.59463","628975.727665","629742.061876","630509.287437","631276.120656","632025.410405","632792.139123","633558.848673","637441.633948","638208.793655","638975.520209","625158.860174","625926.018644","626692.491365","627441.787299","628208.945769","638218.197805","Mapping"
"Mixed","Both","tile","34","m160tile.wav","None","730.357779423","152","636692.59463","628975.727665","629742.061876","630509.287437","631276.120656","632025.410405","632792.139123","633558.848673","637441.633948","638208.793655","638975.520209","639741.93326","625926.018644","626692.491365","627441.787299","628208.945769","638985.005981","Mapping"
"Mixed","Both","tile","34","m160gnash.wav","space","452.085889876","152","636692.59463","628975.727665","629742.061876","630509.287437","631276.120656","632025.410405","632792.139123","633558.848673","637441.633948","638208.793655","638975.520209","639741.93326","640508.769261","626692.491365","627441.787299","628208.945769","639750.867774","Mapping"
"Mixed","Both","tile","34","m150tile.wav","None","725.131190266","152","636692.59463","628975.727665","629742.061876","630509.287437","631276.120656","632025.410405","632792.139123","633558.848673","637441.633948","638208.793655","638975.520209","639741.93326","640508.769261","641275.877336","627441.787299","628208.945769","640518.305429","Mapping"
"Mixed","Both","tile","34","m150cling.wav","space","525.084072258","152","636692.59463","628975.727665","629742.061876","630509.287437","631276.120656","632025.410405","632792.139123","633558.848673","637441.633948","638208.793655","638975.520209","639741.93326","640508.769261","641275.877336","642025.812332","628208.945769","641285.728552","Mapping"
"Mixed","Both","tile","34","m150gnash.wav","None","735.679594101","152","636692.59463","628975.727665","629742.061876","630509.287437","631276.120656","632025.410405","632792.139123","633558.848673","637441.633948","638208.793655","638975.520209","639741.93326","640508.769261","641275.877336","642025.812332","642791.853137","642035.300887","Mapping"
"Mixed","Both","tile","34","m160cling.wav","None","734.974677092","152","636692.59463","643558.597314","629742.061876","630509.287437","631276.120656","632025.410405","632792.139123","633558.848673","637441.633948","638208.793655","638975.520209","639741.93326","640508.769261","641275.877336","642025.812332","642791.853137","642800.757971","Mapping"
"Mixed","Both","tile","34","m150tile.wav","None","732.513650903","152","636692.59463","643558.597314","644325.586975","630509.287437","631276.120656","632025.410405","632792.139123","633558.848673","637441.633948","638208.793655","638975.520209","639741.93326","640508.769261","641275.877336","642025.812332","642791.853137","643567.812868","Mapping"
"Mixed","Both","tile","34","m150depth.wav","space","611.78268888","152","636692.59463","643558.597314","644325.586975","645092.205318","631276.120656","632025.410405","632792.139123","633558.848673","637441.633948","638208.793655","638975.520209","639741.93326","640508.769261","641275.877336","642025.812332","642791.853137","644335.111085","Mapping"
"Mixed","Both","tile","34","m150dime.wav","None","725.798697327","152","636692.59463","643558.597314","644325.586975","645092.205318","645858.51665","632025.410405","632792.139123","633558.848673","637441.633948","638208.793655","638975.520209","639741.93326","640508.769261","641275.877336","642025.812332","642791.853137","645102.093325","Mapping"
"Mixed","Both","tile","34","m160cad.wav","None","725.004428881","152","636692.59463","643558.597314","644325.586975","645092.205318","645858.51665","646625.597518","632792.139123","633558.848673","637441.633948","638208.793655","638975.520209","639741.93326","640508.769261","641275.877336","642025.812332","642791.853137","645867.428286","Mapping"
"Mixed","Both","tile","34","m160tile.wav","None","722.555769607","152","636692.59463","643558.597314","644325.586975","645092.205318","645858.51665","646625.597518","647392.429809","633558.848673","637441.633948","638208.793655","638975.520209","639741.93326","640508.769261","641275.877336","642025.812332","642791.853137","646634.801014","Mapping"
"Mixed","Both","tile","34","m160greet.wav","space","680.483041331","152","636692.59463","643558.597314","644325.586975","645092.205318","645858.51665","646625.597518","647392.429809","648141.963806","637441.633948","638208.793655","638975.520209","639741.93326","640508.769261","641275.877336","642025.812332","642791.853137","647402.336058","Mapping"
"Mixed","Both","ball","6","m160jaw.wav","None","733.625441091","152","651275.939789","643558.597314","644325.586975","645092.205318","645858.51665","646625.597518","647392.429809","648141.963806","637441.633948","638208.793655","638975.520209","639741.93326","640508.769261","641275.877336","642025.812332","642791.853137","648151.749168","Mapping"
"Mixed","Both","ball","6","m160cling.wav","None","719.978493871","152","651275.939789","643558.597314","644325.586975","645092.205318","645858.51665","646625.597518","647392.429809","648141.963806","652025.317962","638208.793655","638975.520209","639741.93326","640508.769261","641275.877336","642025.812332","642791.853137","651285.733808","Mapping"
"Mixed","Both","ball","6","m150ball.wav","None","735.249842168","152","651275.939789","643558.597314","644325.586975","645092.205318","645858.51665","646625.597518","647392.429809","648141.963806","652025.317962","652792.058429","638975.520209","639741.93326","640508.769261","641275.877336","642025.812332","642791.853137","652035.140116","Mapping"
"Mixed","Both","ball","6","m150park.wav","space","497.023116681","152","651275.939789","643558.597314","644325.586975","645092.205318","645858.51665","646625.597518","647392.429809","648141.963806","652025.317962","652792.058429","653558.536407","639741.93326","640508.769261","641275.877336","642025.812332","642791.853137","652801.737435","Mapping"
"Mixed","Both","ball","6","m150romp.wav","None","730.105802417","152","651275.939789","643558.597314","644325.586975","645092.205318","645858.51665","646625.597518","647392.429809","648141.963806","652025.317962","652792.058429","653558.536407","654325.876671","640508.769261","641275.877336","642025.812332","642791.853137","653567.783806","Mapping"
"Mixed","Both","ball","6","m150knife.wav","None","726.925637107","152","651275.939789","643558.597314","644325.586975","645092.205318","645858.51665","646625.597518","647392.429809","648141.963806","652025.317962","652792.058429","653558.536407","654325.876671","655091.877593","641275.877336","642025.812332","642791.853137","654335.4385","Mapping"
"Mixed","Both","ball","6","m160tile.wav","None","726.028413745","152","651275.939789","643558.597314","644325.586975","645092.205318","645858.51665","646625.597518","647392.429809","648141.963806","652025.317962","652792.058429","653558.536407","654325.876671","655091.877593","655858.941147","642025.812332","642791.853137","655101.329047","Mapping"
"Mixed","Both","ball","6","m150ball.wav","None","723.131451872","152","651275.939789","643558.597314","644325.586975","645092.205318","645858.51665","646625.597518","647392.429809","648141.963806","652025.317962","652792.058429","653558.536407","654325.876671","655091.877593","655858.941147","656625.675739","642791.853137","655868.986215","Mapping"
"Mixed","Both","ball","6","m160tile.wav","space","518.810619367","152","651275.939789","643558.597314","644325.586975","645092.205318","645858.51665","646625.597518","647392.429809","648141.963806","652025.317962","652792.058429","653558.536407","654325.876671","655091.877593","655858.941147","656625.675739","657375.109873","656635.939393","Mapping"
"Mixed","Both","ball","6","m150dime.wav","None","735.397008946","152","651275.939789","658141.933507","644325.586975","645092.205318","645858.51665","646625.597518","647392.429809","648141.963806","652025.317962","652792.058429","653558.536407","654325.876671","655091.877593","655858.941147","656625.675739","657375.109873","657384.597191","Mapping"
"Mixed","Both","ball","6","m160ball.wav","None","732.921451447","152","651275.939789","658141.933507","658908.350577","645092.205318","645858.51665","646625.597518","647392.429809","648141.963806","652025.317962","652792.058429","653558.536407","654325.876671","655091.877593","655858.941147","656625.675739","657375.109873","658151.556862","Mapping"
"Mixed","Both","ball","6","m150bluff.wav","space","557.168620173","152","651275.939789","658141.933507","658908.350577","659674.989635","645858.51665","646625.597518","647392.429809","648141.963806","652025.317962","652792.058429","653558.536407","654325.876671","655091.877593","655858.941147","656625.675739","657375.109873","658917.517282","Mapping"
"Mixed","Both","ball","6","m160ball.wav","None","728.128324612","152","651275.939789","658141.933507","658908.350577","659674.989635","660441.491419","646625.597518","647392.429809","648141.963806","652025.317962","652792.058429","653558.536407","654325.876671","655091.877593","655858.941147","656625.675739","657375.109873","659684.110891","Mapping"
"Mixed","Both","ball","6","m160jolt.wav","space","560.133600375","152","651275.939789","658141.933507","658908.350577","659674.989635","660441.491419","661208.538277","647392.429809","648141.963806","652025.317962","652792.058429","653558.536407","654325.876671","655091.877593","655858.941147","656625.675739","657375.109873","660450.507247","Mapping"
"Mixed","Both","ball","6","m150romp.wav","None","722.308739438","152","651275.939789","658141.933507","658908.350577","659674.989635","660441.491419","661208.538277","661975.460847","648141.963806","652025.317962","652792.058429","653558.536407","654325.876671","655091.877593","655858.941147","656625.675739","657375.109873","661217.991895","Mapping"
"Mixed","Both","ball","6","m160gnash.wav","None","719.3749859","152","651275.939789","658141.933507","658908.350577","659674.989635","660441.491419","661208.538277","661975.460847","662724.846132","652025.317962","652792.058429","653558.536407","654325.876671","655091.877593","655858.941147","656625.675739","657375.109873","661985.527558","Mapping"
"Mixed","Both","done","37","m160knife.wav","None","735.375366756","152","665858.800472","658141.933507","658908.350577","659674.989635","660441.491419","661208.538277","661975.460847","662724.846132","652025.317962","652792.058429","653558.536407","654325.876671","655091.877593","655858.941147","656625.675739","657375.109873","662734.161858","Mapping"
"Mixed","Both","done","37","m160cad.wav","None","719.788351678","152","665858.800472","658141.933507","658908.350577","659674.989635","660441.491419","661208.538277","661975.460847","662724.846132","666608.306644","652792.058429","653558.536407","654325.876671","655091.877593","655858.941147","656625.675739","657375.109873","665868.694354","Mapping"
"Mixed","Both","done","37","m150park.wav","None","735.087216482","152","665858.800472","658141.933507","658908.350577","659674.989635","660441.491419","661208.538277","661975.460847","662724.846132","666608.306644","667374.942919","653558.536407","654325.876671","655091.877593","655858.941147","656625.675739","657375.109873","666617.964935","Mapping"
"Mixed","Both","done","37","m160cave.wav","None","733.713864814","152","665858.800472","658141.933507","658908.350577","659674.989635","660441.491419","661208.538277","661975.460847","662724.846132","666608.306644","667374.942919","668141.316705","654325.876671","655091.877593","655858.941147","656625.675739","657375.109873","667384.27565","Mapping"
"Mixed","Both","done","37","m160lash.wav","None","734.472269076","152","665858.800472","658141.933507","658908.350577","659674.989635","660441.491419","661208.538277","661975.460847","662724.846132","666608.306644","667374.942919","668141.316705","668908.293689","655091.877593","655858.941147","656625.675739","657375.109873","668150.067261","Mapping"
"Mixed","Both","done","37","m160done.wav","None","731.223157956","152","665858.800472","658141.933507","658908.350577","659674.989635","660441.491419","661208.538277","661975.460847","662724.846132","666608.306644","667374.942919","668141.316705","668908.293689","669674.889772","655858.941147","656625.675739","657375.109873","668917.927865","Mapping"
"Mixed","Both","done","37","m160cling.wav","space","430.292203557","152","665858.800472","658141.933507","658908.350577","659674.989635","660441.491419","661208.538277","661975.460847","662724.846132","666608.306644","667374.942919","668141.316705","668908.293689","669674.889772","670441.335595","656625.675739","657375.109873","669684.263932","Mapping"
"Mixed","Both","done","37","m160lash.wav","None","726.191657712","152","665858.800472","658141.933507","658908.350577","659674.989635","660441.491419","661208.538277","661975.460847","662724.846132","666608.306644","667374.942919","668141.316705","668908.293689","669674.889772","670441.335595","671208.814988","657375.109873","670450.762315","Mapping"
"Mixed","Both","done","37","m150done.wav","None","722.97964734","152","665858.800472","658141.933507","658908.350577","659674.989635","660441.491419","661208.538277","661975.460847","662724.846132","666608.306644","667374.942919","668141.316705","668908.293689","669674.889772","670441.335595","671208.814988","671975.5907","671218.665895","Mapping"
"Mixed","Both","done","37","m150depth.wav","space","497.163172462","152","665858.800472","672724.860354","658908.350577","659674.989635","660441.491419","661208.538277","661975.460847","662724.846132","666608.306644","667374.942919","668141.316705","668908.293689","669674.889772","670441.335595","671208.814988","671975.5907","671985.32845","Mapping"
"Mixed","Both","done","37","m150done.wav","None","735.09556416","152","665858.800472","672724.860354","673491.860526","659674.989635","660441.491419","661208.538277","661975.460847","662724.846132","666608.306644","667374.942919","668141.316705","668908.293689","669674.889772","670441.335595","671208.814988","671975.5907","672734.350764","Mapping"
"Mixed","Both","done","37","m150reek.wav","space","580.957716331","152","665858.800472","672724.860354","673491.860526","674258.083745","660441.491419","661208.538277","661975.460847","662724.846132","666608.306644","667374.942919","668141.316705","668908.293689","669674.889772","670441.335595","671208.814988","671975.5907","673501.486355","Mapping"
"Mixed","Both","done","37","m150park.wav","None","729.716243106","152","665858.800472","672724.860354","673491.860526","674258.083745","675024.76856","661208.538277","661975.460847","662724.846132","666608.306644","667374.942919","668141.316705","668908.293689","669674.889772","670441.335595","671208.814988","671975.5907","674267.358351","Mapping"
"Mixed","Both","done","37","m150jaw.wav","None","727.800909197","152","665858.800472","672724.860354","673491.860526","674258.083745","675024.76856","675791.687729","661975.460847","662724.846132","666608.306644","667374.942919","668141.316705","668908.293689","669674.889772","670441.335595","671208.814988","671975.5907","675033.914859","Mapping"
"Mixed","Both","done","37","m160done.wav","None","725.050186738","152","665858.800472","672724.860354","673491.860526","674258.083745","675024.76856","675791.687729","676558.601952","662724.846132","666608.306644","667374.942919","668141.316705","668908.293689","669674.889772","670441.335595","671208.814988","671975.5907","675801.292843","Mapping"
"Mixed","Both","done","37","m150reek.wav","space","593.626436545","152","665858.800472","672724.860354","673491.860526","674258.083745","675024.76856","675791.687729","676558.601952","677308.503557","666608.306644","667374.942919","668141.316705","668908.293689","669674.889772","670441.335595","671208.814988","671975.5907","676568.786767","Mapping"
"Mixed","Both","ball","1","m160lash.wav","None","735.984439962","152","680441.454009","672724.860354","673491.860526","674258.083745","675024.76856","675791.687729","676558.601952","677308.503557","666608.306644","667374.942919","668141.316705","668908.293689","669674.889772","670441.335595","671208.814988","671975.5907","677317.888229","Mapping"
"Mixed","Both","ball","1","m150romp.wav","None","720.470389933","152","680441.454009","672724.860354","673491.860526","674258.083745","675024.76856","675791.687729","676558.601952","677308.503557","681191.196389","667374.942919","668141.316705","668908.293689","669674.889772","670441.335595","671208.814988","671975.5907","680450.887531","Mapping"
"Mixed","Both","ball","1","m160cling.wav","None","735.69567129","152","680441.454009","672724.860354","673491.860526","674258.083745","675024.76856","675791.687729","676558.601952","677308.503557","681191.196389","681958.177084","668141.316705","668908.293689","669674.889772","670441.335595","671208.814988","671975.5907","681200.254265","Mapping"
"Mixed","Both","ball","1","m160lash.wav","None","733.402217389","152","680441.454009","672724.860354","673491.860526","674258.083745","675024.76856","675791.687729","676558.601952","677308.503557","681191.196389","681958.177084","682724.881378","668908.293689","669674.889772","670441.335595","671208.814988","671975.5907","681967.157048","Mapping"
"Mixed","Both","ball","1","m160gnash.wav","None","730.367982178","152","680441.454009","672724.860354","673491.860526","674258.083745","675024.76856","675791.687729","676558.601952","677308.503557","681191.196389","681958.177084","682724.881378","683491.329056","669674.889772","670441.335595","671208.814988","671975.5907","682734.692401","Mapping"
"Mixed","Both","ball","1","m160knife.wav","None","729.523009155","152","680441.454009","672724.860354","673491.860526","674258.083745","675024.76856","675791.687729","676558.601952","677308.503557","681191.196389","681958.177084","682724.881378","683491.329056","684257.993157","670441.335595","671208.814988","671975.5907","683500.128153","Mapping"
"Mixed","Both","ball","1","m160ball.wav","None","726.974486606","152","680441.454009","672724.860354","673491.860526","674258.083745","675024.76856","675791.687729","676558.601952","677308.503557","681191.196389","681958.177084","682724.881378","683491.329056","684257.993157","685025.476569","671208.814988","671975.5907","684267.206237","Mapping"
"Mixed","Both","ball","1","m160cling.wav","space","423.135131015","152","680441.454009","672724.860354","673491.860526","674258.083745","675024.76856","675791.687729","676558.601952","677308.503557","681191.196389","681958.177084","682724.881378","683491.329056","684257.993157","685025.476569","685791.930122","671975.5907","685035.172579","Mapping"
"Mixed","Both","ball","1","m150romp.wav","None","719.94015621","152","680441.454009","672724.860354","673491.860526","674258.083745","675024.76856","675791.687729","676558.601952","677308.503557","681191.196389","681958.177084","682724.881378","683491.329056","684257.993157","685025.476569","685791.930122","686541.206886","685801.817202","Mapping"
"Mixed","Both","ball","1","m150ball.wav","None","735.666299704","152","680441.454009","687308.058655","673491.860526","674258.083745","675024.76856","675791.687729","676558.601952","677308.503557","681191.196389","681958.177084","682724.881378","683491.329056","684257.993157","685025.476569","685791.930122","686541.206886","686550.694204","Mapping"
"Mixed","Both","ball","1","m150cave.wav","space","412.607132806","152","680441.454009","687308.058655","688074.551164","674258.083745","675024.76856","675791.687729","676558.601952","677308.503557","681191.196389","681958.177084","682724.881378","683491.329056","684257.993157","685025.476569","685791.930122","686541.206886","687317.641199","Mapping"
"Mixed","Both","ball","1","m160ball.wav","None","730.410029879","152","680441.454009","687308.058655","688074.551164","688841.250201","675024.76856","675791.687729","676558.601952","677308.503557","681191.196389","681958.177084","682724.881378","683491.329056","684257.993157","685025.476569","685791.930122","686541.206886","688083.594508","Mapping"
"Mixed","Both","ball","1","m150tile.wav","space","447.875865386","152","680441.454009","687308.058655","688074.551164","688841.250201","689607.976137","675791.687729","676558.601952","677308.503557","681191.196389","681958.177084","682724.881378","683491.329056","684257.993157","685025.476569","685791.930122","686541.206886","688850.346105","Mapping"
"Mixed","Both","ball","1","m150ball.wav","None","725.538681843","152","680441.454009","687308.058655","688074.551164","688841.250201","689607.976137","690374.888813","676558.601952","677308.503557","681191.196389","681958.177084","682724.881378","683491.329056","684257.993157","685025.476569","685791.930122","686541.206886","689617.137276","Mapping"
"Mixed","Both","ball","1","m150jaw.wav","space","313.625336043","152","680441.454009","687308.058655","688074.551164","688841.250201","689607.976137","690374.888813","691141.941855","677308.503557","681191.196389","681958.177084","682724.881378","683491.329056","684257.993157","685025.476569","685791.930122","686541.206886","690384.618215","Mapping"
"Mixed","Both","ball","1","m150romp.wav","None","719.237712561","152","680441.454009","687308.058655","688074.551164","688841.250201","689607.976137","690374.888813","691141.941855","691891.351873","681191.196389","681958.177084","682724.881378","683491.329056","684257.993157","685025.476569","685791.930122","686541.206886","691151.593963","Mapping"
"Mixed","Both","cave","16","m160lash.wav","None","735.011468874","152","695025.198003","687308.058655","688074.551164","688841.250201","689607.976137","690374.888813","691141.941855","691891.351873","681191.196389","681958.177084","682724.881378","683491.329056","684257.993157","685025.476569","685791.930122","686541.206886","691900.672856","Mapping"
"Mixed","Both","cave","16","m150cave.wav","None","718.994083349","152","695025.198003","687308.058655","688074.551164","688841.250201","689607.976137","690374.888813","691141.941855","691891.351873","695774.363774","681958.177084","682724.881378","683491.329056","684257.993157","685025.476569","685791.930122","686541.206886","695035.049219","Mapping"
"Mixed","Both","cave","16","m150bluff.wav","space","530.574696022","152","695025.198003","687308.058655","688074.551164","688841.250201","689607.976137","690374.888813","691141.941855","691891.351873","695774.363774","696541.221726","682724.881378","683491.329056","684257.993157","685025.476569","685791.930122","686541.206886","695783.533261","Mapping"
"Mixed","Both","cave","16","m160jaw.wav","None","731.426285231","152","695025.198003","687308.058655","688074.551164","688841.250201","689607.976137","690374.888813","691141.941855","691891.351873","695774.363774","696541.221726","697307.747626","683491.329056","684257.993157","685025.476569","685791.930122","686541.206886","696550.28022","Mapping"
"Mixed","Both","cave","16","m150cave.wav","None","729.17487903","152","695025.198003","687308.058655","688074.551164","688841.250201","689607.976137","690374.888813","691141.941855","691891.351873","695774.363774","696541.221726","697307.747626","698074.42533","684257.993157","685025.476569","685791.930122","686541.206886","697317.138482","Mapping"
"Mixed","Both","cave","16","m150cad.wav","space","470.462583238","152","695025.198003","687308.058655","688074.551164","688841.250201","689607.976137","690374.888813","691141.941855","691891.351873","695774.363774","696541.221726","697307.747626","698074.42533","698841.639761","685025.476569","685791.930122","686541.206886","698083.645522","Mapping"
"Mixed","Both","cave","16","m160knife.wav","None","723.243063665","152","695025.198003","687308.058655","688074.551164","688841.250201","689607.976137","690374.888813","691141.941855","691891.351873","695774.363774","696541.221726","697307.747626","698074.42533","698841.639761","699608.123922","685791.930122","686541.206886","698850.847895","Mapping"
"Mixed","Both","cave","16","m150reek.wav","None","721.2692959","152","695025.198003","687308.058655","688074.551164","688841.250201","689607.976137","690374.888813","691141.941855","691891.351873","695774.363774","696541.221726","697307.747626","698074.42533","698841.639761","699608.123922","700357.887017","686541.206886","699617.362355","Mapping"
"Mixed","Both","cave","16","m160cave.wav","None","736.576508381","152","695025.198003","687308.058655","688074.551164","688841.250201","689607.976137","690374.888813","691141.941855","691891.351873","695774.363774","696541.221726","697307.747626","698074.42533","698841.639761","699608.123922","700357.887017","701124.86833","700366.810711","Mapping"
"Mixed","Both","cave","16","m160priest.wav","space","443.594421609","152","695025.198003","701891.317246","688074.551164","688841.250201","689607.976137","690374.888813","691141.941855","691891.351873","695774.363774","696541.221726","697307.747626","698074.42533","698841.639761","699608.123922","700357.887017","701124.86833","701134.436961","Mapping"
"Mixed","Both","cave","16","m150ball.wav","None","730.237510637","152","695025.198003","701891.317246","702657.866333","688841.250201","689607.976137","690374.888813","691141.941855","691891.351873","695774.363774","696541.221726","697307.747626","698074.42533","698841.639761","699608.123922","700357.887017","701124.86833","701900.871036","Mapping"
"Mixed","Both","cave","16","m150lash.wav","space","692.230113316","152","695025.198003","701891.317246","702657.866333","703424.610819","689607.976137","690374.888813","691141.941855","691891.351873","695774.363774","696541.221726","697307.747626","698074.42533","698841.639761","699608.123922","700357.887017","701124.86833","702661.772749","Mapping"
"Mixed","Both","cave","16","m160cave.wav","space","135.930272634","152","695025.198003","701891.317246","702657.866333","703424.610819","704191.453932","690374.888813","691141.941855","691891.351873","695774.363774","696541.221726","697307.747626","698074.42533","698841.639761","699608.123922","700357.887017","701124.86833","703434.04836","Mapping"
"Mixed","Both","cave","16","m160priest.wav","space","529.122814187","152","695025.198003","701891.317246","702657.866333","703424.610819","704191.453932","704940.995349","691141.941855","691891.351873","695774.363774","696541.221726","697307.747626","698074.42533","698841.639761","699608.123922","700357.887017","701124.86833","704200.868594","Mapping"
