"Condition","Talker","Target","Trial","current_stimulus","response_response","response_time_response","subject_nr","time_Audio1","time_Audio10","time_Audio11","time_Audio12","time_Audio13","time_Audio14","time_Audio15","time_Audio16","time_Audio2","time_Audio3","time_Audio4","time_Audio5","time_Audio6","time_Audio7","time_Audio8","time_Audio9","time_response","title"
"Mixed","Both","ball","3","m150cave.wav","NA","NA","164","334434.15719","NA","NA","NA","NA","NA","NA","NA","NA","NA","NA","NA","NA","NA","NA","NA","NA","Mapping"
"Mixed","Both","ball","3","m150jolt.wav","None","715.033562388","164","334434.15719","NA","NA","NA","NA","NA","NA","NA","335183.55144","NA","NA","NA","NA","NA","NA","NA","334449.146571","Mapping"
"Mixed","Both","ball","3","m150ball.wav","None","734.410434263","164","334434.15719","NA","NA","NA","NA","NA","NA","NA","335183.55144","335950.2007","NA","NA","NA","NA","NA","NA","335193.698536","Mapping"
"Mixed","Both","ball","3","m160reek.wav","space","440.590485465","164","334434.15719","NA","NA","NA","NA","NA","NA","NA","335183.55144","335950.2007","336716.723199","NA","NA","NA","NA","NA","335959.862084","Mapping"
"Mixed","Both","ball","3","m150bluff.wav","None","729.851352284","164","334434.15719","NA","NA","NA","NA","NA","NA","NA","335183.55144","335950.2007","336716.723199","337483.729246","NA","NA","NA","NA","336726.079737","Mapping"
"Mixed","Both","ball","3","m150ball.wav","None","725.685539423","164","334434.15719","NA","NA","NA","NA","NA","NA","NA","335183.55144","335950.2007","336716.723199","337483.729246","338250.871639","NA","NA","NA","337493.960128","Mapping"
"Mixed","Both","ball","3","m160gnash.wav","space","402.925034752","164","334434.15719","NA","NA","NA","NA","NA","NA","NA","335183.55144","335950.2007","336716.723199","337483.729246","338250.871639","339016.728795","NA","NA","338261.496718","Mapping"
"Mixed","Both","ball","3","m160ball.wav","None","721.086264821","164","334434.15719","NA","NA","NA","NA","NA","NA","NA","335183.55144","335950.2007","336716.723199","337483.729246","338250.871639","339016.728795","339766.638748","NA","339026.032155","Mapping"
"Mixed","Both","ball","3","m160cling.wav","space","399.995609885","164","334434.15719","NA","NA","NA","NA","NA","NA","NA","335183.55144","335950.2007","336716.723199","337483.729246","338250.871639","339016.728795","339766.638748","340533.320781","339776.412671","Mapping"
"Mixed","Both","ball","3","m160gnash.wav","None","731.621683342","164","334434.15719","341300.141014","NA","NA","NA","NA","NA","NA","335183.55144","335950.2007","336716.723199","337483.729246","338250.871639","339016.728795","339766.638748","340533.320781","340543.17447","Mapping"
"Mixed","Both","ball","3","m160ball.wav","None","729.250935838","164","334434.15719","341300.141014","342066.786874","NA","NA","NA","NA","NA","335183.55144","335950.2007","336716.723199","337483.729246","338250.871639","339016.728795","339766.638748","340533.320781","341309.362443","Mapping"
"Mixed","Both","ball","3","m150priest.wav","space","363.293236587","164","334434.15719","341300.141014","342066.786874","342833.582373","NA","NA","NA","NA","335183.55144","335950.2007","336716.723199","337483.729246","338250.871639","339016.728795","339766.638748","340533.320781","342077.062586","Mapping"
"Mixed","Both","ball","3","m160depth.wav","None","723.21554739","164","334434.15719","341300.141014","342066.786874","342833.582373","343600.384675","NA","NA","NA","335183.55144","335950.2007","336716.723199","337483.729246","338250.871639","339016.728795","339766.638748","340533.320781","342843.574263","Mapping"
"Mixed","Both","ball","3","m150cave.wav","None","720.324459719","164","334434.15719","341300.141014","342066.786874","342833.582373","343600.384675","344349.816026","NA","NA","335183.55144","335950.2007","336716.723199","337483.729246","338250.871639","339016.728795","339766.638748","340533.320781","343610.411811","Mapping"
"Mixed","Both","ball","3","m150cling.wav","None","734.788245056","164","334434.15719","341300.141014","342066.786874","342833.582373","343600.384675","344349.816026","345116.706442","NA","335183.55144","335950.2007","336716.723199","337483.729246","338250.871639","339016.728795","339766.638748","340533.320781","344359.823684","Mapping"
"Mixed","Both","ball","3","m160greet.wav","None","732.080498012","164","334434.15719","341300.141014","342066.786874","342833.582373","343600.384675","344349.816026","345116.706442","345883.3152","335183.55144","335950.2007","336716.723199","337483.729246","338250.871639","339016.728795","339766.638748","340533.320781","345126.349584","Mapping"
"Mixed","Both","tile","29","m160reek.wav","None","729.273505509","164","349033.485725","341300.141014","342066.786874","342833.582373","343600.384675","344349.816026","345116.706442","345883.3152","335183.55144","335950.2007","336716.723199","337483.729246","338250.871639","339016.728795","339766.638748","340533.320781","345893.061606","Mapping"
"Mixed","Both","tile","29","m160jaw.wav","None","720.610136632","164","349033.485725","341300.141014","342066.786874","342833.582373","343600.384675","344349.816026","345116.706442","345883.3152","349782.730645","335950.2007","336716.723199","337483.729246","338250.871639","339016.728795","339766.638748","340533.320781","349043.335086","Mapping"
"Mixed","Both","tile","29","m150tile.wav","None","736.002681078","164","349033.485725","341300.141014","342066.786874","342833.582373","343600.384675","344349.816026","345116.706442","345883.3152","349782.730645","350550.031335","336716.723199","337483.729246","338250.871639","339016.728795","339766.638748","340533.320781","349791.799959","Mapping"
"Mixed","Both","tile","29","m160knife.wav","space","415.093202144","164","349033.485725","341300.141014","342066.786874","342833.582373","343600.384675","344349.816026","345116.706442","345883.3152","349782.730645","350550.031335","351317.319967","337483.729246","338250.871639","339016.728795","339766.638748","340533.320781","350561.169952","Mapping"
"Mixed","Both","tile","29","m150cad.wav","None","728.794285795","164","349033.485725","341300.141014","342066.786874","342833.582373","343600.384675","344349.816026","345116.706442","345883.3152","349782.730645","350550.031335","351317.319967","352083.053453","338250.871639","339016.728795","339766.638748","340533.320781","351326.657336","Mapping"
"Mixed","Both","tile","29","m150tile.wav","None","726.714780554","164","349033.485725","341300.141014","342066.786874","342833.582373","343600.384675","344349.816026","345116.706442","345883.3152","349782.730645","350550.031335","351317.319967","352083.053453","352849.952217","339016.728795","339766.638748","340533.320781","352092.569525","Mapping"
"Mixed","Both","tile","29","m150bluff.wav","space","452.607466606","164","349033.485725","341300.141014","342066.786874","342833.582373","343600.384675","344349.816026","345116.706442","345883.3152","349782.730645","350550.031335","351317.319967","352083.053453","352849.952217","353616.880043","339766.638748","340533.320781","352859.557331","Mapping"
"Mixed","Both","tile","29","m160ball.wav","None","721.356173977","164","349033.485725","341300.141014","342066.786874","342833.582373","343600.384675","344349.816026","345116.706442","345883.3152","349782.730645","350550.031335","351317.319967","352083.053453","352849.952217","353616.880043","354366.946748","340533.320781","353626.537716","Mapping"
"Mixed","Both","tile","29","m150cling.wav","None","735.37351191","164","349033.485725","341300.141014","342066.786874","342833.582373","343600.384675","344349.816026","345116.706442","345883.3152","349782.730645","350550.031335","351317.319967","352083.053453","352849.952217","353616.880043","354366.946748","355133.137502","354376.442413","Mapping"
"Mixed","Both","tile","29","m160cling.wav","None","732.816950651","164","349033.485725","355899.872713","342066.786874","342833.582373","343600.384675","344349.816026","345116.706442","345883.3152","349782.730645","350550.031335","351317.319967","352083.053453","352849.952217","353616.880043","354366.946748","355133.137502","355142.983153","Mapping"
"Mixed","Both","tile","29","m150cave.wav","None","730.266882339","164","349033.485725","355899.872713","356666.525683","342833.582373","343600.384675","344349.816026","345116.706442","345883.3152","349782.730645","350550.031335","351317.319967","352083.053453","352849.952217","353616.880043","354366.946748","355133.137502","355909.43176","Mapping"
"Mixed","Both","tile","29","m160tile.wav","None","727.497300133","164","349033.485725","355899.872713","356666.525683","357433.073534","343600.384675","344349.816026","345116.706442","345883.3152","349782.730645","350550.031335","351317.319967","352083.053453","352849.952217","353616.880043","354366.946748","355133.137502","356676.046701","Mapping"
"Mixed","Both","tile","29","m160priest.wav","space","429.261107929","164","349033.485725","355899.872713","356666.525683","357433.073534","358200.248081","344349.816026","345116.706442","345883.3152","349782.730645","350550.031335","351317.319967","352083.053453","352849.952217","353616.880043","354366.946748","355133.137502","357442.897234","Mapping"
"Mixed","Both","tile","29","m150park.wav","None","721.753771883","164","349033.485725","355899.872713","356666.525683","357433.073534","358200.248081","358966.824376","345116.706442","345883.3152","349782.730645","350550.031335","351317.319967","352083.053453","352849.952217","353616.880043","354366.946748","355133.137502","358210.184939","Mapping"
"Mixed","Both","tile","29","m160tile.wav","None","719.233384123","164","349033.485725","355899.872713","356666.525683","357433.073534","358200.248081","358966.824376","359716.487299","345883.3152","349782.730645","350550.031335","351317.319967","352083.053453","352849.952217","353616.880043","354366.946748","355133.137502","358976.821523","Mapping"
"Mixed","Both","tile","29","m150cave.wav","space","426.098874537","164","349033.485725","355899.872713","356666.525683","357433.073534","358200.248081","358966.824376","359716.487299","360482.748237","349782.730645","350550.031335","351317.319967","352083.053453","352849.952217","353616.880043","354366.946748","355133.137502","359726.005844","Mapping"
"Mixed","Both","ball","1","m160knife.wav","None","731.925601605","164","363616.837377","355899.872713","356666.525683","357433.073534","358200.248081","358966.824376","359716.487299","360482.748237","349782.730645","350550.031335","351317.319967","352083.053453","352849.952217","353616.880043","354366.946748","355133.137502","360492.287805","Mapping"
"Mixed","Both","ball","1","m160ball.wav","None","719.339430798","164","363616.837377","355899.872713","356666.525683","357433.073534","358200.248081","358966.824376","359716.487299","360482.748237","364366.336438","350550.031335","351317.319967","352083.053453","352849.952217","353616.880043","354366.946748","355133.137502","363627.261184","Mapping"
"Mixed","Both","ball","1","m150romp.wav","space","400.173694128","164","363616.837377","355899.872713","356666.525683","357433.073534","358200.248081","358966.824376","359716.487299","360482.748237","364366.336438","365133.147087","351317.319967","352083.053453","352849.952217","353616.880043","354366.946748","355133.137502","364375.848799","Mapping"
"Mixed","Both","ball","1","m160priest.wav","None","730.92171317","164","363616.837377","355899.872713","356666.525683","357433.073534","358200.248081","358966.824376","359716.487299","360482.748237","364366.336438","365133.147087","365899.829738","352083.053453","352849.952217","353616.880043","354366.946748","355133.137502","365143.300057","Mapping"
"Mixed","Both","ball","1","m150romp.wav","None","728.409982286","164","363616.837377","355899.872713","356666.525683","357433.073534","358200.248081","358966.824376","359716.487299","360482.748237","364366.336438","365133.147087","365899.829738","366666.383154","352849.952217","353616.880043","354366.946748","355133.137502","365909.726712","Mapping"
"Mixed","Both","ball","1","m160ball.wav","None","726.162904408","164","363616.837377","355899.872713","356666.525683","357433.073534","358200.248081","358966.824376","359716.487299","360482.748237","364366.336438","365133.147087","365899.829738","366666.383154","367433.280372","353616.880043","354366.946748","355133.137502","366675.897989","Mapping"
"Mixed","Both","ball","1","m150park.wav","space","300.833873684","164","363616.837377","355899.872713","356666.525683","357433.073534","358200.248081","358966.824376","359716.487299","360482.748237","364366.336438","365133.147087","365899.829738","366666.383154","367433.280372","368200.071234","354366.946748","355133.137502","367443.1421","Mapping"
"Mixed","Both","ball","1","m160cad.wav","None","719.382715411","164","363616.837377","355899.872713","356666.525683","357433.073534","358200.248081","358966.824376","359716.487299","360482.748237","364366.336438","365133.147087","365899.829738","366666.383154","367433.280372","368200.071234","368949.539686","355133.137502","368210.374462","Mapping"
"Mixed","Both","ball","1","m160dime.wav","None","734.289547196","164","363616.837377","355899.872713","356666.525683","357433.073534","358200.248081","358966.824376","359716.487299","360482.748237","364366.336438","365133.147087","365899.829738","366666.383154","367433.280372","368200.071234","368949.539686","369716.09001","368959.509625","Mapping"
"Mixed","Both","ball","1","m160romp.wav","None","732.316706795","164","363616.837377","370482.751019","356666.525683","357433.073534","358200.248081","358966.824376","359716.487299","360482.748237","364366.336438","365133.147087","365899.829738","366666.383154","367433.280372","368200.071234","368949.539686","369716.09001","369725.43078","Mapping"
"Mixed","Both","ball","1","m150ball.wav","None","722.295135725","164","363616.837377","370482.751019","371249.674517","357433.073534","358200.248081","358966.824376","359716.487299","360482.748237","364366.336438","365133.147087","365899.829738","366666.383154","367433.280372","368200.071234","368949.539686","369716.09001","370499.464356","Mapping"
"Mixed","Both","ball","1","m150cave.wav","space","316.693580244","164","363616.837377","370482.751019","371249.674517","372016.724776","358200.248081","358966.824376","359716.487299","360482.748237","364366.336438","365133.147087","365899.829738","366666.383154","367433.280372","368200.071234","368949.539686","369716.09001","371259.259534","Mapping"
"Mixed","Both","ball","1","m150ball.wav","None","666.223929264","164","363616.837377","370482.751019","371249.674517","372016.724776","372783.274173","358966.824376","359716.487299","360482.748237","364366.336438","365133.147087","365899.829738","366666.383154","367433.280372","368200.071234","368949.539686","369716.09001","372083.747549","Mapping"
"Mixed","Both","ball","1","m150greet.wav","space","486.837683246","164","363616.837377","370482.751019","371249.674517","372016.724776","372783.274173","373532.668114","359716.487299","360482.748237","364366.336438","365133.147087","365899.829738","366666.383154","367433.280372","368200.071234","368949.539686","369716.09001","372793.078085","Mapping"
"Mixed","Both","ball","1","m150depth.wav","None","735.319097061","164","363616.837377","370482.751019","371249.674517","372016.724776","372783.274173","373532.668114","374299.212873","360482.748237","364366.336438","365133.147087","365899.829738","366666.383154","367433.280372","368200.071234","368949.539686","369716.09001","373542.209229","Mapping"
"Mixed","Both","ball","1","m160cad.wav","None","733.747255756","164","363616.837377","370482.751019","371249.674517","372016.724776","372783.274173","373532.668114","374299.212873","375066.268079","364366.336438","365133.147087","365899.829738","366666.383154","367433.280372","368200.071234","368949.539686","369716.09001","374307.911179","Mapping"
"Mixed","Both","tile","33","m160bluff.wav","None","729.778696084","164","378199.948492","370482.751019","371249.674517","372016.724776","372783.274173","373532.668114","374299.212873","375066.268079","364366.336438","365133.147087","365899.829738","366666.383154","367433.280372","368200.071234","368949.539686","369716.09001","375075.853715","Mapping"
"Mixed","Both","tile","33","m160park.wav","None","719.619851792","164","378199.948492","370482.751019","371249.674517","372016.724776","372783.274173","373532.668114","374299.212873","375066.268079","378949.443533","365133.147087","365899.829738","366666.383154","367433.280372","368200.071234","368949.539686","369716.09001","378209.791978","Mapping"
"Mixed","Both","tile","33","m150ball.wav","None","734.443515772","164","378199.948492","370482.751019","371249.674517","372016.724776","372783.274173","373532.668114","374299.212873","375066.268079","378949.443533","379715.8807","365899.829738","366666.383154","367433.280372","368200.071234","368949.539686","369716.09001","378959.203852","Mapping"
"Mixed","Both","tile","33","m160tile.wav","None","733.07047342","164","378199.948492","370482.751019","371249.674517","372016.724776","372783.274173","373532.668114","374299.212873","375066.268079","378949.443533","379715.8807","380482.689803","366666.383154","367433.280372","368200.071234","368949.539686","369716.09001","379724.679796","Mapping"
"Mixed","Both","tile","33","m160jaw.wav","space","348.169673467","164","378199.948492","370482.751019","371249.674517","372016.724776","372783.274173","373532.668114","374299.212873","375066.268079","378949.443533","379715.8807","380482.689803","381249.476336","367433.280372","368200.071234","368949.539686","369716.09001","380491.637921","Mapping"
"Mixed","Both","tile","33","m150gnash.wav","None","727.019007551","164","378199.948492","370482.751019","371249.674517","372016.724776","372783.274173","373532.668114","374299.212873","375066.268079","378949.443533","379715.8807","380482.689803","381249.476336","382015.711612","368200.071234","368949.539686","369716.09001","381258.619853","Mapping"
"Mixed","Both","tile","33","m150tile.wav","None","725.43078009","164","378199.948492","370482.751019","371249.674517","372016.724776","372783.274173","373532.668114","374299.212873","375066.268079","378949.443533","379715.8807","380482.689803","381249.476336","382015.711612","382782.646549","368949.539686","369716.09001","382024.514728","Mapping"
"Mixed","Both","tile","33","m150cling.wav","space","472.078327555","164","378199.948492","370482.751019","371249.674517","372016.724776","372783.274173","373532.668114","374299.212873","375066.268079","378949.443533","379715.8807","380482.689803","381249.476336","382015.711612","382782.646549","383532.720365","369716.09001","382791.70226","Mapping"
"Mixed","Both","tile","33","m150cad.wav","None","735.402883263","164","378199.948492","370482.751019","371249.674517","372016.724776","372783.274173","373532.668114","374299.212873","375066.268079","378949.443533","379715.8807","380482.689803","381249.476336","382015.711612","382782.646549","383532.720365","384299.175773","383542.378347","Mapping"
"Mixed","Both","tile","33","m150tile.wav","None","733.460342046","164","378199.948492","385066.104217","371249.674517","372016.724776","372783.274173","373532.668114","374299.212873","375066.268079","378949.443533","379715.8807","380482.689803","381249.476336","382015.711612","382782.646549","383532.720365","384299.175773","384308.411114","Mapping"
"Mixed","Both","tile","33","m150reek.wav","space","348.817084217","164","378199.948492","385066.104217","385832.579721","372016.724776","372783.274173","373532.668114","374299.212873","375066.268079","378949.443533","379715.8807","380482.689803","381249.476336","382015.711612","382782.646549","383532.720365","384299.175773","385074.928666","Mapping"
"Mixed","Both","tile","33","m160tile.wav","None","730.360561982","164","378199.948492","385066.104217","385832.579721","386599.162818","372783.274173","373532.668114","374299.212873","375066.268079","378949.443533","379715.8807","380482.689803","381249.476336","382015.711612","382782.646549","383532.720365","384299.175773","385841.790947","Mapping"
"Mixed","Both","tile","33","m160depth.wav","None","727.974664886","164","378199.948492","385066.104217","385832.579721","386599.162818","387366.061582","373532.668114","374299.212873","375066.268079","378949.443533","379715.8807","380482.689803","381249.476336","382015.711612","382782.646549","383532.720365","384299.175773","386608.476381","Mapping"
"Mixed","Both","tile","33","m160ball.wav","space","136.045594467","164","378199.948492","385066.104217","385832.579721","386599.162818","387366.061582","388133.112459","374299.212873","375066.268079","378949.443533","379715.8807","380482.689803","381249.476336","382015.711612","382782.646549","383532.720365","384299.175773","387375.640416","Mapping"
"Mixed","Both","tile","33","m160dime.wav","None","721.89011774","164","378199.948492","385066.104217","385832.579721","386599.162818","387366.061582","388133.112459","388899.789236","375066.268079","378949.443533","379715.8807","380482.689803","381249.476336","382015.711612","382782.646549","383532.720365","384299.175773","388142.978825","Mapping"
"Mixed","Both","tile","33","m150lash.wav","None","719.089618186","164","378199.948492","385066.104217","385832.579721","386599.162818","387366.061582","388133.112459","388899.789236","389649.199254","378949.443533","379715.8807","380482.689803","381249.476336","382015.711612","382782.646549","383532.720365","384299.175773","388909.937568","Mapping"
"Mixed","Both","tile","34","m160ball.wav","None","734.849770553","164","392783.01323","385066.104217","385832.579721","386599.162818","387366.061582","388133.112459","388899.789236","389649.199254","378949.443533","379715.8807","380482.689803","381249.476336","382015.711612","382782.646549","383532.720365","384299.175773","389658.564449","Mapping"
"Mixed","Both","tile","34","m160tile.wav","None","720.61817511","164","392783.01323","385066.104217","385832.579721","386599.162818","387366.061582","388133.112459","388899.789236","389649.199254","393532.211155","379715.8807","380482.689803","381249.476336","382015.711612","382782.646549","383532.720365","384299.175773","392792.47365","Mapping"
"Mixed","Both","tile","34","m150ball.wav","space","353.525188286","164","392783.01323","385066.104217","385832.579721","386599.162818","387366.061582","388133.112459","388899.789236","389649.199254","393532.211155","394299.27409","380482.689803","381249.476336","382015.711612","382782.646549","383532.720365","384299.175773","393542.079376","Mapping"
"Mixed","Both","tile","34","m150dime.wav","None","732.475003926","164","392783.01323","385066.104217","385832.579721","386599.162818","387366.061582","388133.112459","388899.789236","389649.199254","393532.211155","394299.27409","395065.718058","381249.476336","382015.711612","382782.646549","383532.720365","384299.175773","394308.575595","Mapping"
"Mixed","Both","tile","34","m150tile.wav","space","420.732847881","164","392783.01323","385066.104217","385832.579721","386599.162818","387366.061582","388133.112459","388899.789236","389649.199254","393532.211155","394299.27409","395065.718058","395832.502428","382015.711612","382782.646549","383532.720365","384299.175773","395074.838387","Mapping"
"Mixed","Both","tile","34","m160lash.wav","space","693.628198933","164","392783.01323","385066.104217","385832.579721","386599.162818","387366.061582","388133.112459","388899.789236","389649.199254","393532.211155","394299.27409","395065.718058","395832.502428","396599.450659","382782.646549","383532.720365","384299.175773","395841.924201","Mapping"
"Mixed","Both","tile","34","m150depth.wav","None","723.796485458","164","392783.01323","385066.104217","385832.579721","386599.162818","387366.061582","388133.112459","388899.789236","389649.199254","393532.211155","394299.27409","395065.718058","395832.502428","396599.450659","397366.361481","383532.720365","384299.175773","396608.880471","Mapping"
"Mixed","Both","tile","34","m160dime.wav","None","720.368980896","164","392783.01323","385066.104217","385832.579721","386599.162818","387366.061582","388133.112459","388899.789236","389649.199254","393532.211155","394299.27409","395065.718058","395832.502428","396599.450659","397366.361481","398115.836426","384299.175773","397376.52589","Mapping"
"Mixed","Both","tile","34","m150ball.wav","None","735.977638047","164","392783.01323","385066.104217","385832.579721","386599.162818","387366.061582","388133.112459","388899.789236","389649.199254","393532.211155","394299.27409","395065.718058","395832.502428","396599.450659","397366.361481","398115.836426","398882.406228","398125.165138","Mapping"
"Mixed","Both","tile","34","m150tile.wav","None","733.631315408","164","392783.01323","399648.941403","385832.579721","386599.162818","387366.061582","388133.112459","388899.789236","389649.199254","393532.211155","394299.27409","395065.718058","395832.502428","396599.450659","397366.361481","398115.836426","398882.406228","398891.826147","Mapping"
"Mixed","Both","tile","34","m160done.wav","space","437.218013918","164","392783.01323","399648.941403","400415.948996","386599.162818","387366.061582","388133.112459","388899.789236","389649.199254","393532.211155","394299.27409","395065.718058","395832.502428","396599.450659","397366.361481","398115.836426","398882.406228","399658.277226","Mapping"
"Mixed","Both","tile","34","m150jaw.wav","None","727.856869576","164","392783.01323","399648.941403","400415.948996","401182.334531","387366.061582","388133.112459","388899.789236","389649.199254","393532.211155","394299.27409","395065.718058","395832.502428","396599.450659","397366.361481","398115.836426","398882.406228","400425.41158","Mapping"
"Mixed","Both","tile","34","m160priest.wav","None","725.566198351","164","392783.01323","399648.941403","400415.948996","401182.334531","401949.015018","388133.112459","388899.789236","389649.199254","393532.211155","394299.27409","395065.718058","395832.502428","396599.450659","397366.361481","398115.836426","398882.406228","401191.882138","Mapping"
"Mixed","Both","tile","34","m150priest.wav","None","723.428568337","164","392783.01323","399648.941403","400415.948996","401182.334531","401949.015018","402715.788875","388899.789236","389649.199254","393532.211155","394299.27409","395065.718058","395832.502428","396599.450659","397366.361481","398115.836426","398882.406228","401958.272928","Mapping"
"Mixed","Both","tile","34","m160tile.wav","None","721.349681262","164","392783.01323","399648.941403","400415.948996","401182.334531","401949.015018","402715.788875","403465.539603","389649.199254","393532.211155","394299.27409","395065.718058","395832.502428","396599.450659","397366.361481","398115.836426","398882.406228","402725.18004","Mapping"
"Mixed","Both","tile","34","m160park.wav","space","468.535809778","164","392783.01323","399648.941403","400415.948996","401182.334531","401949.015018","402715.788875","403465.539603","404232.370967","393532.211155","394299.27409","395065.718058","395832.502428","396599.450659","397366.361481","398115.836426","398882.406228","403474.932314","Mapping"
"Mixed","Both","tile","25","m160reek.wav","None","733.332344098","164","407366.137639","399648.941403","400415.948996","401182.334531","401949.015018","402715.788875","403465.539603","404232.370967","393532.211155","394299.27409","395065.718058","395832.502428","396599.450659","397366.361481","398115.836426","398882.406228","404241.337017","Mapping"
"Mixed","Both","tile","25","m150tile.wav","None","720.329406438","164","407366.137639","399648.941403","400415.948996","401182.334531","401949.015018","402715.788875","403465.539603","404232.370967","408115.259198","394299.27409","395065.718058","395832.502428","396599.450659","397366.361481","398115.836426","398882.406228","407375.800568","Mapping"
"Mixed","Both","tile","25","m150greet.wav","space","403.128162259","164","407366.137639","399648.941403","400415.948996","401182.334531","401949.015018","402715.788875","403465.539603","404232.370967","408115.259198","408882.306983","395065.718058","395832.502428","396599.450659","397366.361481","398115.836426","398882.406228","408124.249364","Mapping"
"Mixed","Both","tile","25","m150tile.wav","None","732.49757383","164","407366.137639","399648.941403","400415.948996","401182.334531","401949.015018","402715.788875","403465.539603","404232.370967","408115.259198","408882.306983","409649.020861","395832.502428","396599.450659","397366.361481","398115.836426","398882.406228","408891.81347","Mapping"
"Mixed","Both","tile","25","m160bluff.wav","space","373.099622317","164","407366.137639","399648.941403","400415.948996","401182.334531","401949.015018","402715.788875","403465.539603","404232.370967","408115.259198","408882.306983","409649.020861","410415.851297","396599.450659","397366.361481","398115.836426","398882.406228","409658.267332","Mapping"
"Mixed","Both","tile","25","m160tile.wav","None","727.26016352","164","407366.137639","399648.941403","400415.948996","401182.334531","401949.015018","402715.788875","403465.539603","404232.370967","408115.259198","408882.306983","409649.020861","410415.851297","411182.295575","397366.361481","398115.836426","398882.406228","410425.252974","Mapping"
"Mixed","Both","tile","25","m160gnash.wav","space","383.464685874","164","407366.137639","399648.941403","400415.948996","401182.334531","401949.015018","402715.788875","403465.539603","404232.370967","408115.259198","408882.306983","409649.020861","410415.851297","411182.295575","411949.517116","398115.836426","398882.406228","411191.876573","Mapping"
"Mixed","Both","tile","25","m150jolt.wav","None","720.870770514","164","407366.137639","399648.941403","400415.948996","401182.334531","401949.015018","402715.788875","403465.539603","404232.370967","408115.259198","408882.306983","409649.020861","410415.851297","411182.295575","411949.517116","412715.400243","398882.406228","411959.683999","Mapping"
"Mixed","Both","tile","25","m160park.wav","None","720.568088815","164","407366.137639","399648.941403","400415.948996","401182.334531","401949.015018","402715.788875","403465.539603","404232.370967","408115.259198","408882.306983","409649.020861","410415.851297","411182.295575","411949.517116","412715.400243","413465.24867","412724.407105","Mapping"
"Mixed","Both","tile","25","m150done.wav","None","735.067738453","164","407366.137639","414232.148671","400415.948996","401182.334531","401949.015018","402715.788875","403465.539603","404232.370967","408115.259198","408882.306983","409649.020861","410415.851297","411182.295575","411949.517116","412715.400243","413465.24867","413474.211938","Mapping"
"Mixed","Both","tile","25","m150ball.wav","None","732.567447238","164","407366.137639","414232.148671","414998.930876","401182.334531","401949.015018","402715.788875","403465.539603","404232.370967","408115.259198","408882.306983","409649.020861","410415.851297","411182.295575","411949.517116","412715.400243","413465.24867","414241.687003","Mapping"
"Mixed","Both","tile","25","m150reek.wav","None","730.67004513","164","407366.137639","414232.148671","414998.930876","415766.019782","401949.015018","402715.788875","403465.539603","404232.370967","408115.259198","408882.306983","409649.020861","410415.851297","411182.295575","411949.517116","412715.400243","413465.24867","415008.588549","Mapping"
"Mixed","Both","tile","25","m150cling.wav","None","727.965699043","164","407366.137639","414232.148671","414998.930876","415766.019782","416532.181783","402715.788875","403465.539603","404232.370967","408115.259198","408882.306983","409649.020861","410415.851297","411182.295575","411949.517116","412715.400243","413465.24867","415775.639426","Mapping"
"Mixed","Both","tile","25","m160gnash.wav","None","726.32893105","164","407366.137639","414232.148671","414998.930876","415766.019782","416532.181783","417299.139909","403465.539603","404232.370967","408115.259198","408882.306983","409649.020861","410415.851297","411182.295575","411949.517116","412715.400243","413465.24867","416541.633546","Mapping"
"Mixed","Both","tile","25","m160tile.wav","None","723.224204034","164","407366.137639","414232.148671","414998.930876","415766.019782","416532.181783","417299.139909","418065.681267","404232.370967","408115.259198","408882.306983","409649.020861","410415.851297","411182.295575","411949.517116","412715.400243","413465.24867","417308.993289","Mapping"
"Mixed","Both","tile","25","m160reek.wav","space","380.320384866","164","407366.137639","414232.148671","414998.930876","415766.019782","416532.181783","417299.139909","418065.681267","418815.358412","408115.259198","408882.306983","409649.020861","410415.851297","411182.295575","411949.517116","412715.400243","413465.24867","418074.925883","Mapping"
"Mixed","Both","cave","18","m160gnash.wav","None","735.65702443","164","421949.242261","414232.148671","414998.930876","415766.019782","416532.181783","417299.139909","418065.681267","418815.358412","408115.259198","408882.306983","409649.020861","410415.851297","411182.295575","411949.517116","412715.400243","413465.24867","418825.140991","Mapping"
"Mixed","Both","cave","18","m160jaw.wav","None","720.442873426","164","421949.242261","414232.148671","414998.930876","415766.019782","416532.181783","417299.139909","418065.681267","418815.358412","422698.54345","408882.306983","409649.020861","410415.851297","411182.295575","411949.517116","412715.400243","413465.24867","421959.057612","Mapping"
"Mixed","Both","cave","18","m150romp.wav","None","735.674028983","164","421949.242261","414232.148671","414998.930876","415766.019782","416532.181783","417299.139909","418065.681267","418815.358412","422698.54345","423465.63081","409649.020861","410415.851297","411182.295575","411949.517116","412715.400243","413465.24867","422708.115172","Mapping"
"Mixed","Both","cave","18","m150park.wav","None","732.934436994","164","421949.242261","414232.148671","414998.930876","415766.019782","416532.181783","417299.139909","418065.681267","418815.358412","422698.54345","423465.63081","424232.060247","410415.851297","411182.295575","411949.517116","412715.400243","413465.24867","423475.086592","Mapping"
"Mixed","Both","cave","18","m150park.wav","None","731.360122096","164","421949.242261","414232.148671","414998.930876","415766.019782","416532.181783","417299.139909","418065.681267","418815.358412","422698.54345","423465.63081","424232.060247","424998.896557","411182.295575","411949.517116","412715.400243","413465.24867","424241.605999","Mapping"
"Mixed","Both","cave","18","m160greet.wav","None","729.211980011","164","421949.242261","414232.148671","414998.930876","415766.019782","416532.181783","417299.139909","418065.681267","418815.358412","422698.54345","423465.63081","424232.060247","424998.896557","425765.147292","411949.517116","412715.400243","413465.24867","425008.036055","Mapping"
"Mixed","Both","cave","18","m160cave.wav","None","727.421243209","164","421949.242261","414232.148671","414998.930876","415766.019782","416532.181783","417299.139909","418065.681267","418815.358412","422698.54345","423465.63081","424232.060247","424998.896557","425765.147292","426532.328332","412715.400243","413465.24867","425774.022136","Mapping"
"Mixed","Both","cave","18","m150greet.wav","space","449.167285813","164","421949.242261","414232.148671","414998.930876","415766.019782","416532.181783","417299.139909","418065.681267","418815.358412","422698.54345","423465.63081","424232.060247","424998.896557","425765.147292","426532.328332","427298.631935","413465.24867","426541.944885","Mapping"
"Mixed","Both","cave","18","m150cave.wav","None","721.501485677","164","421949.242261","414232.148671","414998.930876","415766.019782","416532.181783","417299.139909","418065.681267","418815.358412","422698.54345","423465.63081","424232.060247","424998.896557","425765.147292","426532.328332","427298.631935","428048.238898","427307.879644","Mapping"
"Mixed","Both","cave","18","m160depth.wav","space","381.600984372","164","421949.242261","428815.196404","414998.930876","415766.019782","416532.181783","417299.139909","418065.681267","418815.358412","422698.54345","423465.63081","424232.060247","424998.896557","425765.147292","426532.328332","427298.631935","428048.238898","428057.505156","Mapping"
"Mixed","Both","cave","18","m150park.wav","None","732.989469776","164","421949.242261","428815.196404","429581.989121","415766.019782","416532.181783","417299.139909","418065.681267","418815.358412","422698.54345","423465.63081","424232.060247","424998.896557","425765.147292","426532.328332","427298.631935","428048.238898","428824.155344","Mapping"
"Mixed","Both","cave","18","m150cave.wav","None","729.796319036","164","421949.242261","428815.196404","429581.989121","430348.79235","416532.181783","417299.139909","418065.681267","418815.358412","422698.54345","423465.63081","424232.060247","424998.896557","425765.147292","426532.328332","427298.631935","428048.238898","429591.489734","Mapping"
"Mixed","Both","cave","18","m160tile.wav","space","488.769712625","164","421949.242261","428815.196404","429581.989121","430348.79235","431115.876619","417299.139909","418065.681267","418815.358412","422698.54345","423465.63081","424232.060247","424998.896557","425765.147292","426532.328332","427298.631935","428048.238898","430358.312441","Mapping"
"Mixed","Both","cave","18","m160cave.wav","None","723.480200395","164","421949.242261","428815.196404","429581.989121","430348.79235","431115.876619","431882.593588","418065.681267","418815.358412","422698.54345","423465.63081","424232.060247","424998.896557","425765.147292","426532.328332","427298.631935","428048.238898","431125.559953","Mapping"
"Mixed","Both","cave","18","m160knife.wav","space","586.82182245","164","421949.242261","428815.196404","429581.989121","430348.79235","431115.876619","431882.593588","432631.797387","418815.358412","422698.54345","423465.63081","424232.060247","424998.896557","425765.147292","426532.328332","427298.631935","428048.238898","431892.192518","Mapping"
"Mixed","Both","cave","18","m150tile.wav","None","735.668154666","164","421949.242261","428815.196404","429581.989121","430348.79235","431115.876619","431882.593588","432631.797387","433398.372445","422698.54345","423465.63081","424232.060247","424998.896557","425765.147292","426532.328332","427298.631935","428048.238898","432641.363545","Mapping"
"Mixed","Both","done","42","m150bluff.wav","None","733.289059717","164","436532.167252","428815.196404","429581.989121","430348.79235","431115.876619","431882.593588","432631.797387","433398.372445","422698.54345","423465.63081","424232.060247","424998.896557","425765.147292","426532.328332","427298.631935","428048.238898","433407.96581","Mapping"
"Mixed","Both","done","42","m160done.wav","space","0.0383376609534","164","436532.167252","428815.196404","429581.989121","430348.79235","431115.876619","431882.593588","432631.797387","433398.372445","437281.704032","423465.63081","424232.060247","424998.896557","425765.147292","426532.328332","427298.631935","428048.238898","436541.914277","Mapping"
"Mixed","Both","done","42","m150dime.wav","space","379.725224571","164","436532.167252","428815.196404","429581.989121","430348.79235","431115.876619","431882.593588","432631.797387","433398.372445","437281.704032","438048.441716","424232.060247","424998.896557","425765.147292","426532.328332","427298.631935","428048.238898","437291.237726","Mapping"
"Mixed","Both","done","42","m150done.wav","None","731.805023737","164","436532.167252","428815.196404","429581.989121","430348.79235","431115.876619","431882.593588","432631.797387","433398.372445","437281.704032","438048.441716","438815.31049","424998.896557","425765.147292","426532.328332","427298.631935","428048.238898","438057.714158","Mapping"
"Mixed","Both","done","42","m150gnash.wav","space","501.96464709","164","436532.167252","428815.196404","429581.989121","430348.79235","431115.876619","431882.593588","432631.797387","433398.372445","437281.704032","438048.441716","438815.31049","439581.519486","425765.147292","426532.328332","427298.631935","428048.238898","438824.947757","Mapping"
"Mixed","Both","done","42","m160jaw.wav","None","726.832266664","164","436532.167252","428815.196404","429581.989121","430348.79235","431115.876619","431882.593588","432631.797387","433398.372445","437281.704032","438048.441716","438815.31049","439581.519486","440348.985275","426532.328332","427298.631935","428048.238898","439590.628066","Mapping"
"Mixed","Both","done","42","m150ball.wav","None","722.902044654","164","436532.167252","428815.196404","429581.989121","430348.79235","431115.876619","431882.593588","432631.797387","433398.372445","437281.704032","438048.441716","438815.31049","439581.519486","440348.985275","441115.593106","427298.631935","428048.238898","440359.049203","Mapping"
"Mixed","Both","done","42","m160reek.wav","None","720.590967918","164","436532.167252","428815.196404","429581.989121","430348.79235","431115.876619","431882.593588","432631.797387","433398.372445","437281.704032","438048.441716","438815.31049","439581.519486","440348.985275","441115.593106","441865.109789","428048.238898","441125.678367","Mapping"
"Mixed","Both","done","42","m160greet.wav","None","736.028961139","164","436532.167252","428815.196404","429581.989121","430348.79235","431115.876619","431882.593588","432631.797387","433398.372445","437281.704032","438048.441716","438815.31049","439581.519486","440348.985275","441115.593106","441865.109789","442631.727514","441874.643793","Mapping"
"Mixed","Both","done","42","m150depth.wav","None","734.330049017","164","436532.167252","443398.548675","429581.989121","430348.79235","431115.876619","431882.593588","432631.797387","433398.372445","437281.704032","438048.441716","438815.31049","439581.519486","440348.985275","441115.593106","441865.109789","442631.727514","442640.712733","Mapping"
"Mixed","Both","done","42","m160priest.wav","None","731.115565402","164","436532.167252","443398.548675","444165.190515","430348.79235","431115.876619","431882.593588","432631.797387","433398.372445","437281.704032","438048.441716","438815.31049","439581.519486","440348.985275","441115.593106","441865.109789","442631.727514","443408.407002","Mapping"
"Mixed","Both","done","42","m160greet.wav","None","729.172714986","164","436532.167252","443398.548675","444165.190515","444931.570793","431115.876619","431882.593588","432631.797387","433398.372445","437281.704032","438048.441716","438815.31049","439581.519486","440348.985275","441115.593106","441865.109789","442631.727514","444174.773368","Mapping"
"Mixed","Both","done","42","m150done.wav","None","728.338872083","164","436532.167252","443398.548675","444165.190515","444931.570793","445698.541285","431882.593588","432631.797387","433398.372445","437281.704032","438048.441716","438815.31049","439581.519486","440348.985275","441115.593106","441865.109789","442631.727514","444940.724822","Mapping"
"Mixed","Both","done","42","m150cave.wav","space","387.212185888","164","436532.167252","443398.548675","444165.190515","444931.570793","445698.541285","446465.551661","432631.797387","433398.372445","437281.704032","438048.441716","438815.31049","439581.519486","440348.985275","441115.593106","441865.109789","442631.727514","445707.614619","Mapping"
"Mixed","Both","done","42","m160done.wav","None","720.783892553","164","436532.167252","443398.548675","444165.190515","444931.570793","445698.541285","446465.551661","447232.229983","433398.372445","437281.704032","438048.441716","438815.31049","439581.519486","440348.985275","441115.593106","441865.109789","442631.727514","446476.372138","Mapping"
"Mixed","Both","done","42","m160gnash.wav","space","484.528152272","164","436532.167252","443398.548675","444165.190515","444931.570793","445698.541285","446465.551661","447232.229983","447981.548177","437281.704032","438048.441716","438815.31049","439581.519486","440348.985275","441115.593106","441865.109789","442631.727514","447242.229603","Mapping"
"Mixed","Both","cave","21","m160ball.wav","None","734.380753711","164","451131.567516","443398.548675","444165.190515","444931.570793","445698.541285","446465.551661","447232.229983","447981.548177","437281.704032","438048.441716","438815.31049","439581.519486","440348.985275","441115.593106","441865.109789","442631.727514","447991.131958","Mapping"
"Mixed","Both","cave","21","m150park.wav","None","721.865692874","164","451131.567516","443398.548675","444165.190515","444931.570793","445698.541285","446465.551661","447232.229983","447981.548177","451881.082654","438048.441716","438815.31049","439581.519486","440348.985275","441115.593106","441865.109789","442631.727514","451140.383308","Mapping"
"Mixed","Both","cave","21","m160gnash.wav","None","736.542808358","164","451131.567516","443398.548675","444165.190515","444931.570793","445698.541285","446465.551661","447232.229983","447981.548177","451881.082654","452648.47455","438815.31049","439581.519486","440348.985275","441115.593106","441865.109789","442631.727514","451890.291715","Mapping"
"Mixed","Both","cave","21","m150cave.wav","None","733.126434032","164","451131.567516","443398.548675","444165.190515","444931.570793","445698.541285","446465.551661","447232.229983","447981.548177","451881.082654","452648.47455","453415.093511","439581.519486","440348.985275","441115.593106","441865.109789","442631.727514","452658.070079","Mapping"
"Mixed","Both","cave","21","m150cad.wav","space","382.074329769","164","451131.567516","443398.548675","444165.190515","444931.570793","445698.541285","446465.551661","447232.229983","447981.548177","451881.082654","452648.47455","453415.093511","454181.640126","440348.985275","441115.593106","441865.109789","442631.727514","453424.647611","Mapping"
"Mixed","Both","cave","21","m150cave.wav","None","728.081639158","164","451131.567516","443398.548675","444165.190515","444931.570793","445698.541285","446465.551661","447232.229983","447981.548177","451881.082654","452648.47455","453415.093511","454181.640126","454948.507972","441115.593106","441865.109789","442631.727514","454191.094362","Mapping"
"Mixed","Both","cave","21","m150lash.wav","space","592.787956353","164","451131.567516","443398.548675","444165.190515","444931.570793","445698.541285","446465.551661","447232.229983","447981.548177","451881.082654","452648.47455","453415.093511","454181.640126","454948.507972","455715.400552","441865.109789","442631.727514","454957.895736","Mapping"
"Mixed","Both","cave","21","m150jaw.wav","None","722.141785314","164","451131.567516","443398.548675","444165.190515","444931.570793","445698.541285","446465.551661","447232.229983","447981.548177","451881.082654","452648.47455","453415.093511","454181.640126","454948.507972","455715.400552","456481.989523","442631.727514","455725.171074","Mapping"
"Mixed","Both","cave","21","m160cling.wav","None","720.165853389","164","451131.567516","443398.548675","444165.190515","444931.570793","445698.541285","446465.551661","447232.229983","447981.548177","451881.082654","452648.47455","453415.093511","454181.640126","454948.507972","455715.400552","456481.989523","457231.285766","456491.611951","Mapping"
"Mixed","Both","cave","21","m160greet.wav","None","735.689487774","164","451131.567516","457997.901017","444165.190515","444931.570793","445698.541285","446465.551661","447232.229983","447981.548177","451881.082654","452648.47455","453415.093511","454181.640126","454948.507972","455715.400552","456481.989523","457231.285766","457240.605202","Mapping"
"Mixed","Both","cave","21","m150lash.wav","None","733.045121189","164","451131.567516","457997.901017","458764.961169","444931.570793","445698.541285","446465.551661","447232.229983","447981.548177","451881.082654","452648.47455","453415.093511","454181.640126","454948.507972","455715.400552","456481.989523","457231.285766","458007.720697","Mapping"
"Mixed","Both","cave","21","m160cave.wav","None","730.90099846","164","451131.567516","457997.901017","458764.961169","459531.441311","445698.541285","446465.551661","447232.229983","447981.548177","451881.082654","452648.47455","453415.093511","454181.640126","454948.507972","455715.400552","456481.989523","457231.285766","458774.203622","Mapping"
"Mixed","Both","cave","21","m160knife.wav","space","369.647692889","164","451131.567516","457997.901017","458764.961169","459531.441311","460298.381195","446465.551661","447232.229983","447981.548177","451881.082654","452648.47455","453415.093511","454181.640126","454948.507972","455715.400552","456481.989523","457231.285766","459540.97315","Mapping"
"Mixed","Both","cave","21","m160cave.wav","None","726.429412607","164","451131.567516","457997.901017","458764.961169","459531.441311","460298.381195","461064.927809","447232.229983","447981.548177","451881.082654","452648.47455","453415.093511","454181.640126","454948.507972","455715.400552","456481.989523","457231.285766","460307.421138","Mapping"
"Mixed","Both","cave","21","m150lash.wav","space","468.428835506","164","451131.567516","457997.901017","458764.961169","459531.441311","460298.381195","461064.927809","461832.051961","447981.548177","451881.082654","452648.47455","453415.093511","454181.640126","454948.507972","455715.400552","456481.989523","457231.285766","461074.168097","Mapping"
"Mixed","Both","cave","21","m160jolt.wav","None","720.396497287","164","451131.567516","457997.901017","458764.961169","459531.441311","460298.381195","461064.927809","461832.051961","462580.988016","451881.082654","452648.47455","453415.093511","454181.640126","454948.507972","455715.400552","456481.989523","457231.285766","461841.474353","Mapping"
"Mixed","Both","ball","2","m150cave.wav","None","736.29392311","164","465715.265443","457997.901017","458764.961169","459531.441311","460298.381195","461064.927809","461832.051961","462580.988016","451881.082654","452648.47455","453415.093511","454181.640126","454948.507972","455715.400552","456481.989523","457231.285766","462590.043108","Mapping"
"Mixed","Both","ball","2","m160jaw.wav","None","720.682792366","164","465715.265443","457997.901017","458764.961169","459531.441311","460298.381195","461064.927809","461832.051961","462580.988016","466464.541589","452648.47455","453415.093511","454181.640126","454948.507972","455715.400552","456481.989523","457231.285766","465724.76822","Mapping"
"Mixed","Both","ball","2","m160lash.wav","None","736.062660813","164","465715.265443","457997.901017","458764.961169","459531.441311","460298.381195","461064.927809","461832.051961","462580.988016","466464.541589","467231.352238","453415.093511","454181.640126","454948.507972","455715.400552","456481.989523","457231.285766","466473.921624","Mapping"
"Mixed","Both","ball","2","m150reek.wav","None","733.762095915","164","465715.265443","457997.901017","458764.961169","459531.441311","460298.381195","461064.927809","461832.051961","462580.988016","466464.541589","467231.352238","467998.136916","454181.640126","454948.507972","455715.400552","456481.989523","457231.285766","467241.006201","Mapping"
"Mixed","Both","ball","2","m160ball.wav","None","731.301997323","164","465715.265443","457997.901017","458764.961169","459531.441311","460298.381195","461064.927809","461832.051961","462580.988016","466464.541589","467231.352238","467998.136916","468764.435882","454948.507972","455715.400552","456481.989523","457231.285766","468008.00792","Mapping"
"Mixed","Both","ball","2","m150lash.wav","space","329.280678416","164","465715.265443","457997.901017","458764.961169","459531.441311","460298.381195","461064.927809","461832.051961","462580.988016","466464.541589","467231.352238","467998.136916","468764.435882","469531.412558","455715.400552","456481.989523","457231.285766","468773.210245","Mapping"
"Mixed","Both","ball","2","m150done.wav","None","726.695611607","164","465715.265443","457997.901017","458764.961169","459531.441311","460298.381195","461064.927809","461832.051961","462580.988016","466464.541589","467231.352238","467998.136916","468764.435882","469531.412558","470298.208057","456481.989523","457231.285766","469540.826293","Mapping"
"Mixed","Both","ball","2","m150ball.wav","None","724.720297847","164","465715.265443","457997.901017","458764.961169","459531.441311","460298.381195","461064.927809","461832.051961","462580.988016","466464.541589","467231.352238","467998.136916","468764.435882","469531.412558","470298.208057","471065.196173","457231.285766","470307.478335","Mapping"
"Mixed","Both","ball","2","m160cling.wav","space","539.193543838","164","465715.265443","457997.901017","458764.961169","459531.441311","460298.381195","461064.927809","461832.051961","462580.988016","466464.541589","467231.352238","467998.136916","468764.435882","469531.412558","470298.208057","471065.196173","471831.837394","471075.252371","Mapping"
"Mixed","Both","ball","2","m160depth.wav","None","719.054681482","164","465715.265443","472581.331508","458764.961169","459531.441311","460298.381195","461064.927809","461832.051961","462580.988016","466464.541589","467231.352238","467998.136916","468764.435882","469531.412558","470298.208057","471065.196173","471831.837394","471841.346664","Mapping"
"Mixed","Both","ball","2","m150ball.wav","None","734.315827023","164","465715.265443","472581.331508","473348.101346","459531.441311","460298.381195","461064.927809","461832.051961","462580.988016","466464.541589","467231.352238","467998.136916","468764.435882","469531.412558","470298.208057","471065.196173","471831.837394","472590.676297","Mapping"
"Mixed","Both","ball","2","m160cave.wav","space","345.11194122","164","465715.265443","472581.331508","473348.101346","474114.78276","460298.381195","461064.927809","461832.051961","462580.988016","466464.541589","467231.352238","467998.136916","468764.435882","469531.412558","470298.208057","471065.196173","471831.837394","473357.294021","Mapping"
"Mixed","Both","ball","2","m150cad.wav","None","729.209815618","164","465715.265443","472581.331508","473348.101346","474114.78276","474881.333085","461064.927809","461832.051961","462580.988016","466464.541589","467231.352238","467998.136916","468764.435882","469531.412558","470298.208057","471065.196173","471831.837394","474124.08612","Mapping"
"Mixed","Both","ball","2","m160ball.wav","None","727.294791024","164","465715.265443","472581.331508","473348.101346","474114.78276","474881.333085","475648.0853","461832.051961","462580.988016","466464.541589","467231.352238","467998.136916","468764.435882","469531.412558","470298.208057","471065.196173","471831.837394","474890.616039","Mapping"
"Mixed","Both","ball","2","m150jaw.wav","space","356.743691256","164","465715.265443","472581.331508","473348.101346","474114.78276","474881.333085","475648.0853","476415.219654","462580.988016","466464.541589","467231.352238","467998.136916","468764.435882","469531.412558","470298.208057","471065.196173","471831.837394","475657.647129","Mapping"
"Mixed","Both","ball","2","m160reek.wav","None","722.007913049","164","465715.265443","472581.331508","473348.101346","474114.78276","474881.333085","475648.0853","476415.219654","477181.580146","466464.541589","467231.352238","467998.136916","468764.435882","469531.412558","470298.208057","471065.196173","471831.837394","476424.776227","Mapping"
"Mixed","Both","ball","6","m150knife.wav","None","720.130607486","164","480298.266801","472581.331508","473348.101346","474114.78276","474881.333085","475648.0853","476415.219654","477181.580146","466464.541589","467231.352238","467998.136916","468764.435882","469531.412558","470298.208057","471065.196173","471831.837394","477191.352832","Mapping"
"Mixed","Both","ball","6","m150ball.wav","None","720.31673044","164","480298.266801","472581.331508","473348.101346","474114.78276","474881.333085","475648.0853","476415.219654","477181.580146","481047.71392","467231.352238","467998.136916","468764.435882","469531.412558","470298.208057","471065.196173","471831.837394","480308.417606","Mapping"
"Mixed","Both","ball","6","m160depth.wav","space","349.275280256","164","480298.266801","472581.331508","473348.101346","474114.78276","474881.333085","475648.0853","476415.219654","477181.580146","481047.71392","481814.668953","467998.136916","468764.435882","469531.412558","470298.208057","471065.196173","471831.837394","481057.032738","Mapping"
"Mixed","Both","ball","6","m160knife.wav","None","732.896408299","164","480298.266801","472581.331508","473348.101346","474114.78276","474881.333085","475648.0853","476415.219654","477181.580146","481047.71392","481814.668953","482581.215568","468764.435882","469531.412558","470298.208057","471065.196173","471831.837394","481824.127518","Mapping"
"Mixed","Both","ball","6","m150priest.wav","None","731.007972732","164","480298.266801","472581.331508","473348.101346","474114.78276","474881.333085","475648.0853","476415.219654","477181.580146","481047.71392","481814.668953","482581.215568","483347.910895","469531.412558","470298.208057","471065.196173","471831.837394","482590.672278","Mapping"
"Mixed","Both","ball","6","m150ball.wav","None","729.135923088","164","480298.266801","472581.331508","473348.101346","474114.78276","474881.333085","475648.0853","476415.219654","477181.580146","481047.71392","481814.668953","482581.215568","483347.910895","484114.635284","470298.208057","471065.196173","471831.837394","483357.263722","Mapping"
"Mixed","Both","ball","6","m150reek.wav","space","306.133118691","164","480298.266801","472581.331508","473348.101346","474114.78276","474881.333085","475648.0853","476415.219654","477181.580146","481047.71392","481814.668953","482581.215568","483347.910895","484114.635284","484881.553217","471065.196173","471831.837394","484124.159394","Mapping"
"Mixed","Both","ball","6","m150depth.wav","None","724.069795338","164","480298.266801","472581.331508","473348.101346","474114.78276","474881.333085","475648.0853","476415.219654","477181.580146","481047.71392","481814.668953","482581.215568","483347.910895","484114.635284","484881.553217","485647.690175","471831.837394","484891.000652","Mapping"
"Mixed","Both","ball","6","m160ball.wav","None","722.892151214","164","480298.266801","472581.331508","473348.101346","474114.78276","474881.333085","475648.0853","476415.219654","477181.580146","481047.71392","481814.668953","482581.215568","483347.910895","484114.635284","484881.553217","485647.690175","486414.967677","485656.889034","Mapping"
"Mixed","Both","ball","6","m160cling.wav","space","461.542909034","164","480298.266801","487164.488071","473348.101346","474114.78276","474881.333085","475648.0853","476415.219654","477181.580146","481047.71392","481814.668953","482581.215568","483347.910895","484114.635284","484881.553217","485647.690175","486414.967677","486424.666471","Mapping"
"Mixed","Both","ball","6","m150park.wav","None","733.966769185","164","480298.266801","487164.488071","487931.1565","474114.78276","474881.333085","475648.0853","476415.219654","477181.580146","481047.71392","481814.668953","482581.215568","483347.910895","484114.635284","484881.553217","485647.690175","486414.967677","487174.059175","Mapping"
"Mixed","Both","ball","6","m160ball.wav","None","732.700391905","164","480298.266801","487164.488071","487931.1565","488697.621183","474881.333085","475648.0853","476415.219654","477181.580146","481047.71392","481814.668953","482581.215568","483347.910895","484114.635284","484881.553217","485647.690175","486414.967677","487940.34732","Mapping"
"Mixed","Both","ball","6","m150dime.wav","space","291.235871147","164","480298.266801","487164.488071","487931.1565","488697.621183","489464.289921","475648.0853","476415.219654","477181.580146","481047.71392","481814.668953","482581.215568","483347.910895","484114.635284","484881.553217","485647.690175","486414.967677","488706.957624","Mapping"
"Mixed","Both","ball","6","m160jaw.wav","None","728.050103644","164","480298.266801","487164.488071","487931.1565","488697.621183","489464.289921","490230.948147","476415.219654","477181.580146","481047.71392","481814.668953","482581.215568","483347.910895","484114.635284","484881.553217","485647.690175","486414.967677","489473.097984","Mapping"
"Mixed","Both","ball","6","m160greet.wav","None","726.440852042","164","480298.266801","487164.488071","487931.1565","488697.621183","489464.289921","490230.948147","490997.633581","477181.580146","481047.71392","481814.668953","482581.215568","483347.910895","484114.635284","484881.553217","485647.690175","486414.967677","490239.899667","Mapping"
"Mixed","Both","ball","6","m160lash.wav","None","725.075848168","164","480298.266801","487164.488071","487931.1565","488697.621183","489464.289921","490230.948147","490997.633581","491764.900571","481047.71392","481814.668953","482581.215568","483347.910895","484114.635284","484881.553217","485647.690175","486414.967677","491006.897985","Mapping"
"Mixed","Both","done","45","m150bluff.wav","None","722.032337915","164","494881.429547","487164.488071","487931.1565","488697.621183","489464.289921","490230.948147","490997.633581","491764.900571","481047.71392","481814.668953","482581.215568","483347.910895","484114.635284","484881.553217","485647.690175","486414.967677","491774.649141","Mapping"
"Mixed","Both","done","45","m150cad.wav","None","721.063076751","164","494881.429547","487164.488071","487931.1565","488697.621183","489464.289921","490230.948147","490997.633581","491764.900571","495631.420813","481814.668953","482581.215568","483347.910895","484114.635284","484881.553217","485647.690175","486414.967677","494890.880692","Mapping"
"Mixed","Both","done","45","m150cling.wav","None","735.583750065","164","494881.429547","487164.488071","487931.1565","488697.621183","489464.289921","490230.948147","490997.633581","491764.900571","495631.420813","496398.042247","482581.215568","483347.910895","484114.635284","484881.553217","485647.690175","486414.967677","495640.992227","Mapping"
"Mixed","Both","done","45","m160jolt.wav","None","733.851756435","164","494881.429547","487164.488071","487931.1565","488697.621183","489464.289921","490230.948147","490997.633581","491764.900571","495631.420813","496398.042247","497164.412942","483347.910895","484114.635284","484881.553217","485647.690175","486414.967677","496407.40435","Mapping"
"Mixed","Both","done","45","m150cling.wav","None","731.782453833","164","494881.429547","487164.488071","487931.1565","488697.621183","489464.289921","490230.948147","490997.633581","491764.900571","495631.420813","496398.042247","497164.412942","497930.922764","484114.635284","484881.553217","485647.690175","486414.967677","497174.272815","Mapping"
"Mixed","Both","done","45","m160dime.wav","None","731.063314714","164","494881.429547","487164.488071","487931.1565","488697.621183","489464.289921","490230.948147","490997.633581","491764.900571","495631.420813","496398.042247","497164.412942","497930.922764","498697.850281","484881.553217","485647.690175","486414.967677","497939.885105","Mapping"
"Mixed","Both","done","45","m160cave.wav","None","728.860449046","164","494881.429547","487164.488071","487931.1565","488697.621183","489464.289921","490230.948147","490997.633581","491764.900571","495631.420813","496398.042247","497164.412942","497930.922764","498697.850281","499464.396896","485647.690175","486414.967677","498706.832099","Mapping"
"Mixed","Both","done","45","m160reek.wav","None","726.752499584","164","494881.429547","487164.488071","487931.1565","488697.621183","489464.289921","490230.948147","490997.633581","491764.900571","495631.420813","496398.042247","497164.412942","497930.922764","498697.850281","499464.396896","500230.954949","486414.967677","499473.753124","Mapping"
"Mixed","Both","done","45","m160done.wav","None","725.166745484","164","494881.429547","487164.488071","487931.1565","488697.621183","489464.289921","490230.948147","490997.633581","491764.900571","495631.420813","496398.042247","497164.412942","497930.922764","498697.850281","499464.396896","500230.954949","500998.167834","500240.583251","Mapping"
"Mixed","Both","done","45","m150jaw.wav","space","365.930182859","164","494881.429547","501764.838427","487931.1565","488697.621183","489464.289921","490230.948147","490997.633581","491764.900571","495631.420813","496398.042247","497164.412942","497930.922764","498697.850281","499464.396896","500230.954949","500998.167834","501008.09016","Mapping"
"Mixed","Both","done","45","m150done.wav","None","719.796390273","164","494881.429547","501764.838427","502514.055521","488697.621183","489464.289921","490230.948147","490997.633581","491764.900571","495631.420813","496398.042247","497164.412942","497930.922764","498697.850281","499464.396896","500230.954949","500998.167834","501774.265147","Mapping"
"Mixed","Both","done","45","m160park.wav","space","442.5747653","164","494881.429547","501764.838427","502514.055521","503280.889976","489464.289921","490230.948147","490997.633581","491764.900571","495631.420813","496398.042247","497164.412942","497930.922764","498697.850281","499464.396896","500230.954949","500998.167834","502523.396909","Mapping"
"Mixed","Both","done","45","m150done.wav","None","732.336803107","164","494881.429547","501764.838427","502514.055521","503280.889976","504047.524087","490230.948147","490997.633581","491764.900571","495631.420813","496398.042247","497164.412942","497930.922764","498697.850281","499464.396896","500230.954949","500998.167834","503290.269084","Mapping"
"Mixed","Both","done","45","m150knife.wav","space","324.584322982","164","494881.429547","501764.838427","502514.055521","503280.889976","504047.524087","504814.341847","490997.633581","491764.900571","495631.420813","496398.042247","497164.412942","497930.922764","498697.850281","499464.396896","500230.954949","500998.167834","504057.417042","Mapping"
"Mixed","Both","done","45","m160done.wav","None","727.079914883","164","494881.429547","501764.838427","502514.055521","503280.889976","504047.524087","504814.341847","505580.920925","491764.900571","495631.420813","496398.042247","497164.412942","497930.922764","498697.850281","499464.396896","500230.954949","500998.167834","504823.804431","Mapping"
"Mixed","Both","done","45","m160park.wav","space","327.604645398","164","494881.429547","501764.838427","502514.055521","503280.889976","504047.524087","504814.341847","505580.920925","506348.047859","495631.420813","496398.042247","497164.412942","497930.922764","498697.850281","499464.396896","500230.954949","500998.167834","505590.34208","Mapping"
"Mixed","Both","tile","35","m150depth.wav","None","721.545079257","164","509464.660312","501764.838427","502514.055521","503280.889976","504047.524087","504814.341847","505580.920925","506348.047859","495631.420813","496398.042247","497164.412942","497930.922764","498697.850281","499464.396896","500230.954949","500998.167834","506357.823018","Mapping"
"Mixed","Both","tile","35","m150tile.wav","None","720.224287361","164","509464.660312","501764.838427","502514.055521","503280.889976","504047.524087","504814.341847","505580.920925","506348.047859","510214.398982","496398.042247","497164.412942","497930.922764","498697.850281","499464.396896","500230.954949","500998.167834","509474.313657","Mapping"
"Mixed","Both","tile","35","m150cave.wav","space","382.106793113","164","509464.660312","501764.838427","502514.055521","503280.889976","504047.524087","504814.341847","505580.920925","506348.047859","510214.398982","510980.779879","497164.412942","497930.922764","498697.850281","499464.396896","500230.954949","500998.167834","510223.762013","Mapping"
"Mixed","Both","tile","35","m160knife.wav","None","733.560823603","164","509464.660312","501764.838427","502514.055521","503280.889976","504047.524087","504814.341847","505580.920925","506348.047859","510214.398982","510980.779879","511747.285683","497930.922764","498697.850281","499464.396896","500230.954949","500998.167834","510990.209073","Mapping"
"Mixed","Both","tile","35","m150tile.wav","None","732.283316087","164","509464.660312","501764.838427","502514.055521","503280.889976","504047.524087","504814.341847","505580.920925","506348.047859","510214.398982","510980.779879","511747.285683","512513.83137","498697.850281","499464.396896","500230.954949","500998.167834","511756.362727","Mapping"
"Mixed","Both","tile","35","m160gnash.wav","space","435.242390959","164","509464.660312","501764.838427","502514.055521","503280.889976","504047.524087","504814.341847","505580.920925","506348.047859","510214.398982","510980.779879","511747.285683","512513.83137","513280.530098","499464.396896","500230.954949","500998.167834","512522.60666","Mapping"
"Mixed","Both","tile","35","m150greet.wav","None","729.951524641","164","509464.660312","501764.838427","502514.055521","503280.889976","504047.524087","504814.341847","505580.920925","506348.047859","510214.398982","510980.779879","511747.285683","512513.83137","513280.530098","514047.562425","500230.954949","500998.167834","513289.522737","Mapping"
"Mixed","Both","tile","35","m160dime.wav","None","727.919013705","164","509464.660312","501764.838427","502514.055521","503280.889976","504047.524087","504814.341847","505580.920925","506348.047859","510214.398982","510980.779879","511747.285683","512513.83137","513280.530098","514047.562425","514814.133464","500998.167834","514057.26029","Mapping"
"Mixed","Both","tile","35","m160tile.wav","None","726.678916253","164","509464.660312","501764.838427","502514.055521","503280.889976","504047.524087","504814.341847","505580.920925","506348.047859","510214.398982","510980.779879","511747.285683","512513.83137","513280.530098","514047.562425","514814.133464","515580.363793","514823.369732","Mapping"
"Mixed","Both","tile","35","m150jaw.wav","space","352.247989736","164","509464.660312","516347.909967","502514.055521","503280.889976","504047.524087","504814.341847","505580.920925","506348.047859","510214.398982","510980.779879","511747.285683","512513.83137","513280.530098","514047.562425","514814.133464","515580.363793","515589.523696","Mapping"
"Mixed","Both","tile","35","m150depth.wav","None","721.26805922","164","509464.660312","516347.909967","517114.315289","503280.889976","504047.524087","504814.341847","505580.920925","506348.047859","510214.398982","510980.779879","511747.285683","512513.83137","513280.530098","514047.562425","514814.133464","515580.363793","516357.724701","Mapping"
"Mixed","Both","tile","35","m160tile.wav","None","719.366947189","164","509464.660312","516347.909967","517114.315289","517863.628227","504047.524087","504814.341847","505580.920925","506348.047859","510214.398982","510980.779879","511747.285683","512513.83137","513280.530098","514047.562425","514814.133464","515580.363793","517124.657783","Mapping"
"Mixed","Both","tile","35","m160done.wav","space","525.322136469","164","509464.660312","516347.909967","517114.315289","517863.628227","518630.637056","504814.341847","505580.920925","506348.047859","510214.398982","510980.779879","511747.285683","512513.83137","513280.530098","514047.562425","514814.133464","515580.363793","517872.432888","Mapping"
"Mixed","Both","tile","35","m160depth.wav","None","733.065835899","164","509464.660312","516347.909967","517114.315289","517863.628227","518630.637056","519397.330529","505580.920925","506348.047859","510214.398982","510980.779879","511747.285683","512513.83137","513280.530098","514047.562425","514814.133464","515580.363793","518639.72554","Mapping"
"Mixed","Both","tile","35","m150depth.wav","None","731.050638715","164","509464.660312","516347.909967","517114.315289","517863.628227","518630.637056","519397.330529","520163.746671","506348.047859","510214.398982","510980.779879","511747.285683","512513.83137","513280.530098","514047.562425","514814.133464","515580.363793","519406.717056","Mapping"
"Mixed","Both","tile","35","m160priest.wav","None","730.181240942","164","509464.660312","516347.909967","517114.315289","517863.628227","518630.637056","519397.330529","520163.746671","520930.593185","510214.398982","510980.779879","511747.285683","512513.83137","513280.530098","514047.562425","514814.133464","515580.363793","520172.682114","Mapping"
"Mixed","Both","done","38","m160tile.wav","None","727.903245715","164","524064.2164","516347.909967","517114.315289","517863.628227","518630.637056","519397.330529","520163.746671","520930.593185","510214.398982","510980.779879","511747.285683","512513.83137","513280.530098","514047.562425","514814.133464","515580.363793","520939.976311","Mapping"
"Mixed","Both","done","38","m160done.wav","None","719.860389363","164","524064.2164","516347.909967","517114.315289","517863.628227","518630.637056","519397.330529","520163.746671","520930.593185","524813.409687","510980.779879","511747.285683","512513.83137","513280.530098","514047.562425","514814.133464","515580.363793","524074.288366","Mapping"
"Mixed","Both","done","38","m160cad.wav","space","359.138244996","164","524064.2164","516347.909967","517114.315289","517863.628227","518630.637056","519397.330529","520163.746671","520930.593185","524813.409687","525580.534457","511747.285683","512513.83137","513280.530098","514047.562425","514814.133464","515580.363793","524822.504972","Mapping"
"Mixed","Both","done","38","m150done.wav","None","733.098299243","164","524064.2164","516347.909967","517114.315289","517863.628227","518630.637056","519397.330529","520163.746671","520930.593185","524813.409687","525580.534457","526347.041188","512513.83137","513280.530098","514047.562425","514814.133464","515580.363793","525589.597588","Mapping"
"Mixed","Both","done","38","m150reek.wav","space","417.349864263","164","524064.2164","516347.909967","517114.315289","517863.628227","518630.637056","519397.330529","520163.746671","520930.593185","524813.409687","525580.534457","526347.041188","527114.01539","513280.530098","514047.562425","514814.133464","515580.363793","526356.296007","Mapping"
"Mixed","Both","done","38","m150done.wav","None","727.765972493","164","524064.2164","516347.909967","517114.315289","517863.628227","518630.637056","519397.330529","520163.746671","520930.593185","524813.409687","525580.534457","526347.041188","527114.01539","527880.43277","514047.562425","514814.133464","515580.363793","527123.538572","Mapping"
"Mixed","Both","done","38","m150dime.wav","space","476.072239224","164","524064.2164","516347.909967","517114.315289","517863.628227","518630.637056","519397.330529","520163.746671","520930.593185","524813.409687","525580.534457","526347.041188","527114.01539","527880.43277","528647.987292","514814.133464","515580.363793","527889.515997","Mapping"
"Mixed","Both","done","38","m160done.wav","None","722.113959724","164","524064.2164","516347.909967","517114.315289","517863.628227","518630.637056","519397.330529","520163.746671","520930.593185","524813.409687","525580.534457","526347.041188","527114.01539","527880.43277","528647.987292","529414.273581","515580.363793","528657.880556","Mapping"
"Mixed","Both","done","38","m150priest.wav","space","349.62000954","164","524064.2164","516347.909967","517114.315289","517863.628227","518630.637056","519397.330529","520163.746671","520930.593185","524813.409687","525580.534457","526347.041188","527114.01539","527880.43277","528647.987292","529414.273581","530163.356803","529423.960008","Mapping"
"Mixed","Both","done","38","m160gnash.wav","None","736.259295605","164","524064.2164","530930.238871","517114.315289","517863.628227","518630.637056","519397.330529","520163.746671","520930.593185","524813.409687","525580.534457","526347.041188","527114.01539","527880.43277","528647.987292","529414.273581","530163.356803","530172.453943","Mapping"
"Mixed","Both","done","38","m150lash.wav","None","734.228639631","164","524064.2164","530930.238871","531697.312009","517863.628227","518630.637056","519397.330529","520163.746671","520930.593185","524813.409687","525580.534457","526347.041188","527114.01539","527880.43277","528647.987292","529414.273581","530163.356803","530939.337248","Mapping"
"Mixed","Both","done","38","m160greet.wav","None","732.027010759","164","524064.2164","530930.238871","531697.312009","532463.930661","518630.637056","519397.330529","520163.746671","520930.593185","524813.409687","525580.534457","526347.041188","527114.01539","527880.43277","528647.987292","529414.273581","530163.356803","531706.556625","Mapping"
"Mixed","Both","done","38","m160dime.wav","None","730.811646907","164","524064.2164","530930.238871","531697.312009","532463.930661","533230.425952","519397.330529","520163.746671","520930.593185","524813.409687","525580.534457","526347.041188","527114.01539","527880.43277","528647.987292","529414.273581","530163.356803","532473.209596","Mapping"
"Mixed","Both","done","38","m150cave.wav","space","462.110861903","164","524064.2164","530930.238871","531697.312009","532463.930661","533230.425952","533997.329972","520163.746671","520930.593185","524813.409687","525580.534457","526347.041188","527114.01539","527880.43277","528647.987292","529414.273581","530163.356803","533239.425703","Mapping"
"Mixed","Both","done","38","m160jolt.wav","None","725.790658733","164","524064.2164","530930.238871","531697.312009","532463.930661","533230.425952","533997.329972","534763.577924","520930.593185","524813.409687","525580.534457","526347.041188","527114.01539","527880.43277","528647.987292","529414.273581","530163.356803","534007.359891","Mapping"
"Mixed","Both","done","38","m150reek.wav","None","725.066572893","164","524064.2164","530930.238871","531697.312009","532463.930661","533230.425952","533997.329972","534763.577924","535530.327666","524813.409687","525580.534457","526347.041188","527114.01539","527880.43277","528647.987292","529414.273581","530163.356803","534772.971563","Mapping"
"Mixed","Both","cave","19","m150romp.wav","None","723.725684453","164","538647.600824","530930.238871","531697.312009","532463.930661","533230.425952","533997.329972","534763.577924","535530.327666","524813.409687","525580.534457","526347.041188","527114.01539","527880.43277","528647.987292","529414.273581","530163.356803","535539.271147","Mapping"
"Mixed","Both","cave","19","m150cave.wav","None","719.503911445","164","538647.600824","530930.238871","531697.312009","532463.930661","533230.425952","533997.329972","534763.577924","535530.327666","539396.786691","525580.534457","526347.041188","527114.01539","527880.43277","528647.987292","529414.273581","530163.356803","538657.32837","Mapping"
"Mixed","Both","cave","19","m150greet.wav","space","423.178106314","164","538647.600824","530930.238871","531697.312009","532463.930661","533230.425952","533997.329972","534763.577924","535530.327666","539396.786691","540163.866322","526347.041188","527114.01539","527880.43277","528647.987292","529414.273581","530163.356803","539406.241855","Mapping"
"Mixed","Both","cave","19","m150reek.wav","None","732.05483635","164","538647.600824","530930.238871","531697.312009","532463.930661","533230.425952","533997.329972","534763.577924","535530.327666","539396.786691","540163.866322","540930.242581","527114.01539","527880.43277","528647.987292","529414.273581","530163.356803","540173.344674","Mapping"
"Mixed","Both","cave","19","m160cave.wav","None","730.093744816","164","538647.600824","530930.238871","531697.312009","532463.930661","533230.425952","533997.329972","534763.577924","535530.327666","539396.786691","540163.866322","540930.242581","541697.116302","527880.43277","528647.987292","529414.273581","530163.356803","540940.203245","Mapping"
"Mixed","Both","cave","19","m160lash.wav","space","506.706451066","164","538647.600824","530930.238871","531697.312009","532463.930661","533230.425952","533997.329972","534763.577924","535530.327666","539396.786691","540163.866322","540930.242581","541697.116302","542463.772673","528647.987292","529414.273581","530163.356803","541706.663909","Mapping"
"Mixed","Both","cave","19","m160reek.wav","None","725.498798303","164","538647.600824","530930.238871","531697.312009","532463.930661","533230.425952","533997.329972","534763.577924","535530.327666","539396.786691","540163.866322","540930.242581","541697.116302","542463.772673","543230.218187","529414.273581","530163.356803","542473.288744","Mapping"
"Mixed","Both","cave","19","m150cad.wav","None","725.014322437","164","538647.600824","530930.238871","531697.312009","532463.930661","533230.425952","533997.329972","534763.577924","535530.327666","539396.786691","540163.866322","540930.242581","541697.116302","542463.772673","543230.218187","543997.841346","530163.356803","543239.257512","Mapping"
"Mixed","Both","cave","19","m160done.wav","None","721.72687389","164","538647.600824","530930.238871","531697.312009","532463.930661","533230.425952","533997.329972","534763.577924","535530.327666","539396.786691","540163.866322","540930.242581","541697.116302","542463.772673","543230.218187","543997.841346","544763.572359","544007.593317","Mapping"
"Mixed","Both","cave","19","m150cave.wav","None","721.830137772","164","538647.600824","545530.570368","531697.312009","532463.930661","533230.425952","533997.329972","534763.577924","535530.327666","539396.786691","540163.866322","540930.242581","541697.116302","542463.772673","543230.218187","543997.841346","544763.572359","544772.483686","Mapping"
"Mixed","Both","cave","19","m160bluff.wav","space","488.555145683","164","538647.600824","545530.570368","546280.239165","532463.930661","533230.425952","533997.329972","534763.577924","535530.327666","539396.786691","540163.866322","540930.242581","541697.116302","542463.772673","543230.218187","543997.841346","544763.572359","545540.786718","Mapping"
"Mixed","Both","cave","19","m160done.wav","None","732.660199283","164","538647.600824","545530.570368","546280.239165","547047.121233","533230.425952","533997.329972","534763.577924","535530.327666","539396.786691","540163.866322","540930.242581","541697.116302","542463.772673","543230.218187","543997.841346","544763.572359","546289.929301","Mapping"
"Mixed","Both","cave","19","m150jaw.wav","None","731.053112075","164","538647.600824","545530.570368","546280.239165","547047.121233","547813.717006","533997.329972","534763.577924","535530.327666","539396.786691","540163.866322","540930.242581","541697.116302","542463.772673","543230.218187","543997.841346","544763.572359","547056.439742","Mapping"
"Mixed","Both","cave","19","m160cave.wav","None","729.221255286","164","538647.600824","545530.570368","546280.239165","547047.121233","547813.717006","548579.843453","534763.577924","535530.327666","539396.786691","540163.866322","540930.242581","541697.116302","542463.772673","543230.218187","543997.841346","544763.572359","547823.208343","Mapping"
"Mixed","Both","cave","19","m150tile.wav","space","408.121324843","164","538647.600824","545530.570368","546280.239165","547047.121233","547813.717006","548579.843453","549346.934523","535530.327666","539396.786691","540163.866322","540930.242581","541697.116302","542463.772673","543230.218187","543997.841346","544763.572359","548589.17371","Mapping"
"Mixed","Both","cave","19","m160greet.wav","None","725.078012329","164","538647.600824","545530.570368","546280.239165","547047.121233","547813.717006","548579.843453","549346.934523","550114.209242","539396.786691","540163.866322","540930.242581","541697.116302","542463.772673","543230.218187","543997.841346","544763.572359","549356.184395","Mapping"
"Mixed","Both","cave","14","m160cling.wav","None","722.154770512","164","553230.521178","545530.570368","546280.239165","547047.121233","547813.717006","548579.843453","549346.934523","550114.209242","539396.786691","540163.866322","540930.242581","541697.116302","542463.772673","543230.218187","543997.841346","544763.572359","550124.089212","Mapping"
"Mixed","Both","cave","14","m160cave.wav","None","721.044526435","164","553230.521178","545530.570368","546280.239165","547047.121233","547813.717006","548579.843453","549346.934523","550114.209242","553996.595992","540163.866322","540930.242581","541697.116302","542463.772673","543230.218187","543997.841346","544763.572359","553240.191218","Mapping"
"Mixed","Both","cave","14","m150knife.wav","space","351.253685774","164","553230.521178","545530.570368","546280.239165","547047.121233","547813.717006","548579.843453","549346.934523","550114.209242","553996.595992","554746.847583","540930.242581","541697.116302","542463.772673","543230.218187","543997.841346","544763.572359","554005.978501","Mapping"
"Mixed","Both","cave","14","m150knife.wav","None","738.683221163","164","553230.521178","545530.570368","546280.239165","547047.121233","547813.717006","548579.843453","549346.934523","550114.209242","553996.595992","554746.847583","555513.28475","541697.116302","542463.772673","543230.218187","543997.841346","544763.572359","554751.304947","Mapping"
"Mixed","Both","cave","14","m150priest.wav","None","732.472530799","164","553230.521178","545530.570368","546280.239165","547047.121233","547813.717006","548579.843453","549346.934523","550114.209242","553996.595992","554746.847583","555513.28475","556279.999246","542463.772673","543230.218187","543997.841346","544763.572359","555522.510506","Mapping"
"Mixed","Both","cave","14","m150cave.wav","None","730.592751643","164","553230.521178","545530.570368","546280.239165","547047.121233","547813.717006","548579.843453","549346.934523","550114.209242","553996.595992","554746.847583","555513.28475","556279.999246","557046.760118","543230.218187","543997.841346","544763.572359","556289.388865","Mapping"
"Mixed","Both","cave","14","m150gnash.wav","space","397.119981004","164","553230.521178","545530.570368","546280.239165","547047.121233","547813.717006","548579.843453","549346.934523","550114.209242","553996.595992","554746.847583","555513.28475","556279.999246","557046.760118","557813.307659","543997.841346","544763.572359","557056.046163","Mapping"
"Mixed","Both","cave","14","m150cave.wav","None","726.32089234","164","553230.521178","545530.570368","546280.239165","547047.121233","547813.717006","548579.843453","549346.934523","550114.209242","553996.595992","554746.847583","555513.28475","556279.999246","557046.760118","557813.307659","558580.445724","544763.572359","557822.311429","Mapping"
"Mixed","Both","cave","14","m150reek.wav","space","575.097938767","164","553230.521178","545530.570368","546280.239165","547047.121233","547813.717006","548579.843453","549346.934523","550114.209242","553996.595992","554746.847583","555513.28475","556279.999246","557046.760118","557813.307659","558580.445724","559346.932359","558590.048055","Mapping"
"Mixed","Both","cave","14","m160cling.wav","None","721.313198563","164","553230.521178","560097.212084","546280.239165","547047.121233","547813.717006","548579.843453","549346.934523","550114.209242","553996.595992","554746.847583","555513.28475","556279.999246","557046.760118","557813.307659","558580.445724","559346.932359","559355.947568","Mapping"
"Mixed","Both","cave","14","m160cave.wav","None","735.276740277","164","553230.521178","560097.212084","560863.108814","547047.121233","547813.717006","548579.843453","549346.934523","550114.209242","553996.595992","554746.847583","555513.28475","556279.999246","557046.760118","557813.307659","558580.445724","559346.932359","560107.159453","Mapping"
"Mixed","Both","cave","14","m160greet.wav","space","516.988347052","164","553230.521178","560097.212084","560863.108814","561629.968313","547813.717006","548579.843453","549346.934523","550114.209242","553996.595992","554746.847583","555513.28475","556279.999246","557046.760118","557813.307659","558580.445724","559346.932359","560872.121859","Mapping"
"Mixed","Both","cave","14","m160ball.wav","None","732.283934485","164","553230.521178","560097.212084","560863.108814","561629.968313","562396.851309","548579.843453","549346.934523","550114.209242","553996.595992","554746.847583","555513.28475","556279.999246","557046.760118","557813.307659","558580.445724","559346.932359","561638.984449","Mapping"
"Mixed","Both","cave","14","m150cad.wav","None","729.680378921","164","553230.521178","560097.212084","560863.108814","561629.968313","562396.851309","563163.357421","549346.934523","550114.209242","553996.595992","554746.847583","555513.28475","556279.999246","557046.760118","557813.307659","558580.445724","559346.932359","562406.576382","Mapping"
"Mixed","Both","cave","14","m160cad.wav","None","728.613727959","164","553230.521178","560097.212084","560863.108814","561629.968313","562396.851309","563163.357421","563930.08212","550114.209242","553996.595992","554746.847583","555513.28475","556279.999246","557046.760118","557813.307659","558580.445724","559346.932359","563172.804547","Mapping"
"Mixed","Both","cave","14","m160romp.wav","None","726.833503228","164","553230.521178","560097.212084","560863.108814","561629.968313","562396.851309","563163.357421","563930.08212","564696.501663","553996.595992","554746.847583","555513.28475","556279.999246","557046.760118","557813.307659","558580.445724","559346.932359","563939.630964","Mapping"
"Mixed","Both","tile","36","m160romp.wav","None","725.953902584","164","567830.109111","560097.212084","560863.108814","561629.968313","562396.851309","563163.357421","563930.08212","564696.501663","553996.595992","554746.847583","555513.28475","556279.999246","557046.760118","557813.307659","558580.445724","559346.932359","564705.679498","Mapping"
"Mixed","Both","tile","36","m150tile.wav","None","721.067405306","164","567830.109111","560097.212084","560863.108814","561629.968313","562396.851309","563163.357421","563930.08212","564696.501663","568596.473931","554746.847583","555513.28475","556279.999246","557046.760118","557813.307659","558580.445724","559346.932359","567839.430402","Mapping"
"Mixed","Both","tile","36","m160greet.wav","space","487.353385892","164","567830.109111","560097.212084","560863.108814","561629.968313","562396.851309","563163.357421","563930.08212","564696.501663","568596.473931","569346.348329","555513.28475","556279.999246","557046.760118","557813.307659","558580.445724","559346.932359","568605.648055","Mapping"
"Mixed","Both","tile","36","m150cling.wav","None","734.398685861","164","567830.109111","560097.212084","560863.108814","561629.968313","562396.851309","563163.357421","563930.08212","564696.501663","568596.473931","569346.348329","570113.115075","556279.999246","557046.760118","557813.307659","558580.445724","559346.932359","569355.200603","Mapping"
"Mixed","Both","tile","36","m150tile.wav","None","732.462018728","164","567830.109111","560097.212084","560863.108814","561629.968313","562396.851309","563163.357421","563930.08212","564696.501663","568596.473931","569346.348329","570113.115075","570879.862652","557046.760118","557813.307659","558580.445724","559346.932359","570122.349798","Mapping"
"Mixed","Both","tile","36","m160cling.wav","space","468.11100468","164","567830.109111","560097.212084","560863.108814","561629.968313","562396.851309","563163.357421","563930.08212","564696.501663","568596.473931","569346.348329","570113.115075","570879.862652","571646.704219","557813.307659","558580.445724","559346.932359","570888.857147","Mapping"
"Mixed","Both","tile","36","m160tile.wav","None","727.909120033","164","567830.109111","560097.212084","560863.108814","561629.968313","562396.851309","563163.357421","563930.08212","564696.501663","568596.473931","569346.348329","570113.115075","570879.862652","571646.704219","572413.2969","558580.445724","559346.932359","571656.167731","Mapping"
"Mixed","Both","tile","36","m150romp.wav","space","525.968928821","164","567830.109111","560097.212084","560863.108814","561629.968313","562396.851309","563163.357421","563930.08212","564696.501663","568596.473931","569346.348329","570113.115075","570879.862652","571646.704219","572413.2969","573179.603905","559346.932359","572422.968486","Mapping"
"Mixed","Both","tile","36","m150bluff.wav","None","725.045858184","164","567830.109111","560097.212084","560863.108814","561629.968313","562396.851309","563163.357421","563930.08212","564696.501663","568596.473931","569346.348329","570113.115075","570879.862652","571646.704219","572413.2969","573179.603905","573947.06722","573188.752677","Mapping"
"Mixed","Both","tile","36","m160jaw.wav","None","721.574759809","164","567830.109111","574713.668559","560863.108814","561629.968313","562396.851309","563163.357421","563930.08212","564696.501663","568596.473931","569346.348329","570113.115075","570879.862652","571646.704219","572413.2969","573179.603905","573947.06722","573957.310779","Mapping"
"Mixed","Both","tile","36","m150priest.wav","None","720.680937637","164","567830.109111","574713.668559","575480.080064","561629.968313","562396.851309","563163.357421","563930.08212","564696.501663","568596.473931","569346.348329","570113.115075","570879.862652","571646.704219","572413.2969","573179.603905","573947.06722","574723.482055","Mapping"
"Mixed","Both","tile","36","m160tile.wav","None","719.268011628","164","567830.109111","574713.668559","575480.080064","576246.407164","562396.851309","563163.357421","563930.08212","564696.501663","568596.473931","569346.348329","570113.115075","570879.862652","571646.704219","572413.2969","573179.603905","573947.06722","575490.201807","Mapping"
"Mixed","Both","tile","36","m160cave.wav","space","485.434032744","164","567830.109111","574713.668559","575480.080064","576246.407164","576996.312789","563163.357421","563930.08212","564696.501663","568596.473931","569346.348329","570113.115075","570879.862652","571646.704219","572413.2969","573179.603905","573947.06722","576255.407842","Mapping"
"Mixed","Both","tile","36","m160lash.wav","None","736.478190869","164","567830.109111","574713.668559","575480.080064","576246.407164","576996.312789","577762.927112","563930.08212","564696.501663","568596.473931","569346.348329","570113.115075","570879.862652","571646.704219","572413.2969","573179.603905","573947.06722","577005.419205","Mapping"
"Mixed","Both","tile","36","m150ball.wav","None","735.125863226","164","567830.109111","574713.668559","575480.080064","576246.407164","576996.312789","577762.927112","578529.690767","564696.501663","568596.473931","569346.348329","570113.115075","570879.862652","571646.704219","572413.2969","573179.603905","573947.06722","577771.955616","Mapping"
"Mixed","Both","tile","36","m150ball.wav","None","734.184427885","164","567830.109111","574713.668559","575480.080064","576246.407164","576996.312789","577762.927112","578529.690767","579296.543773","568596.473931","569346.348329","570113.115075","570879.862652","571646.704219","572413.2969","573179.603905","573947.06722","578538.757299","Mapping"
"Mixed","Both","done","47","m160knife.wav","None","732.444086578","164","582429.859978","574713.668559","575480.080064","576246.407164","576996.312789","577762.927112","578529.690767","579296.543773","568596.473931","569346.348329","570113.115075","570879.862652","571646.704219","572413.2969","573179.603905","573947.06722","579305.840949","Mapping"
"Mixed","Both","done","47","m150gnash.wav","None","720.256132074","164","582429.859978","574713.668559","575480.080064","576246.407164","576996.312789","577762.927112","578529.690767","579296.543773","583196.900034","569346.348329","570113.115075","570879.862652","571646.704219","572413.2969","573179.603905","573947.06722","582440.156714","Mapping"
"Mixed","Both","done","47","m150tile.wav","None","719.069212675","164","582429.859978","574713.668559","575480.080064","576246.407164","576996.312789","577762.927112","578529.690767","579296.543773","583196.900034","583946.19504","570113.115075","570879.862652","571646.704219","572413.2969","573179.603905","573947.06722","583206.834418","Mapping"
"Mixed","Both","done","47","m160cave.wav","None","735.596117098","164","582429.859978","574713.668559","575480.080064","576246.407164","576996.312789","577762.927112","578529.690767","579296.543773","583196.900034","583946.19504","584713.086074","570879.862652","571646.704219","572413.2969","573179.603905","573947.06722","583955.665354","Mapping"
"Mixed","Both","done","47","m160tile.wav","None","734.159075655","164","582429.859978","574713.668559","575480.080064","576246.407164","576996.312789","577762.927112","578529.690767","579296.543773","583196.900034","583946.19504","584713.086074","585479.596825","571646.704219","572413.2969","573179.603905","573947.06722","584722.415405","Mapping"
"Mixed","Both","done","47","m160tile.wav","None","732.68895247","164","582429.859978","574713.668559","575480.080064","576246.407164","576996.312789","577762.927112","578529.690767","579296.543773","583196.900034","583946.19504","584713.086074","585479.596825","586245.977412","572413.2969","573179.603905","573947.06722","585489.228218","Mapping"
"Mixed","Both","done","47","m160done.wav","None","731.502651237","164","582429.859978","574713.668559","575480.080064","576246.407164","576996.312789","577762.927112","578529.690767","579296.543773","583196.900034","583946.19504","584713.086074","585479.596825","586245.977412","587013.0994","573179.603905","573947.06722","586255.709906","Mapping"
"Mixed","Both","done","47","m150bluff.wav","space","486.121945083","164","582429.859978","574713.668559","575480.080064","576246.407164","576996.312789","577762.927112","578529.690767","579296.543773","583196.900034","583946.19504","584713.086074","585479.596825","586245.977412","587013.0994","587779.488335","573947.06722","587022.61609","Mapping"
"Mixed","Both","done","47","m150dime.wav","None","728.08163939","164","582429.859978","574713.668559","575480.080064","576246.407164","576996.312789","577762.927112","578529.690767","579296.543773","583196.900034","583946.19504","584713.086074","585479.596825","586245.977412","587013.0994","587779.488335","588546.354636","587788.556413","Mapping"
"Mixed","Both","done","47","m160done.wav","None","726.22875846","164","582429.859978","589312.700287","575480.080064","576246.407164","576996.312789","577762.927112","578529.690767","579296.543773","583196.900034","583946.19504","584713.086074","585479.596825","586245.977412","587013.0994","587779.488335","588546.354636","588555.587504","Mapping"
"Mixed","Both","done","47","m160cave.wav","space","459.233687259","164","582429.859978","589312.700287","590079.84639","576246.407164","576996.312789","577762.927112","578529.690767","579296.543773","583196.900034","583946.19504","584713.086074","585479.596825","586245.977412","587013.0994","587779.488335","588546.354636","589321.467229","Mapping"
"Mixed","Both","done","47","m150done.wav","None","720.819756854","164","582429.859978","589312.700287","590079.84639","590846.43567","576996.312789","577762.927112","578529.690767","579296.543773","583196.900034","583946.19504","584713.086074","585479.596825","586245.977412","587013.0994","587779.488335","588546.354636","590089.795923","Mapping"
"Mixed","Both","done","47","m150romp.wav","None","719.645204255","164","582429.859978","589312.700287","590079.84639","590846.43567","591596.212678","577762.927112","578529.690767","579296.543773","583196.900034","583946.19504","584713.086074","585479.596825","586245.977412","587013.0994","587779.488335","588546.354636","590856.246075","Mapping"
"Mixed","Both","done","47","m160bluff.wav","space","102.896250552","164","582429.859978","589312.700287","590079.84639","590846.43567","591596.212678","592363.021782","578529.690767","579296.543773","583196.900034","583946.19504","584713.086074","585479.596825","586245.977412","587013.0994","587779.488335","588546.354636","591605.754411","Mapping"
