"Condition","Talker","Target","Trial","current_stimulus","response_response","response_time_response","subject_nr","time_Audio1","time_Audio10","time_Audio11","time_Audio12","time_Audio13","time_Audio14","time_Audio15","time_Audio16","time_Audio2","time_Audio3","time_Audio4","time_Audio5","time_Audio6","time_Audio7","time_Audio8","time_Audio9","time_response","title"
"Mixed","Both","ball","7","m160priest.wav","NA","NA","107","326424.915588","NA","NA","NA","NA","NA","NA","NA","NA","NA","NA","NA","NA","NA","NA","NA","NA","Mapping"
"Mixed","Both","ball","7","m150jolt.wav","None","715.386900818","107","326424.915588","NA","NA","NA","NA","NA","NA","NA","327174.46149","NA","NA","NA","NA","NA","NA","NA","326439.013577","Mapping"
"Mixed","Both","ball","7","m160reek.wav","None","733.914723154","107","326424.915588","NA","NA","NA","NA","NA","NA","NA","327174.46149","327940.951011","NA","NA","NA","NA","NA","NA","327184.243421","Mapping"
"Mixed","Both","ball","7","m160ball.wav","None","731.547693256","107","326424.915588","NA","NA","NA","NA","NA","NA","NA","327174.46149","327940.951011","328707.48969","NA","NA","NA","NA","NA","327950.077185","Mapping"
"Mixed","Both","ball","7","m150gnash.wav","space","437.399692833","107","326424.915588","NA","NA","NA","NA","NA","NA","NA","327174.46149","327940.951011","328707.48969","329474.328576","NA","NA","NA","NA","328716.588039","Mapping"
"Mixed","Both","ball","7","m150jolt.wav","None","725.860761246","107","326424.915588","NA","NA","NA","NA","NA","NA","NA","327174.46149","327940.951011","328707.48969","329474.328576","330241.66956","NA","NA","NA","329483.335719","Mapping"
"Mixed","Both","ball","7","m160dime.wav","None","721.54439427","107","326424.915588","NA","NA","NA","NA","NA","NA","NA","327174.46149","327940.951011","328707.48969","329474.328576","330241.66956","330991.365102","NA","NA","330251.819407","Mapping"
"Mixed","Both","ball","7","m160depth.wav","None","736.152827973","107","326424.915588","NA","NA","NA","NA","NA","NA","NA","327174.46149","327940.951011","328707.48969","329474.328576","330241.66956","330991.365102","331757.518242","NA","331000.883308","Mapping"
"Mixed","Both","ball","7","m150ball.wav","None","733.883806039","107","326424.915588","NA","NA","NA","NA","NA","NA","NA","327174.46149","327940.951011","328707.48969","329474.328576","330241.66956","330991.365102","331757.518242","332524.351254","331766.918344","Mapping"
"Mixed","Both","ball","7","m150tile.wav","space","380.248717498","107","326424.915588","333291.249502","NA","NA","NA","NA","NA","NA","327174.46149","327940.951011","328707.48969","329474.328576","330241.66956","330991.365102","331757.518242","332524.351254","332533.634798","Mapping"
"Mixed","Both","ball","7","m160cad.wav","None","727.542354492","107","326424.915588","333291.249502","334057.739023","NA","NA","NA","NA","NA","327174.46149","327940.951011","328707.48969","329474.328576","330241.66956","330991.365102","331757.518242","332524.351254","333300.454515","Mapping"
"Mixed","Both","ball","7","m160ball.wav","None","725.479860092","107","326424.915588","333291.249502","334057.739023","334825.173995","NA","NA","NA","NA","327174.46149","327940.951011","328707.48969","329474.328576","330241.66956","330991.365102","331757.518242","332524.351254","334066.45647","Mapping"
"Mixed","Both","ball","7","m150tile.wav","space","455.319062108","107","326424.915588","333291.249502","334057.739023","334825.173995","335574.358782","NA","NA","NA","327174.46149","327940.951011","328707.48969","329474.328576","330241.66956","330991.365102","331757.518242","332524.351254","334834.556474","Mapping"
"Mixed","Both","ball","7","m150ball.wav","None","735.259008361","107","326424.915588","333291.249502","334057.739023","334825.173995","335574.358782","336340.984958","NA","NA","327174.46149","327940.951011","328707.48969","329474.328576","330241.66956","330991.365102","331757.518242","332524.351254","335583.961702","Mapping"
"Mixed","Both","ball","7","m150tile.wav","space","524.001888465","107","326424.915588","333291.249502","334057.739023","334825.173995","335574.358782","336340.984958","337107.813951","NA","327174.46149","327940.951011","328707.48969","329474.328576","330241.66956","330991.365102","331757.518242","332524.351254","336349.840915","Mapping"
"Mixed","Both","ball","7","m160cad.wav","None","729.581351625","107","326424.915588","333291.249502","334057.739023","334825.173995","335574.358782","336340.984958","337107.813951","337874.650982","327174.46149","327940.951011","328707.48969","329474.328576","330241.66956","330991.365102","331757.518242","332524.351254","337116.947855","Mapping"
"Mixed","Both","cave","16","m150lash.wav","None","726.408925373","107","341041.558752","333291.249502","334057.739023","334825.173995","335574.358782","336340.984958","337107.813951","337874.650982","327174.46149","327940.951011","328707.48969","329474.328576","330241.66956","330991.365102","331757.518242","332524.351254","337883.694298","Mapping"
"Mixed","Both","cave","16","m150cave.wav","None","720.092517091","107","341041.558752","333291.249502","334057.739023","334825.173995","335574.358782","336340.984958","337107.813951","337874.650982","341791.103727","327940.951011","328707.48969","329474.328576","330241.66956","330991.365102","331757.518242","332524.351254","341051.636253","Mapping"
"Mixed","Both","cave","16","m160depth.wav","space","497.52955162","107","341041.558752","333291.249502","334057.739023","334825.173995","335574.358782","336340.984958","337107.813951","337874.650982","341791.103727","342557.750926","328707.48969","329474.328576","330241.66956","330991.365102","331757.518242","332524.351254","341800.168994","Mapping"
"Mixed","Both","cave","16","m160cave.wav","None","731.701970566","107","341041.558752","333291.249502","334057.739023","334825.173995","335574.358782","336340.984958","337107.813951","337874.650982","341791.103727","342557.750926","343325.013998","329474.328576","330241.66956","330991.365102","331757.518242","332524.351254","342567.184728","Mapping"
"Mixed","Both","cave","16","m150romp.wav","space","387.716796249","107","341041.558752","333291.249502","334057.739023","334825.173995","335574.358782","336340.984958","337107.813951","337874.650982","341791.103727","342557.750926","343325.013998","344090.768923","330241.66956","330991.365102","331757.518242","332524.351254","343333.954668","Mapping"
"Mixed","Both","cave","16","m150bluff.wav","None","726.91225959","107","341041.558752","333291.249502","334057.739023","334825.173995","335574.358782","336340.984958","337107.813951","337874.650982","341791.103727","342557.750926","343325.013998","344090.768923","344858.134331","330991.365102","331757.518242","332524.351254","344099.430719","Mapping"
"Mixed","Both","cave","16","m160dime.wav","None","722.420591163","107","341041.558752","333291.249502","334057.739023","334825.173995","335574.358782","336340.984958","337107.813951","337874.650982","341791.103727","342557.750926","343325.013998","344090.768923","344858.134331","345624.485343","331757.518242","332524.351254","344867.552675","Mapping"
"Mixed","Both","cave","16","m160cave.wav","None","719.927418511","107","341041.558752","333291.249502","334057.739023","334825.173995","335574.358782","336340.984958","337107.813951","337874.650982","341791.103727","342557.750926","343325.013998","344090.768923","344858.134331","345624.485343","346374.307645","332524.351254","345633.859165","Mapping"
"Mixed","Both","cave","16","m150done.wav","space","361.634944798","107","341041.558752","333291.249502","334057.739023","334825.173995","335574.358782","336340.984958","337107.813951","337874.650982","341791.103727","342557.750926","343325.013998","344090.768923","344858.134331","345624.485343","346374.307645","347141.033684","346384.033925","Mapping"
"Mixed","Both","cave","16","m160greet.wav","None","730.976341292","107","341041.558752","347907.573909","334057.739023","334825.173995","335574.358782","336340.984958","337107.813951","337874.650982","341791.103727","342557.750926","343325.013998","344090.768923","344858.134331","345624.485343","346374.307645","347141.033684","347150.132651","Mapping"
"Mixed","Both","cave","16","m160cad.wav","None","728.529544547","107","341041.558752","347907.573909","348674.297783","334825.173995","335574.358782","336340.984958","337107.813951","337874.650982","341791.103727","342557.750926","343325.013998","344090.768923","344858.134331","345624.485343","346374.307645","347141.033684","347916.664528","Mapping"
"Mixed","Both","cave","16","m160dime.wav","None","725.600746693","107","341041.558752","347907.573909","348674.297783","349441.205615","335574.358782","336340.984958","337107.813951","337874.650982","341791.103727","342557.750926","343325.013998","344090.768923","344858.134331","345624.485343","346374.307645","347141.033684","348683.405716","Mapping"
"Mixed","Both","cave","16","m160lash.wav","None","721.665899269","107","341041.558752","347907.573909","348674.297783","349441.205615","350207.88806","336340.984958","337107.813951","337874.650982","341791.103727","342557.750926","343325.013998","344090.768923","344858.134331","345624.485343","346374.307645","347141.033684","349451.181088","Mapping"
"Mixed","Both","cave","16","m150cave.wav","None","719.371524872","107","341041.558752","347907.573909","348674.297783","349441.205615","350207.88806","350957.476627","337107.813951","337874.650982","341791.103727","342557.750926","343325.013998","344090.768923","344858.134331","345624.485343","346374.307645","347141.033684","350217.235602","Mapping"
"Mixed","Both","cave","16","m150romp.wav","space","443.114759168","107","341041.558752","347907.573909","348674.297783","349441.205615","350207.88806","350957.476627","351723.959037","337874.650982","341791.103727","342557.750926","343325.013998","344090.768923","344858.134331","345624.485343","346374.307645","347141.033684","350966.489026","Mapping"
"Mixed","Both","cave","16","m150lash.wav","None","731.070020469","107","341041.558752","347907.573909","348674.297783","349441.205615","350207.88806","350957.476627","351723.959037","352490.722485","341791.103727","342557.750926","343325.013998","344090.768923","344858.134331","345624.485343","346374.307645","347141.033684","351732.830144","Mapping"
"Mixed","Both","done","39","m160greet.wav","None","730.982215377","107","355624.358891","347907.573909","348674.297783","349441.205615","350207.88806","350957.476627","351723.959037","352490.722485","341791.103727","342557.750926","343325.013998","344090.768923","344858.134331","345624.485343","346374.307645","347141.033684","352499.404378","Mapping"
"Mixed","Both","done","39","m150done.wav","None","720.178776421","107","355624.358891","347907.573909","348674.297783","349441.205615","350207.88806","350957.476627","351723.959037","352490.722485","356373.835538","342557.750926","343325.013998","344090.768923","344858.134331","345624.485343","346374.307645","347141.033684","355633.80104","Mapping"
"Mixed","Both","done","39","m160bluff.wav","space","482.81909083","107","355624.358891","347907.573909","348674.297783","349441.205615","350207.88806","350957.476627","351723.959037","352490.722485","356373.835538","357140.846634","343325.013998","344090.768923","344858.134331","345624.485343","346374.307645","347141.033684","356382.658104","Mapping"
"Mixed","Both","done","39","m150cad.wav","None","736.481788103","107","355624.358891","347907.573909","348674.297783","349441.205615","350207.88806","350957.476627","351723.959037","352490.722485","356373.835538","357140.846634","357907.512693","344090.768923","344858.134331","345624.485343","346374.307645","347141.033684","357145.053244","Mapping"
"Mixed","Both","done","39","m160done.wav","None","728.860359872","107","355624.358891","347907.573909","348674.297783","349441.205615","350207.88806","350957.476627","351723.959037","352490.722485","356373.835538","357140.846634","357907.512693","358674.091873","344858.134331","345624.485343","346374.307645","347141.033684","357916.609495","Mapping"
"Mixed","Both","done","39","m150romp.wav","space","366.252446547","107","355624.358891","347907.573909","348674.297783","349441.205615","350207.88806","350957.476627","351723.959037","352490.722485","356373.835538","357140.846634","357907.512693","358674.091873","359441.036497","345624.485343","346374.307645","347141.033684","358683.207227","Mapping"
"Mixed","Both","done","39","m150jolt.wav","None","722.162122373","107","355624.358891","347907.573909","348674.297783","349441.205615","350207.88806","350957.476627","351723.959037","352490.722485","356373.835538","357140.846634","357907.512693","358674.091873","359441.036497","360207.633919","346374.307645","347141.033684","359450.80266","Mapping"
"Mixed","Both","done","39","m160done.wav","None","719.605878461","107","355624.358891","347907.573909","348674.297783","349441.205615","350207.88806","350957.476627","351723.959037","352490.722485","356373.835538","357140.846634","357907.512693","358674.091873","359441.036497","360207.633919","360957.285868","347141.033684","360217.369474","Mapping"
"Mixed","Both","done","39","m160bluff.wav","space","371.06009014","107","355624.358891","347907.573909","348674.297783","349441.205615","350207.88806","350957.476627","351723.959037","352490.722485","356373.835538","357140.846634","357907.512693","358674.091873","359441.036497","360207.633919","360957.285868","361724.054572","360966.340623","Mapping"
"Mixed","Both","done","39","m150jolt.wav","None","731.214713538","107","355624.358891","362490.826677","348674.297783","349441.205615","350207.88806","350957.476627","351723.959037","352490.722485","356373.835538","357140.846634","357907.512693","358674.091873","359441.036497","360207.633919","360957.285868","361724.054572","361733.255875","Mapping"
"Mixed","Both","done","39","m150bluff.wav","None","728.21202362","107","355624.358891","362490.826677","363257.290845","349441.205615","350207.88806","350957.476627","351723.959037","352490.722485","356373.835538","357140.846634","357907.512693","358674.091873","359441.036497","360207.633919","360957.285868","361724.054572","362500.464224","Mapping"
"Mixed","Both","done","39","m150dime.wav","None","726.343999151","107","355624.358891","362490.826677","363257.290845","364024.244744","350207.88806","350957.476627","351723.959037","352490.722485","356373.835538","357140.846634","357907.512693","358674.091873","359441.036497","360207.633919","360957.285868","361724.054572","363266.293969","Mapping"
"Mixed","Both","done","39","m150done.wav","None","723.244847031","107","355624.358891","362490.826677","363257.290845","364024.244744","364791.072809","350957.476627","351723.959037","352490.722485","356373.835538","357140.846634","357907.512693","358674.091873","359441.036497","360207.633919","360957.285868","361724.054572","364033.337219","Mapping"
"Mixed","Both","done","39","m160reek.wav","space","576.662431937","107","355624.358891","362490.826677","363257.290845","364024.244744","364791.072809","365540.368899","351723.959037","352490.722485","356373.835538","357140.846634","357907.512693","358674.091873","359441.036497","360207.633919","360957.285868","361724.054572","364800.667072","Mapping"
"Mixed","Both","done","39","m160cad.wav","None","734.911806649","107","355624.358891","362490.826677","363257.290845","364024.244744","364791.072809","365540.368899","366307.179651","352490.722485","356373.835538","357140.846634","357907.512693","358674.091873","359441.036497","360207.633919","360957.285868","361724.054572","365549.322246","Mapping"
"Mixed","Both","done","39","m160gnash.wav","None","732.20035783","107","355624.358891","362490.826677","363257.290845","364024.244744","364791.072809","365540.368899","366307.179651","367073.941862","356373.835538","357140.846634","357907.512693","358674.091873","359441.036497","360207.633919","360957.285868","361724.054572","366315.962025","Mapping"
"Mixed","Both","cave","21","m150reek.wav","None","728.856649483","107","370207.552298","362490.826677","363257.290845","364024.244744","364791.072809","365540.368899","366307.179651","367073.941862","356373.835538","357140.846634","357907.512693","358674.091873","359441.036497","360207.633919","360957.285868","361724.054572","367083.270236","Mapping"
"Mixed","Both","cave","21","m160cad.wav","None","720.296880463","107","370207.552298","362490.826677","363257.290845","364024.244744","364791.072809","365540.368899","366307.179651","367073.941862","370957.141484","357140.846634","357907.512693","358674.091873","359441.036497","360207.633919","360957.285868","361724.054572","370217.134812","Mapping"
"Mixed","Both","cave","21","m150cad.wav","None","734.623657307","107","370207.552298","362490.826677","363257.290845","364024.244744","364791.072809","365540.368899","366307.179651","367073.941862","370957.141484","371723.904004","357907.512693","358674.091873","359441.036497","360207.633919","360957.285868","361724.054572","370966.70081","Mapping"
"Mixed","Both","cave","21","m160lash.wav","None","732.214270625","107","370207.552298","362490.826677","363257.290845","364024.244744","364791.072809","365540.368899","366307.179651","367073.941862","370957.141484","371723.904004","372490.282841","358674.091873","359441.036497","360207.633919","360957.285868","361724.054572","371732.920113","Mapping"
"Mixed","Both","cave","21","m160cave.wav","None","730.286575854","107","370207.552298","362490.826677","363257.290845","364024.244744","364791.072809","365540.368899","366307.179651","367073.941862","370957.141484","371723.904004","372490.282841","373257.043816","359441.036497","360207.633919","360957.285868","361724.054572","372499.043882","Mapping"
"Mixed","Both","cave","21","m160tile.wav","space","551.327234134","107","370207.552298","362490.826677","363257.290845","364024.244744","364791.072809","365540.368899","366307.179651","367073.941862","370957.141484","371723.904004","372490.282841","373257.043816","374023.916711","360207.633919","360957.285868","361724.054572","373265.867928","Mapping"
"Mixed","Both","cave","21","m150cave.wav","None","723.781880923","107","370207.552298","362490.826677","363257.290845","364024.244744","364791.072809","365540.368899","366307.179651","367073.941862","370957.141484","371723.904004","372490.282841","373257.043816","374023.916711","374790.953778","360957.285868","361724.054572","374033.036084","Mapping"
"Mixed","Both","cave","21","m150bluff.wav","space","528.407915728","107","370207.552298","362490.826677","363257.290845","364024.244744","364791.072809","365540.368899","366307.179651","367073.941862","370957.141484","371723.904004","372490.282841","373257.043816","374023.916711","374790.953778","375540.073639","361724.054572","374800.747766","Mapping"
"Mixed","Both","cave","21","m150cave.wav","None","735.924967332","107","370207.552298","362490.826677","363257.290845","364024.244744","364791.072809","365540.368899","366307.179651","367073.941862","370957.141484","371723.904004","372490.282841","373257.043816","374023.916711","374790.953778","375540.073639","376307.180269","375548.820458","Mapping"
"Mixed","Both","cave","21","m160priest.wav","space","444.734517718","107","370207.552298","377073.831797","363257.290845","364024.244744","364791.072809","365540.368899","366307.179651","367073.941862","370957.141484","371723.904004","372490.282841","373257.043816","374023.916711","374790.953778","375540.073639","376307.180269","376316.400742","Mapping"
"Mixed","Both","cave","21","m160cave.wav","None","729.120065225","107","370207.552298","377073.831797","377840.606066","364024.244744","364791.072809","365540.368899","366307.179651","367073.941862","370957.141484","371723.904004","372490.282841","373257.043816","374023.916711","374790.953778","375540.073639","376307.180269","377083.001256","Mapping"
"Mixed","Both","cave","21","m150jaw.wav","space","479.044395033","107","370207.552298","377073.831797","377840.606066","378607.274289","364791.072809","365540.368899","366307.179651","367073.941862","370957.141484","371723.904004","372490.282841","373257.043816","374023.916711","374790.953778","375540.073639","376307.180269","377850.05409","Mapping"
"Mixed","Both","cave","21","m150depth.wav","None","723.212693119","107","370207.552298","377073.831797","377840.606066","378607.274289","379374.396069","365540.368899","366307.179651","367073.941862","370957.141484","371723.904004","372490.282841","373257.043816","374023.916711","374790.953778","375540.073639","376307.180269","378616.540519","Mapping"
"Mixed","Both","cave","21","m160depth.wav","None","719.821990468","107","370207.552298","377073.831797","377840.606066","378607.274289","379374.396069","380123.325479","366307.179651","367073.941862","370957.141484","371723.904004","372490.282841","373257.043816","374023.916711","374790.953778","375540.073639","376307.180269","379384.075045","Mapping"
"Mixed","Both","cave","21","m160reek.wav","None","735.559215536","107","370207.552298","377073.831797","377840.606066","378607.274289","379374.396069","380123.325479","380890.497654","367073.941862","370957.141484","371723.904004","372490.282841","373257.043816","374023.916711","374790.953778","375540.073639","376307.180269","380132.216682","Mapping"
"Mixed","Both","cave","21","m150depth.wav","None","732.301457319","107","370207.552298","377073.831797","377840.606066","378607.274289","379374.396069","380123.325479","380890.497654","381656.902153","370957.141484","371723.904004","372490.282841","373257.043816","374023.916711","374790.953778","375540.073639","376307.180269","380899.609607","Mapping"
"Mixed","Both","ball","11","m160gnash.wav","None","730.30017945","107","384790.705821","377073.831797","377840.606066","378607.274289","379374.396069","380123.325479","380890.497654","381656.902153","370957.141484","371723.904004","372490.282841","373257.043816","374023.916711","374790.953778","375540.073639","376307.180269","381665.758419","Mapping"
"Mixed","Both","ball","11","m160depth.wav","None","720.228862483","107","384790.705821","377073.831797","377840.606066","378607.274289","379374.396069","380123.325479","380890.497654","381656.902153","385540.154642","371723.904004","372490.282841","373257.043816","374023.916711","374790.953778","375540.073639","376307.180269","384800.271021","Mapping"
"Mixed","Both","ball","11","m150ball.wav","None","734.819054836","107","384790.705821","377073.831797","377840.606066","378607.274289","379374.396069","380123.325479","380890.497654","381656.902153","385540.154642","386307.057218","372490.282841","373257.043816","374023.916711","374790.953778","375540.073639","376307.180269","385549.778277","Mapping"
"Mixed","Both","ball","11","m150greet.wav","space","388.857954415","107","384790.705821","377073.831797","377840.606066","378607.274289","379374.396069","380123.325479","380890.497654","381656.902153","385540.154642","386307.057218","387073.608574","373257.043816","374023.916711","374790.953778","375540.073639","376307.180269","386316.071781","Mapping"
"Mixed","Both","ball","11","m160ball.wav","None","729.0808002","107","384790.705821","377073.831797","377840.606066","378607.274289","379374.396069","380123.325479","380890.497654","381656.902153","385540.154642","386307.057218","387073.608574","387839.992666","374023.916711","374790.953778","375540.073639","376307.180269","387083.035574","Mapping"
"Mixed","Both","ball","11","m150lash.wav","space","439.969231142","107","384790.705821","377073.831797","377840.606066","378607.274289","379374.396069","380123.325479","380890.497654","381656.902153","385540.154642","386307.057218","387073.608574","387839.992666","388607.185247","374790.953778","375540.073639","376307.180269","387848.828218","Mapping"
"Mixed","Both","ball","11","m160reek.wav","None","723.245465429","107","384790.705821","377073.831797","377840.606066","378607.274289","379374.396069","380123.325479","380890.497654","381656.902153","385540.154642","386307.057218","387073.608574","387839.992666","388607.185247","389373.786998","375540.073639","376307.180269","388616.568963","Mapping"
"Mixed","Both","ball","11","m150done.wav","None","721.064557554","107","384790.705821","377073.831797","377840.606066","378607.274289","379374.396069","380123.325479","380890.497654","381656.902153","385540.154642","386307.057218","387073.608574","387839.992666","388607.185247","389373.786998","390123.36629","376307.180269","389382.931413","Mapping"
"Mixed","Both","ball","11","m150reek.wav","None","735.434927978","107","384790.705821","377073.831797","377840.606066","378607.274289","379374.396069","380123.325479","380890.497654","381656.902153","385540.154642","386307.057218","387073.608574","387839.992666","388607.185247","389373.786998","390123.36629","390889.982881","390132.80071","Mapping"
"Mixed","Both","ball","11","m160ball.wav","None","733.501976822","107","384790.705821","391656.64152","377840.606066","378607.274289","379374.396069","380123.325479","380890.497654","381656.902153","385540.154642","386307.057218","387073.608574","387839.992666","388607.185247","389373.786998","390123.36629","390889.982881","390898.789061","Mapping"
"Mixed","Both","ball","11","m150priest.wav","space","439.329860965","107","384790.705821","391656.64152","392423.22843","378607.274289","379374.396069","380123.325479","380890.497654","381656.902153","385540.154642","386307.057218","387073.608574","387839.992666","388607.185247","389373.786998","390123.36629","390889.982881","391665.522829","Mapping"
"Mixed","Both","ball","11","m160done.wav","None","728.322089184","107","384790.705821","391656.64152","392423.22843","393190.209845","379374.396069","380123.325479","380890.497654","381656.902153","385540.154642","386307.057218","387073.608574","387839.992666","388607.185247","389373.786998","390123.36629","390889.982881","392431.992872","Mapping"
"Mixed","Both","ball","11","m160cad.wav","None","725.103287026","107","384790.705821","391656.64152","392423.22843","393190.209845","393957.118605","380123.325479","380890.497654","381656.902153","385540.154642","386307.057218","387073.608574","387839.992666","388607.185247","389373.786998","390123.36629","390889.982881","393199.268929","Mapping"
"Mixed","Both","ball","11","m150ball.wav","None","722.034433857","107","384790.705821","391656.64152","392423.22843","393190.209845","393957.118605","394723.699641","380890.497654","381656.902153","385540.154642","386307.057218","387073.608574","387839.992666","388607.185247","389373.786998","390123.36629","390889.982881","393966.497992","Mapping"
"Mixed","Both","ball","11","m160gnash.wav","space","388.365441468","107","384790.705821","391656.64152","392423.22843","393190.209845","393957.118605","394723.699641","395473.627681","381656.902153","385540.154642","386307.057218","387073.608574","387839.992666","388607.185247","389373.786998","390123.36629","390889.982881","394732.428218","Mapping"
"Mixed","Both","ball","11","m150jaw.wav","None","733.531657606","107","384790.705821","391656.64152","392423.22843","393190.209845","393957.118605","394723.699641","395473.627681","396239.823178","385540.154642","386307.057218","387073.608574","387839.992666","388607.185247","389373.786998","390123.36629","390889.982881","395482.77086","Mapping"
"Mixed","Both","cave","22","m160cad.wav","None","732.04391636","107","399373.750824","391656.64152","392423.22843","393190.209845","393957.118605","394723.699641","395473.627681","396239.823178","385540.154642","386307.057218","387073.608574","387839.992666","388607.185247","389373.786998","390123.36629","390889.982881","396248.581745","Mapping"
"Mixed","Both","cave","22","m150cad.wav","None","720.141057391","107","399373.750824","391656.64152","392423.22843","393190.209845","393957.118605","394723.699641","395473.627681","396239.823178","400123.340629","386307.057218","387073.608574","387839.992666","388607.185247","389373.786998","390123.36629","390889.982881","399383.066831","Mapping"
"Mixed","Both","cave","22","m150ball.wav","None","734.88181713","107","399373.750824","391656.64152","392423.22843","393190.209845","393957.118605","394723.699641","395473.627681","396239.823178","400123.340629","400889.88982","387073.608574","387839.992666","388607.185247","389373.786998","390123.36629","390889.982881","400132.447016","Mapping"
"Mixed","Both","cave","22","m160done.wav","space","558.006921085","107","399373.750824","391656.64152","392423.22843","393190.209845","393957.118605","394723.699641","395473.627681","396239.823178","400123.340629","400889.88982","401656.588342","387839.992666","388607.185247","389373.786998","390123.36629","390889.982881","400898.679614","Mapping"
"Mixed","Both","cave","22","m160cave.wav","None","729.863317683","107","399373.750824","391656.64152","392423.22843","393190.209845","393957.118605","394723.699641","395473.627681","396239.823178","400123.340629","400889.88982","401656.588342","402423.060549","388607.185247","389373.786998","390123.36629","390889.982881","401665.53736","Mapping"
"Mixed","Both","cave","22","m160dime.wav","space","440.642919624","107","399373.750824","391656.64152","392423.22843","393190.209845","393957.118605","394723.699641","395473.627681","396239.823178","400123.340629","400889.88982","401656.588342","402423.060549","403190.313418","389373.786998","390123.36629","390889.982881","402432.042958","Mapping"
"Mixed","Both","cave","22","m150dime.wav","None","723.022242077","107","399373.750824","391656.64152","392423.22843","393190.209845","393957.118605","394723.699641","395473.627681","396239.823178","400123.340629","400889.88982","401656.588342","402423.060549","403190.313418","403956.921971","390123.36629","390889.982881","403200.066596","Mapping"
"Mixed","Both","cave","22","m150cling.wav","None","720.688912086","107","399373.750824","391656.64152","392423.22843","393190.209845","393957.118605","394723.699641","395473.627681","396239.823178","400123.340629","400889.88982","401656.588342","402423.060549","403190.313418","403956.921971","404706.313595","390889.982881","403966.561991","Mapping"
"Mixed","Both","cave","22","m160done.wav","None","735.875808867","107","399373.750824","391656.64152","392423.22843","393190.209845","393957.118605","394723.699641","395473.627681","396239.823178","400123.340629","400889.88982","401656.588342","402423.060549","403190.313418","403956.921971","404706.313595","405473.301194","404715.51459","Mapping"
"Mixed","Both","cave","22","m160greet.wav","None","732.936808607","107","399373.750824","406239.759179","392423.22843","393190.209845","393957.118605","394723.699641","395473.627681","396239.823178","400123.340629","400889.88982","401656.588342","402423.060549","403190.313418","403956.921971","404706.313595","405473.301194","405482.708716","Mapping"
"Mixed","Both","cave","22","m150cave.wav","None","731.329416856","107","399373.750824","406239.759179","407006.450281","393190.209845","393957.118605","394723.699641","395473.627681","396239.823178","400123.340629","400889.88982","401656.588342","402423.060549","403190.313418","403956.921971","404706.313595","405473.301194","406248.422521","Mapping"
"Mixed","Both","cave","22","m160tile.wav","space","529.365424998","107","399373.750824","406239.759179","407006.450281","407773.228569","393957.118605","394723.699641","395473.627681","396239.823178","400123.340629","400889.88982","401656.588342","402423.060549","403190.313418","403956.921971","404706.313595","405473.301194","407015.215959","Mapping"
"Mixed","Both","cave","22","m160cave.wav","None","724.799988093","107","399373.750824","406239.759179","407006.450281","407773.228569","408540.276766","394723.699641","395473.627681","396239.823178","400123.340629","400889.88982","401656.588342","402423.060549","403190.313418","403956.921971","404706.313595","405473.301194","407782.851276","Mapping"
"Mixed","Both","cave","22","m150romp.wav","space","530.624069273","107","399373.750824","406239.759179","407006.450281","407773.228569","408540.276766","409289.973235","395473.627681","396239.823178","400123.340629","400889.88982","401656.588342","402423.060549","403190.313418","403956.921971","404706.313595","405473.301194","408549.937501","Mapping"
"Mixed","Both","cave","22","m150cave.wav","None","736.658016918","107","399373.750824","406239.759179","407006.450281","407773.228569","408540.276766","409289.973235","410056.516861","396239.823178","400123.340629","400889.88982","401656.588342","402423.060549","403190.313418","403956.921971","404706.313595","405473.301194","409298.827337","Mapping"
"Mixed","Both","cave","22","m150romp.wav","space","374.905586243","107","399373.750824","406239.759179","407006.450281","407773.228569","408540.276766","409289.973235","410056.516861","410823.288348","400123.340629","400889.88982","401656.588342","402423.060549","403190.313418","403956.921971","404706.313595","405473.301194","410065.620775","Mapping"
"Mixed","Both","tile","25","m160lash.wav","None","730.387057178","107","413956.849315","406239.759179","407006.450281","407773.228569","408540.276766","409289.973235","410056.516861","410823.288348","400123.340629","400889.88982","401656.588342","402423.060549","403190.313418","403956.921971","404706.313595","405473.301194","410832.670517","Mapping"
"Mixed","Both","tile","25","m160cave.wav","None","720.56122357","107","413956.849315","406239.759179","407006.450281","407773.228569","408540.276766","409289.973235","410056.516861","410823.288348","414706.167665","400889.88982","401656.588342","402423.060549","403190.313418","403956.921971","404706.313595","405473.301194","413966.328256","Mapping"
"Mixed","Both","tile","25","m160tile.wav","None","735.997623065","107","413956.849315","406239.759179","407006.450281","407773.228569","408540.276766","409289.973235","410056.516861","410823.288348","414706.167665","415473.165158","401656.588342","402423.060549","403190.313418","403956.921971","404706.313595","405473.301194","414715.277763","Mapping"
"Mixed","Both","tile","25","m160jolt.wav","space","397.562107304","107","413956.849315","406239.759179","407006.450281","407773.228569","408540.276766","409289.973235","410056.516861","410823.288348","414706.167665","415473.165158","416239.573057","402423.060549","403190.313418","403956.921971","404706.313595","405473.301194","415482.838569","Mapping"
"Mixed","Both","tile","25","m150jaw.wav","None","730.934293475","107","413956.849315","406239.759179","407006.450281","407773.228569","408540.276766","409289.973235","410056.516861","410823.288348","414706.167665","415473.165158","416239.573057","417006.34949","403190.313418","403956.921971","404706.313595","405473.301194","416248.40799","Mapping"
"Mixed","Both","tile","25","m150ball.wav","None","728.353315732","107","413956.849315","406239.759179","407006.450281","407773.228569","408540.276766","409289.973235","410056.516861","410823.288348","414706.167665","415473.165158","416239.573057","417006.34949","417773.013694","403956.921971","404706.313595","405473.301194","417015.321696","Mapping"
"Mixed","Both","tile","25","m150romp.wav","None","725.846230285","107","413956.849315","406239.759179","407006.450281","407773.228569","408540.276766","409289.973235","410056.516861","410823.288348","414706.167665","415473.165158","416239.573057","417006.34949","417773.013694","418540.141657","404706.313595","405473.301194","417782.056082","Mapping"
"Mixed","Both","tile","25","m150tile.wav","None","722.105853027","107","413956.849315","406239.759179","407006.450281","407773.228569","408540.276766","409289.973235","410056.516861","410823.288348","414706.167665","415473.165158","416239.573057","417006.34949","417773.013694","418540.141657","419306.722075","405473.301194","418550.199061","Mapping"
"Mixed","Both","tile","25","m150depth.wav","space","459.836700931","107","413956.849315","406239.759179","407006.450281","407773.228569","408540.276766","409289.973235","410056.516861","410823.288348","414706.167665","415473.165158","416239.573057","417006.34949","417773.013694","418540.141657","419306.722075","420056.249426","419316.494112","Mapping"
"Mixed","Both","tile","25","m150tile.wav","None","735.089890659","107","413956.849315","420822.975774","407006.450281","407773.228569","408540.276766","409289.973235","410056.516861","410823.288348","414706.167665","415473.165158","416239.573057","417006.34949","417773.013694","418540.141657","419306.722075","420056.249426","420065.241419","Mapping"
"Mixed","Both","tile","25","m160priest.wav","space","549.056357006","107","413956.849315","420822.975774","421589.472405","407773.228569","408540.276766","409289.973235","410056.516861","410823.288348","414706.167665","415473.165158","416239.573057","417006.34949","417773.013694","418540.141657","419306.722075","420056.249426","420827.242982","Mapping"
"Mixed","Both","tile","25","m160tile.wav","None","730.399423745","107","413956.849315","420822.975774","421589.472405","422356.263061","408540.276766","409289.973235","410056.516861","410823.288348","414706.167665","415473.165158","416239.573057","417006.34949","417773.013694","418540.141657","419306.722075","420056.249426","421598.315068","Mapping"
"Mixed","Both","tile","25","m150park.wav","space","386.889139423","107","413956.849315","420822.975774","421589.472405","422356.263061","423123.404009","409289.973235","410056.516861","410823.288348","414706.167665","415473.165158","416239.573057","417006.34949","417773.013694","418540.141657","419306.722075","420056.249426","422365.403766","Mapping"
"Mixed","Both","tile","25","m150lash.wav","None","723.914206726","107","413956.849315","420822.975774","421589.472405","422356.263061","423123.404009","423890.011325","410056.516861","410823.288348","414706.167665","415473.165158","416239.573057","417006.34949","417773.013694","418540.141657","419306.722075","420056.249426","423132.86069","Mapping"
"Mixed","Both","tile","25","m160cad.wav","None","721.281597158","107","413956.849315","420822.975774","421589.472405","422356.263061","423123.404009","423890.011325","424656.550004","410823.288348","414706.167665","415473.165158","416239.573057","417006.34949","417773.013694","418540.141657","419306.722075","420056.249426","423899.8554","Mapping"
"Mixed","Both","tile","25","m160priest.wav","None","719.807150308","107","413956.849315","420822.975774","421589.472405","422356.263061","423123.404009","423890.011325","424656.550004","425406.089104","414706.167665","415473.165158","416239.573057","417006.34949","417773.013694","418540.141657","419306.722075","420056.249426","424665.789027","Mapping"
"Mixed","Both","tile","28","m160park.wav","None","734.920772957","107","428539.907922","420822.975774","421589.472405","422356.263061","423123.404009","423890.011325","424656.550004","425406.089104","414706.167665","415473.165158","416239.573057","417006.34949","417773.013694","418540.141657","419306.722075","420056.249426","425415.071513","Mapping"
"Mixed","Both","tile","28","m150tile.wav","None","719.686572673","107","428539.907922","420822.975774","421589.472405","422356.263061","423123.404009","423890.011325","424656.550004","425406.089104","429289.489688","415473.165158","416239.573057","417006.34949","417773.013694","418540.141657","419306.722075","420056.249426","428550.096725","Mapping"
"Mixed","Both","tile","28","m160reek.wav","space","517.53862272","107","428539.907922","420822.975774","421589.472405","422356.263061","423123.404009","423890.011325","424656.550004","425406.089104","429289.489688","430056.039188","416239.573057","417006.34949","417773.013694","418540.141657","419306.722075","420056.249426","429298.639978","Mapping"
"Mixed","Both","tile","28","m150depth.wav","None","732.895688387","107","428539.907922","420822.975774","421589.472405","422356.263061","423123.404009","423890.011325","424656.550004","425406.089104","429289.489688","430056.039188","430822.837573","417006.34949","417773.013694","418540.141657","419306.722075","420056.249426","430065.020979","Mapping"
"Mixed","Both","tile","28","m160tile.wav","None","730.215156684","107","428539.907922","420822.975774","421589.472405","422356.263061","423123.404009","423890.011325","424656.550004","425406.089104","429289.489688","430056.039188","430822.837573","431589.555573","417773.013694","418540.141657","419306.722075","420056.249426","430831.995283","Mapping"
"Mixed","Both","tile","28","m150jaw.wav","space","337.035888573","107","428539.907922","420822.975774","421589.472405","422356.263061","423123.404009","423890.011325","424656.550004","425406.089104","429289.489688","430056.039188","430822.837573","431589.555573","432356.088069","418540.141657","419306.722075","420056.249426","431599.090165","Mapping"
"Mixed","Both","tile","28","m150jolt.wav","None","725.1734694","107","428539.907922","420822.975774","421589.472405","422356.263061","423123.404009","423890.011325","424656.550004","425406.089104","429289.489688","430056.039188","430822.837573","431589.555573","432356.088069","433123.22036","419306.722075","420056.249426","432365.115926","Mapping"
"Mixed","Both","tile","28","m160tile.wav","None","722.279917449","107","428539.907922","420822.975774","421589.472405","422356.263061","423123.404009","423890.011325","424656.550004","425406.089104","429289.489688","430056.039188","430822.837573","431589.555573","432356.088069","433123.22036","433889.831695","420056.249426","433132.461547","Mapping"
"Mixed","Both","tile","28","m150bluff.wav","space","436.103020096","107","428539.907922","420822.975774","421589.472405","422356.263061","423123.404009","423890.011325","424656.550004","425406.089104","429289.489688","430056.039188","430822.837573","431589.555573","432356.088069","433123.22036","433889.831695","434639.288865","433899.96732","Mapping"
"Mixed","Both","tile","28","m150tile.wav","None","734.931284795","107","428539.907922","435405.748086","421589.472405","422356.263061","423123.404009","423890.011325","424656.550004","425406.089104","429289.489688","430056.039188","430822.837573","431589.555573","432356.088069","433123.22036","433889.831695","434639.288865","434648.412257","Mapping"
"Mixed","Both","tile","28","m160done.wav","space","513.434657827","107","428539.907922","435405.748086","436172.888726","422356.263061","423123.404009","423890.011325","424656.550004","425406.089104","429289.489688","430056.039188","430822.837573","431589.555573","432356.088069","433123.22036","433889.831695","434639.288865","435414.62383","Mapping"
"Mixed","Both","tile","28","m150ball.wav","None","729.482107097","107","428539.907922","435405.748086","436172.888726","436939.090715","423123.404009","423890.011325","424656.550004","425406.089104","429289.489688","430056.039188","430822.837573","431589.555573","432356.088069","433123.22036","433889.831695","434639.288865","436181.952757","Mapping"
"Mixed","Both","tile","28","m150cad.wav","None","728.028374724","107","428539.907922","435405.748086","436172.888726","436939.090715","437706.124999","423890.011325","424656.550004","425406.089104","429289.489688","430056.039188","430822.837573","431589.555573","432356.088069","433123.22036","433889.831695","434639.288865","436947.947909","Mapping"
"Mixed","Both","tile","28","m160knife.wav","None","725.412460277","107","428539.907922","435405.748086","436172.888726","436939.090715","437706.124999","438472.931114","424656.550004","425406.089104","429289.489688","430056.039188","430822.837573","431589.555573","432356.088069","433123.22036","433889.831695","434639.288865","437715.168006","Mapping"
"Mixed","Both","tile","28","m160priest.wav","None","722.39369317","107","428539.907922","435405.748086","436172.888726","436939.090715","437706.124999","438472.931114","439239.752995","425406.089104","429289.489688","430056.039188","430822.837573","431589.555573","432356.088069","433123.22036","433889.831695","434639.288865","438482.703769","Mapping"
"Mixed","Both","tile","28","m160depth.wav","None","719.743151218","107","428539.907922","435405.748086","436172.888726","436939.090715","437706.124999","438472.931114","439239.752995","439989.089896","429289.489688","430056.039188","430822.837573","431589.555573","432356.088069","433123.22036","433889.831695","434639.288865","439249.859867","Mapping"
"Mixed","Both","ball","3","m150reek.wav","None","736.139842775","107","443122.763093","435405.748086","436172.888726","436939.090715","437706.124999","438472.931114","439239.752995","439989.089896","429289.489688","430056.039188","430822.837573","431589.555573","432356.088069","433123.22036","433889.831695","434639.288865","439998.057774","Mapping"
"Mixed","Both","ball","3","m150priest.wav","None","720.792794367","107","443122.763093","435405.748086","436172.888726","436939.090715","437706.124999","438472.931114","439239.752995","439989.089896","443872.495117","430056.039188","430822.837573","431589.555573","432356.088069","433123.22036","433889.831695","434639.288865","443131.653369","Mapping"
"Mixed","Both","ball","3","m150ball.wav","None","735.338465776","107","443122.763093","435405.748086","436172.888726","436939.090715","437706.124999","438472.931114","439239.752995","439989.089896","443872.495117","444639.080482","430822.837573","431589.555573","432356.088069","433123.22036","433889.831695","434639.288865","443881.639533","Mapping"
"Mixed","Both","ball","3","m160greet.wav","space","375.761996023","107","443122.763093","435405.748086","436172.888726","436939.090715","437706.124999","438472.931114","439239.752995","439989.089896","443872.495117","444639.080482","445405.881031","431589.555573","432356.088069","433123.22036","433889.831695","434639.288865","444648.112359","Mapping"
"Mixed","Both","ball","3","m150ball.wav","None","730.370052392","107","443122.763093","435405.748086","436172.888726","436939.090715","437706.124999","438472.931114","439239.752995","439989.089896","443872.495117","444639.080482","445405.881031","446172.276872","432356.088069","433123.22036","433889.831695","434639.288865","445414.986491","Mapping"
"Mixed","Both","ball","3","m150jaw.wav","space","346.761859022","107","443122.763093","435405.748086","436172.888726","436939.090715","437706.124999","438472.931114","439239.752995","439989.089896","443872.495117","444639.080482","445405.881031","446172.276872","446939.273437","433123.22036","433889.831695","434639.288865","446181.128501","Mapping"
"Mixed","Both","ball","3","m150cave.wav","None","725.179034518","107","443122.763093","435405.748086","436172.888726","436939.090715","437706.124999","438472.931114","439239.752995","439989.089896","443872.495117","444639.080482","445405.881031","446172.276872","446939.273437","447705.335062","433889.831695","434639.288865","446948.246571","Mapping"
"Mixed","Both","ball","3","m160gnash.wav","None","727.212157333","107","443122.763093","435405.748086","436172.888726","436939.090715","437706.124999","438472.931114","439239.752995","439989.089896","443872.495117","444639.080482","445405.881031","446172.276872","446939.273437","447705.335062","448472.638017","434639.288865","447714.077553","Mapping"
"Mixed","Both","ball","3","m160cave.wav","None","723.99026365","107","443122.763093","435405.748086","436172.888726","436939.090715","437706.124999","438472.931114","439239.752995","439989.089896","443872.495117","444639.080482","445405.881031","446172.276872","446939.273437","447705.335062","448472.638017","449239.372712","448481.805312","Mapping"
"Mixed","Both","ball","3","m160ball.wav","None","721.545940032","107","443122.763093","450006.034752","436172.888726","436939.090715","437706.124999","438472.931114","439239.752995","439989.089896","443872.495117","444639.080482","445405.881031","446172.276872","446939.273437","447705.335062","448472.638017","449239.372712","449248.742515","Mapping"
"Mixed","Both","ball","3","m150depth.wav","space","496.501550777","107","443122.763093","450006.034752","450755.726274","436939.090715","437706.124999","438472.931114","439239.752995","439989.089896","443872.495117","444639.080482","445405.881031","446172.276872","446939.273437","447705.335062","448472.638017","449239.372712","450015.289233","Mapping"
"Mixed","Both","ball","3","m160ball.wav","None","733.717161696","107","443122.763093","450006.034752","450755.726274","451522.433453","437706.124999","438472.931114","439239.752995","439989.089896","443872.495117","444639.080482","445405.881031","446172.276872","446939.273437","447705.335062","448472.638017","449239.372712","450764.757842","Mapping"
"Mixed","Both","ball","3","m150cad.wav","space","491.646913113","107","443122.763093","450006.034752","450755.726274","451522.433453","452288.822802","438472.931114","439239.752995","439989.089896","443872.495117","444639.080482","445405.881031","446172.276872","446939.273437","447705.335062","448472.638017","449239.372712","451532.094806","Mapping"
"Mixed","Both","ball","3","m160jolt.wav","None","728.935488965","107","443122.763093","450006.034752","450755.726274","451522.433453","452288.822802","453055.688277","439239.752995","439989.089896","443872.495117","444639.080482","445405.881031","446172.276872","446939.273437","447705.335062","448472.638017","449239.372712","452297.472231","Mapping"
"Mixed","Both","ball","3","m160romp.wav","None","725.804182701","107","443122.763093","450006.034752","450755.726274","451522.433453","452288.822802","453055.688277","453822.473367","439989.089896","443872.495117","444639.080482","445405.881031","446172.276872","446939.273437","447705.335062","448472.638017","449239.372712","453065.123624","Mapping"
"Mixed","Both","ball","3","m160depth.wav","None","724.111459451","107","443122.763093","450006.034752","450755.726274","451522.433453","452288.822802","453055.688277","453822.473367","454589.017611","443872.495117","444639.080482","445405.881031","446172.276872","446939.273437","447705.335062","448472.638017","449239.372712","453831.464124","Mapping"
"Mixed","Both","ball","12","m150cave.wav","None","727.506180992","107","457705.97134","450006.034752","450755.726274","451522.433453","452288.822802","453055.688277","453822.473367","454589.017611","443872.495117","444639.080482","445405.881031","446172.276872","446939.273437","447705.335062","448472.638017","449239.372712","454592.602475","Mapping"
"Mixed","Both","ball","12","m150ball.wav","None","720.359951723","107","457705.97134","450006.034752","450755.726274","451522.433453","452288.822802","453055.688277","453822.473367","454589.017611","458455.381206","444639.080482","445405.881031","446172.276872","446939.273437","447705.335062","448472.638017","449239.372712","457715.65279","Mapping"
"Mixed","Both","ball","12","m160romp.wav","space","583.242565393","107","457705.97134","450006.034752","450755.726274","451522.433453","452288.822802","453055.688277","453822.473367","454589.017611","458455.381206","459222.273579","445405.881031","446172.276872","446939.273437","447705.335062","448472.638017","449239.372712","458464.417411","Mapping"
"Mixed","Both","ball","12","m150ball.wav","None","732.686687494","107","457705.97134","450006.034752","450755.726274","451522.433453","452288.822802","453055.688277","453822.473367","454589.017611","458455.381206","459222.273579","459989.023733","446172.276872","446939.273437","447705.335062","448472.638017","449239.372712","459231.488177","Mapping"
"Mixed","Both","ball","12","m160cave.wav","space","393.467108486","107","457705.97134","450006.034752","450755.726274","451522.433453","452288.822802","453055.688277","453822.473367","454589.017611","458455.381206","459222.273579","459989.023733","460755.406898","446939.273437","447705.335062","448472.638017","449239.372712","459998.161965","Mapping"
"Mixed","Both","ball","12","m160ball.wav","None","728.266128805","107","457705.97134","450006.034752","450755.726274","451522.433453","452288.822802","453055.688277","453822.473367","454589.017611","458455.381206","459222.273579","459989.023733","460755.406898","461522.32215","447705.335062","448472.638017","449239.372712","460764.538947","Mapping"
"Mixed","Both","ball","12","m150jolt.wav","space","371.993483743","107","457705.97134","450006.034752","450755.726274","451522.433453","452288.822802","453055.688277","453822.473367","454589.017611","458455.381206","459222.273579","459989.023733","460755.406898","461522.32215","462289.35427","448472.638017","449239.372712","461531.58096","Mapping"
"Mixed","Both","ball","12","m150gnash.wav","None","721.972908359","107","457705.97134","450006.034752","450755.726274","451522.433453","452288.822802","453055.688277","453822.473367","454589.017611","458455.381206","459222.273579","459989.023733","460755.406898","461522.32215","462289.35427","463055.99374","449239.372712","462298.930601","Mapping"
"Mixed","Both","ball","12","m150cad.wav","None","720.44961201","107","457705.97134","450006.034752","450755.726274","451522.433453","452288.822802","453055.688277","453822.473367","454589.017611","458455.381206","459222.273579","459989.023733","460755.406898","461522.32215","462289.35427","463055.99374","463805.043728","463065.213594","Mapping"
"Mixed","Both","ball","12","m150jaw.wav","None","736.235686345","107","457705.97134","464572.154996","450755.726274","451522.433453","452288.822802","453055.688277","453822.473367","454589.017611","458455.381206","459222.273579","459989.023733","460755.406898","461522.32215","462289.35427","463055.99374","463805.043728","463813.947607","Mapping"
"Mixed","Both","ball","12","m150romp.wav","None","733.211972518","107","457705.97134","464572.154996","465338.651009","451522.433453","452288.822802","453055.688277","453822.473367","454589.017611","458455.381206","459222.273579","459989.023733","460755.406898","461522.32215","462289.35427","463055.99374","463805.043728","464581.459563","Mapping"
"Mixed","Both","ball","12","m160ball.wav","None","731.992284302","107","457705.97134","464572.154996","465338.651009","466105.478147","452288.822802","453055.688277","453822.473367","454589.017611","458455.381206","459222.273579","459989.023733","460755.406898","461522.32215","462289.35427","463055.99374","463805.043728","465347.482851","Mapping"
"Mixed","Both","ball","12","m160gnash.wav","space","588.768108515","107","457705.97134","464572.154996","465338.651009","466105.478147","466871.94448","453055.688277","453822.473367","454589.017611","458455.381206","459222.273579","459989.023733","460755.406898","461522.32215","462289.35427","463055.99374","463805.043728","466114.75458","Mapping"
"Mixed","Both","ball","12","m160cling.wav","None","726.965746609","107","457705.97134","464572.154996","465338.651009","466105.478147","466871.94448","467638.928987","453822.473367","454589.017611","458455.381206","459222.273579","459989.023733","460755.406898","461522.32215","462289.35427","463055.99374","463805.043728","466880.725926","Mapping"
"Mixed","Both","ball","12","m160knife.wav","None","725.076698232","107","457705.97134","464572.154996","465338.651009","466105.478147","466871.94448","467638.928987","468405.768183","454589.017611","458455.381206","459222.273579","459989.023733","460755.406898","461522.32215","462289.35427","463055.99374","463805.043728","467647.96241","Mapping"
"Mixed","Both","ball","12","m160dime.wav","None","722.265077056","107","457705.97134","464572.154996","465338.651009","466105.478147","466871.94448","467638.928987","468405.768183","469172.308717","458455.381206","459222.273579","459989.023733","460755.406898","461522.32215","462289.35427","463055.99374","463805.043728","468415.263819","Mapping"
"Mixed","Both","done","44","m150gnash.wav","None","719.892172841","107","472289.211741","464572.154996","465338.651009","466105.478147","466871.94448","467638.928987","468405.768183","469172.308717","458455.381206","459222.273579","459989.023733","460755.406898","461522.32215","462289.35427","463055.99374","463805.043728","469182.157738","Mapping"
"Mixed","Both","done","44","m160ball.wav","None","720.215877052","107","472289.211741","464572.154996","465338.651009","466105.478147","466871.94448","467638.928987","468405.768183","469172.308717","473038.469803","459222.273579","459989.023733","460755.406898","461522.32215","462289.35427","463055.99374","463805.043728","472298.692228","Mapping"
"Mixed","Both","done","44","m150done.wav","None","736.13304086","107","472289.211741","464572.154996","465338.651009","466105.478147","466871.94448","467638.928987","468405.768183","469172.308717","473038.469803","473805.283646","459989.023733","460755.406898","461522.32215","462289.35427","463055.99374","463805.043728","473047.462724","Mapping"
"Mixed","Both","done","44","m160lash.wav","space","465.309066465","107","472289.211741","464572.154996","465338.651009","466105.478147","466871.94448","467638.928987","468405.768183","469172.308717","473038.469803","473805.283646","474571.769766","460755.406898","461522.32215","462289.35427","463055.99374","463805.043728","473814.063238","Mapping"
"Mixed","Both","done","44","m150cad.wav","None","731.02951888","107","472289.211741","464572.154996","465338.651009","466105.478147","466871.94448","467638.928987","468405.768183","469172.308717","473038.469803","473805.283646","474571.769766","475338.727993","461522.32215","462289.35427","463055.99374","463805.043728","474580.786493","Mapping"
"Mixed","Both","done","44","m160cad.wav","None","728.753385833","107","472289.211741","464572.154996","465338.651009","466105.478147","466871.94448","467638.928987","468405.768183","469172.308717","473038.469803","473805.283646","474571.769766","475338.727993","476105.335928","462289.35427","463055.99374","463805.043728","475347.839019","Mapping"
"Mixed","Both","done","44","m150jolt.wav","None","726.809304673","107","472289.211741","464572.154996","465338.651009","466105.478147","466871.94448","467638.928987","468405.768183","469172.308717","473038.469803","473805.283646","474571.769766","475338.727993","476105.335928","476872.239122","463055.99374","463805.043728","476114.409852","Mapping"
"Mixed","Both","done","44","m150dime.wav","None","722.782323835","107","472289.211741","464572.154996","465338.651009","466105.478147","466871.94448","467638.928987","468405.768183","469172.308717","473038.469803","473805.283646","474571.769766","475338.727993","476105.335928","476872.239122","477639.036888","463805.043728","476883.041943","Mapping"
"Mixed","Both","done","44","m150done.wav","None","722.08173736","107","472289.211741","464572.154996","465338.651009","466105.478147","466871.94448","467638.928987","468405.768183","469172.308717","473038.469803","473805.283646","474571.769766","475338.727993","476105.335928","476872.239122","477639.036888","478405.681923","477648.948672","Mapping"
"Mixed","Both","done","44","m160greet.wav","None","720.524431905","107","472289.211741","479154.760046","465338.651009","466105.478147","466871.94448","467638.928987","468405.768183","469172.308717","473038.469803","473805.283646","474571.769766","475338.727993","476105.335928","476872.239122","477639.036888","478405.681923","478415.17014","Mapping"
"Mixed","Both","done","44","m160done.wav","space","139.689707663","107","472289.211741","479154.760046","479921.928202","466105.478147","466871.94448","467638.928987","468405.768183","469172.308717","473038.469803","473805.283646","474571.769766","475338.727993","476105.335928","476872.239122","477639.036888","478405.681923","479163.554169","Mapping"
"Mixed","Both","done","44","m150dime.wav","space","476.061801193","107","472289.211741","479154.760046","479921.928202","480688.639709","466871.94448","467638.928987","468405.768183","469172.308717","473038.469803","473805.283646","474571.769766","475338.727993","476105.335928","476872.239122","477639.036888","478405.681923","479931.171862","Mapping"
"Mixed","Both","done","44","m160done.wav","None","729.073070921","107","472289.211741","479154.760046","479921.928202","480688.639709","481455.184881","467638.928987","468405.768183","469172.308717","473038.469803","473805.283646","474571.769766","475338.727993","476105.335928","476872.239122","477639.036888","478405.681923","480698.286222","Mapping"
"Mixed","Both","done","44","m160knife.wav","space","399.012748152","107","472289.211741","479154.760046","479921.928202","480688.639709","481455.184881","482222.025622","468405.768183","469172.308717","473038.469803","473805.283646","474571.769766","475338.727993","476105.335928","476872.239122","477639.036888","478405.681923","481464.241182","Mapping"
"Mixed","Both","done","44","m160lash.wav","None","724.07064843","107","472289.211741","479154.760046","479921.928202","480688.639709","481455.184881","482222.025622","482988.906247","469172.308717","473038.469803","473805.283646","474571.769766","475338.727993","476105.335928","476872.239122","477639.036888","478405.681923","482231.406865","Mapping"
"Mixed","Both","done","44","m150ball.wav","None","720.745181665","107","472289.211741","479154.760046","479921.928202","480688.639709","481455.184881","482222.025622","482988.906247","483755.451728","473038.469803","473805.283646","474571.769766","475338.727993","476105.335928","476872.239122","477639.036888","478405.681923","482999.282409","Mapping"
"Mixed","Both","done","48","m150romp.wav","None","719.510343857","107","486872.427409","479154.760046","479921.928202","480688.639709","481455.184881","482222.025622","482988.906247","483755.451728","473038.469803","473805.283646","474571.769766","475338.727993","476105.335928","476872.239122","477639.036888","478405.681923","483765.170279","Mapping"
"Mixed","Both","done","48","m160done.wav","None","719.410480931","107","486872.427409","479154.760046","479921.928202","480688.639709","481455.184881","482222.025622","482988.906247","483755.451728","487621.404123","473805.283646","474571.769766","475338.727993","476105.335928","476872.239122","477639.036888","478405.681923","486882.191407","Mapping"
"Mixed","Both","done","48","m160dime.wav","space","520.587070379","107","486872.427409","479154.760046","479921.928202","480688.639709","481455.184881","482222.025622","482988.906247","483755.451728","487621.404123","488388.443044","474571.769766","475338.727993","476105.335928","476872.239122","477639.036888","478405.681923","487630.483303","Mapping"
"Mixed","Both","done","48","m160done.wav","None","732.845293125","107","486872.427409","479154.760046","479921.928202","480688.639709","481455.184881","482222.025622","482988.906247","483755.451728","487621.404123","488388.443044","489155.022843","475338.727993","476105.335928","476872.239122","477639.036888","478405.681923","488397.34785","Mapping"
"Mixed","Both","done","48","m150romp.wav","space","547.059098259","107","486872.427409","479154.760046","479921.928202","480688.639709","481455.184881","482222.025622","482988.906247","483755.451728","487621.404123","488388.443044","489155.022843","489921.744553","476105.335928","476872.239122","477639.036888","478405.681923","489164.017928","Mapping"
"Mixed","Both","done","48","m150romp.wav","None","727.123115445","107","486872.427409","479154.760046","479921.928202","480688.639709","481455.184881","482222.025622","482988.906247","483755.451728","487621.404123","488388.443044","489155.022843","489921.744553","490688.443384","476872.239122","477639.036888","478405.681923","489931.068908","Mapping"
"Mixed","Both","done","48","m160park.wav","None","725.709575461","107","486872.427409","479154.760046","479921.928202","480688.639709","481455.184881","482222.025622","482988.906247","483755.451728","487621.404123","488388.443044","489155.022843","489921.744553","490688.443384","491455.324318","477639.036888","478405.681923","490697.545752","Mapping"
"Mixed","Both","done","48","m150done.wav","None","723.024715669","107","486872.427409","479154.760046","479921.928202","480688.639709","481455.184881","482222.025622","482988.906247","483755.451728","487621.404123","488388.443044","489155.022843","489921.744553","490688.443384","491455.324318","492222.252246","478405.681923","491464.979488","Mapping"
"Mixed","Both","done","48","m160romp.wav","space","439.641816774","107","486872.427409","479154.760046","479921.928202","480688.639709","481455.184881","482222.025622","482988.906247","483755.451728","487621.404123","488388.443044","489155.022843","489921.744553","490688.443384","491455.324318","492222.252246","492971.360359","492231.405937","Mapping"
"Mixed","Both","done","48","m150dime.wav","None","735.845819116","107","486872.427409","493738.462352","479921.928202","480688.639709","481455.184881","482222.025622","482988.906247","483755.451728","487621.404123","488388.443044","489155.022843","489921.744553","490688.443384","491455.324318","492222.252246","492971.360359","492980.229301","Mapping"
"Mixed","Both","done","48","m150done.wav","None","733.134679031","107","486872.427409","493738.462352","494504.941361","480688.639709","481455.184881","482222.025622","482988.906247","483755.451728","487621.404123","488388.443044","489155.022843","489921.744553","490688.443384","491455.324318","492222.252246","492971.360359","493747.580797","Mapping"
"Mixed","Both","done","48","m160jaw.wav","space","516.953666927","107","486872.427409","493738.462352","494504.941361","495271.633699","481455.184881","482222.025622","482988.906247","483755.451728","487621.404123","488388.443044","489155.022843","489921.744553","490688.443384","491455.324318","492222.252246","492971.360359","494514.000135","Mapping"
"Mixed","Both","done","48","m160greet.wav","None","727.981998585","107","486872.427409","493738.462352","494504.941361","495271.633699","496038.352626","482222.025622","482988.906247","483755.451728","487621.404123","488388.443044","489155.022843","489921.744553","490688.443384","491455.324318","492222.252246","492971.360359","495280.894364","Mapping"
"Mixed","Both","done","48","m160knife.wav","None","725.841283333","107","486872.427409","493738.462352","494504.941361","495271.633699","496038.352626","496805.244072","482988.906247","483755.451728","487621.404123","488388.443044","489155.022843","489921.744553","490688.443384","491455.324318","492222.252246","492971.360359","496047.860011","Mapping"
"Mixed","Both","done","48","m150park.wav","None","723.534542369","107","486872.427409","493738.462352","494504.941361","495271.633699","496038.352626","496805.244072","497572.420267","483755.451728","487621.404123","488388.443044","489155.022843","489921.744553","490688.443384","491455.324318","492222.252246","492971.360359","496814.857194","Mapping"
"Mixed","Both","done","48","m150depth.wav","None","721.279432764","107","486872.427409","493738.462352","494504.941361","495271.633699","496038.352626","496805.244072","497572.420267","498338.643589","487621.404123","488388.443044","489155.022843","489921.744553","490688.443384","491455.324318","492222.252246","492971.360359","497581.849431","Mapping"
"Mixed","Both","done","37","m160depth.wav","None","719.747479772","107","501455.151181","493738.462352","494504.941361","495271.633699","496038.352626","496805.244072","497572.420267","498338.643589","487621.404123","488388.443044","489155.022843","489921.744553","490688.443384","491455.324318","492222.252246","492971.360359","498348.20508","Mapping"
"Mixed","Both","done","37","m150bluff.wav","None","719.949369784","107","501455.151181","493738.462352","494504.941361","495271.633699","496038.352626","496805.244072","497572.420267","498338.643589","502204.549607","488388.443044","489155.022843","489921.744553","490688.443384","491455.324318","492222.252246","492971.360359","501465.376466","Mapping"
"Mixed","Both","done","37","m150ball.wav","None","736.615351168","107","501455.151181","493738.462352","494504.941361","495271.633699","496038.352626","496805.244072","497572.420267","498338.643589","502204.549607","502971.232361","489155.022843","489921.744553","490688.443384","491455.324318","492222.252246","492971.360359","502213.462762","Mapping"
"Mixed","Both","done","37","m160romp.wav","None","734.637879301","107","501455.151181","493738.462352","494504.941361","495271.633699","496038.352626","496805.244072","497572.420267","498338.643589","502204.549607","502971.232361","503738.354141","489921.744553","490688.443384","491455.324318","492222.252246","492971.360359","502980.324527","Mapping"
"Mixed","Both","done","37","m160done.wav","None","731.999704614","107","501455.151181","493738.462352","494504.941361","495271.633699","496038.352626","496805.244072","497572.420267","498338.643589","502204.549607","502971.232361","503738.354141","504504.775953","490688.443384","491455.324318","492222.252246","492971.360359","503747.525764","Mapping"
"Mixed","Both","done","37","m160jaw.wav","space","549.055120209","107","501455.151181","493738.462352","494504.941361","495271.633699","496038.352626","496805.244072","497572.420267","498338.643589","502204.549607","502971.232361","503738.354141","504504.775953","505271.467055","491455.324318","492222.252246","492971.360359","504513.819888","Mapping"
"Mixed","Both","done","37","m160knife.wav","None","727.454549167","107","501455.151181","493738.462352","494504.941361","495271.633699","496038.352626","496805.244072","497572.420267","498338.643589","502204.549607","502971.232361","503738.354141","504504.775953","505271.467055","506038.153828","492222.252246","492971.360359","505280.514081","Mapping"
"Mixed","Both","done","37","m150done.wav","None","725.39916588","107","501455.151181","493738.462352","494504.941361","495271.633699","496038.352626","496805.244072","497572.420267","498338.643589","502204.549607","502971.232361","503738.354141","504504.775953","505271.467055","506038.153828","506805.262932","492971.360359","506047.322668","Mapping"
"Mixed","Both","done","37","m150cave.wav","space","464.247365715","107","501455.151181","493738.462352","494504.941361","495271.633699","496038.352626","496805.244072","497572.420267","498338.643589","502204.549607","502971.232361","503738.354141","504504.775953","505271.467055","506038.153828","506805.262932","507571.625073","506814.491133","Mapping"
"Mixed","Both","done","37","m160done.wav","None","719.997909851","107","501455.151181","508321.280732","494504.941361","495271.633699","496038.352626","496805.244072","497572.420267","498338.643589","502204.549607","502971.232361","503738.354141","504504.775953","505271.467055","506038.153828","506805.262932","507571.625073","507581.110507","Mapping"
"Mixed","Both","done","37","m150cave.wav","space","587.804415962","107","501455.151181","508321.280732","509087.831159","495271.633699","496038.352626","496805.244072","497572.420267","498338.643589","502204.549607","502971.232361","503738.354141","504504.775953","505271.467055","506038.153828","506805.262932","507571.625073","508330.95507","Mapping"
"Mixed","Both","done","37","m150jolt.wav","None","732.846529689","107","501455.151181","508321.280732","509087.831159","509854.504638","496038.352626","496805.244072","497572.420267","498338.643589","502204.549607","502971.232361","503738.354141","504504.775953","505271.467055","506038.153828","506805.262932","507571.625073","509096.615697","Mapping"
"Mixed","Both","done","37","m160tile.wav","None","730.987162096","107","501455.151181","508321.280732","509087.831159","509854.504638","510621.153383","496805.244072","497572.420267","498338.643589","502204.549607","502971.232361","503738.354141","504504.775953","505271.467055","506038.153828","506805.262932","507571.625073","509863.342972","Mapping"
"Mixed","Both","done","37","m150greet.wav","None","729.343597544","107","501455.151181","508321.280732","509087.831159","509854.504638","510621.153383","511387.732255","497572.420267","498338.643589","502204.549607","502971.232361","503738.354141","504504.775953","505271.467055","506038.153828","506805.262932","507571.625073","510630.314803","Mapping"
"Mixed","Both","done","37","m150done.wav","None","727.707453072","107","501455.151181","508321.280732","509087.831159","509854.504638","510621.153383","511387.732255","512154.62772","498338.643589","502204.549607","502971.232361","503738.354141","504504.775953","505271.467055","506038.153828","506805.262932","507571.625073","511396.546473","Mapping"
"Mixed","Both","done","37","m160priest.wav","space","563.055410516","107","501455.151181","508321.280732","509087.831159","509854.504638","510621.153383","511387.732255","512154.62772","512921.706216","502204.549607","502971.232361","503738.354141","504504.775953","505271.467055","506038.153828","506805.262932","507571.625073","512163.640119","Mapping"
"Mixed","Both","tile","29","m160cad.wav","None","721.833780408","107","516038.19773","508321.280732","509087.831159","509854.504638","510621.153383","511387.732255","512154.62772","512921.706216","502204.549607","502971.232361","503738.354141","504504.775953","505271.467055","506038.153828","506805.262932","507571.625073","512931.031498","Mapping"
"Mixed","Both","tile","29","m160tile.wav","None","719.712234102","107","516038.19773","508321.280732","509087.831159","509854.504638","510621.153383","511387.732255","512154.62772","512921.706216","516788.045385","502971.232361","503738.354141","504504.775953","505271.467055","506038.153828","506805.262932","507571.625073","516048.502782","Mapping"
"Mixed","Both","tile","29","m150greet.wav","space","457.451120485","107","516038.19773","508321.280732","509087.831159","509854.504638","510621.153383","511387.732255","512154.62772","512921.706216","516788.045385","517554.488221","503738.354141","504504.775953","505271.467055","506038.153828","506805.262932","507571.625073","516797.143116","Mapping"
"Mixed","Both","tile","29","m160cling.wav","None","733.626573812","107","516038.19773","508321.280732","509087.831159","509854.504638","510621.153383","511387.732255","512154.62772","512921.706216","516788.045385","517554.488221","518321.275166","504504.775953","505271.467055","506038.153828","506805.262932","507571.625073","517563.269049","Mapping"
"Mixed","Both","tile","29","m160knife.wav","None","731.382285478","107","516038.19773","508321.280732","509087.831159","509854.504638","510621.153383","511387.732255","512154.62772","512921.706216","516788.045385","517554.488221","518321.275166","519088.110961","505271.467055","506038.153828","506805.262932","507571.625073","518330.40907","Mapping"
"Mixed","Both","tile","29","m150tile.wav","None","729.222092312","107","516038.19773","508321.280732","509087.831159","509854.504638","510621.153383","511387.732255","512154.62772","512921.706216","516788.045385","517554.488221","518321.275166","519088.110961","519854.503401","506038.153828","506805.262932","507571.625073","519097.525594","Mapping"
"Mixed","Both","tile","29","m160ball.wav","space","399.018931435","107","516038.19773","508321.280732","509087.831159","509854.504638","510621.153383","511387.732255","512154.62772","512921.706216","516788.045385","517554.488221","518321.275166","519088.110961","519854.503401","520621.037752","506805.262932","507571.625073","519863.53466","Mapping"
"Mixed","Both","tile","29","m150tile.wav","None","725.083190715","107","516038.19773","508321.280732","509087.831159","509854.504638","510621.153383","511387.732255","512154.62772","512921.706216","516788.045385","517554.488221","518321.275166","519088.110961","519854.503401","520621.037752","521388.570732","507571.625073","520630.116314","Mapping"
"Mixed","Both","tile","29","m150priest.wav","space","487.883656984","107","516038.19773","508321.280732","509087.831159","509854.504638","510621.153383","511387.732255","512154.62772","512921.706216","516788.045385","517554.488221","518321.275166","519088.110961","519854.503401","520621.037752","521388.570732","522154.771795","521398.651943","Mapping"
"Mixed","Both","tile","29","m150cave.wav","None","720.08695174","107","516038.19773","522904.052735","509087.831159","509854.504638","510621.153383","511387.732255","512154.62772","512921.706216","516788.045385","517554.488221","518321.275166","519088.110961","519854.503401","520621.037752","521388.570732","522154.771795","522163.925486","Mapping"
"Mixed","Both","tile","29","m150priest.wav","None","736.098413588","107","516038.19773","522904.052735","523671.097222","509854.504638","510621.153383","511387.732255","512154.62772","512921.706216","516788.045385","517554.488221","518321.275166","519088.110961","519854.503401","520621.037752","521388.570732","522154.771795","522913.035762","Mapping"
"Mixed","Both","tile","29","m150cave.wav","None","734.012112953","107","516038.19773","522904.052735","523671.097222","524437.839337","510621.153383","511387.732255","512154.62772","512921.706216","516788.045385","517554.488221","518321.275166","519088.110961","519854.503401","520621.037752","521388.570732","522154.771795","523680.164035","Mapping"
"Mixed","Both","tile","29","m160cave.wav","None","731.826258125","107","516038.19773","522904.052735","523671.097222","524437.839337","525204.441088","511387.732255","512154.62772","512921.706216","516788.045385","517554.488221","518321.275166","519088.110961","519854.503401","520621.037752","521388.570732","522154.771795","524447.159363","Mapping"
"Mixed","Both","tile","29","m150lash.wav","None","730.643979972","107","516038.19773","522904.052735","523671.097222","524437.839337","525204.441088","525970.875266","512154.62772","512921.706216","516788.045385","517554.488221","518321.275166","519088.110961","519854.503401","520621.037752","521388.570732","522154.771795","525213.473273","Mapping"
"Mixed","Both","tile","29","m160tile.wav","None","729.323501233","107","516038.19773","522904.052735","523671.097222","524437.839337","525204.441088","525970.875266","526737.487838","512921.706216","516788.045385","517554.488221","518321.275166","519088.110961","519854.503401","520621.037752","521388.570732","522154.771795","525979.853965","Mapping"
"Mixed","Both","tile","29","m160gnash.wav","space","508.008049568","107","516038.19773","522904.052735","523671.097222","524437.839337","525204.441088","525970.875266","526737.487838","527504.719683","516788.045385","517554.488221","518321.275166","519088.110961","519854.503401","520621.037752","521388.570732","522154.771795","526746.384915","Mapping"
"Mixed","Both","cave","23","m150tile.wav","None","723.978824215","107","530621.143799","522904.052735","523671.097222","524437.839337","525204.441088","525970.875266","526737.487838","527504.719683","516788.045385","517554.488221","518321.275166","519088.110961","519854.503401","520621.037752","521388.570732","522154.771795","527514.021778","Mapping"
"Mixed","Both","cave","23","m150cave.wav","None","719.825082226","107","530621.143799","522904.052735","523671.097222","524437.839337","525204.441088","525970.875266","526737.487838","527504.719683","531370.792655","517554.488221","518321.275166","519088.110961","519854.503401","520621.037752","521388.570732","522154.771795","530631.032085","Mapping"
"Mixed","Both","cave","23","m150cad.wav","space","442.260513548","107","530621.143799","522904.052735","523671.097222","524437.839337","525204.441088","525970.875266","526737.487838","527504.719683","531370.792655","532137.874552","518321.275166","519088.110961","519854.503401","520621.037752","521388.570732","522154.771795","531380.102169","Mapping"
"Mixed","Both","cave","23","m160gnash.wav","None","732.133576414","107","530621.143799","522904.052735","523671.097222","524437.839337","525204.441088","525970.875266","526737.487838","527504.719683","531370.792655","532137.874552","532904.218452","519088.110961","519854.503401","520621.037752","521388.570732","522154.771795","532147.326595","Mapping"
"Mixed","Both","cave","23","m150dime.wav","None","731.157516595","107","530621.143799","522904.052735","523671.097222","524437.839337","525204.441088","525970.875266","526737.487838","527504.719683","531370.792655","532137.874552","532904.218452","533670.698697","519854.503401","520621.037752","521388.570732","522154.771795","532913.289285","Mapping"
"Mixed","Both","cave","23","m160jolt.wav","None","729.639166966","107","530621.143799","522904.052735","523671.097222","524437.839337","525204.441088","525970.875266","526737.487838","527504.719683","531370.792655","532137.874552","532904.218452","533670.698697","534437.68104","520621.037752","521388.570732","522154.771795","533679.592374","Mapping"
"Mixed","Both","cave","23","m160ball.wav","None","727.495978586","107","530621.143799","522904.052735","523671.097222","524437.839337","525204.441088","525970.875266","526737.487838","527504.719683","531370.792655","532137.874552","532904.218452","533670.698697","534437.68104","535204.035762","521388.570732","522154.771795","534446.80165","Mapping"
"Mixed","Both","cave","23","m150cave.wav","None","726.389447693","107","530621.143799","522904.052735","523671.097222","524437.839337","525204.441088","525970.875266","526737.487838","527504.719683","531370.792655","532137.874552","532904.218452","533670.698697","534437.68104","535204.035762","535971.265752","522154.771795","535212.913361","Mapping"
"Mixed","Both","cave","23","m160jaw.wav","space","465.05245287","107","530621.143799","522904.052735","523671.097222","524437.839337","525204.441088","525970.875266","526737.487838","527504.719683","531370.792655","532137.874552","532904.218452","533670.698697","534437.68104","535204.035762","535971.265752","536737.891309","535981.211236","Mapping"
"Mixed","Both","cave","23","m150knife.wav","None","720.20351002","107","530621.143799","537487.628589","523671.097222","524437.839337","525204.441088","525970.875266","526737.487838","527504.719683","531370.792655","532137.874552","532904.218452","533670.698697","534437.68104","535204.035762","535971.265752","536737.891309","536747.638303","Mapping"
"Mixed","Both","cave","23","m160bluff.wav","None","736.176325241","107","530621.143799","537487.628589","538253.938171","524437.839337","525204.441088","525970.875266","526737.487838","527504.719683","531370.792655","532137.874552","532904.218452","533670.698697","534437.68104","535204.035762","535971.265752","536737.891309","537496.683654","Mapping"
"Mixed","Both","cave","23","m160cave.wav","None","734.777316451","107","530621.143799","537487.628589","538253.938171","539020.806429","525204.441088","525970.875266","526737.487838","527504.719683","531370.792655","532137.874552","532904.218452","533670.698697","534437.68104","535204.035762","535971.265752","536737.891309","538262.81206","Mapping"
"Mixed","Both","cave","23","m160park.wav","space","487.703408813","107","530621.143799","537487.628589","538253.938171","539020.806429","539787.276472","525970.875266","526737.487838","527504.719683","531370.792655","532137.874552","532904.218452","533670.698697","534437.68104","535204.035762","535971.265752","536737.891309","539030.499936","Mapping"
"Mixed","Both","cave","23","m150cling.wav","None","730.011411477","107","530621.143799","537487.628589","538253.938171","539020.806429","539787.276472","540553.954588","526737.487838","527504.719683","531370.792655","532137.874552","532904.218452","533670.698697","534437.68104","535204.035762","535971.265752","536737.891309","539796.083889","Mapping"
"Mixed","Both","cave","23","m160cave.wav","None","728.26180025","107","530621.143799","537487.628589","538253.938171","539020.806429","539787.276472","540553.954588","541320.743388","527504.719683","531370.792655","532137.874552","532904.218452","533670.698697","534437.68104","535204.035762","535971.265752","536737.891309","540562.846719","Mapping"
"Mixed","Both","cave","23","m150cad.wav","None","726.762928767","107","530621.143799","537487.628589","538253.938171","539020.806429","539787.276472","540553.954588","541320.743388","542087.511165","531370.792655","532137.874552","532904.218452","533670.698697","534437.68104","535204.035762","535971.265752","536737.891309","541329.766918","Mapping"
"Mixed","Both","tile","26","m150depth.wav","None","724.779891782","107","545220.937333","537487.628589","538253.938171","539020.806429","539787.276472","540553.954588","541320.743388","542087.511165","531370.792655","532137.874552","532904.218452","533670.698697","534437.68104","535204.035762","535971.265752","536737.891309","542096.774303","Mapping"
"Mixed","Both","tile","26","m150cling.wav","None","721.128865378","107","545220.937333","537487.628589","538253.938171","539020.806429","539787.276472","540553.954588","541320.743388","542087.511165","545987.907618","532137.874552","532904.218452","533670.698697","534437.68104","535204.035762","535971.265752","536737.891309","545230.748635","Mapping"
"Mixed","Both","tile","26","m160tile.wav","None","719.425630523","107","545220.937333","537487.628589","538253.938171","539020.806429","539787.276472","540553.954588","541320.743388","542087.511165","545987.907618","546737.301716","532904.218452","533670.698697","534437.68104","535204.035762","535971.265752","536737.891309","545997.501262","Mapping"
"Mixed","Both","tile","26","m160lash.wav","space","611.10278056","107","545220.937333","537487.628589","538253.938171","539020.806429","539787.276472","540553.954588","541320.743388","542087.511165","545987.907618","546737.301716","547503.844723","533670.698697","534437.68104","535204.035762","535971.265752","536737.891309","546746.954103","Mapping"
"Mixed","Both","tile","26","m150tile.wav","None","732.999879634","107","545220.937333","537487.628589","538253.938171","539020.806429","539787.276472","540553.954588","541320.743388","542087.511165","545987.907618","546737.301716","547503.844723","548270.443073","534437.68104","535204.035762","535971.265752","536737.891309","547512.749839","Mapping"
"Mixed","Both","tile","26","m160lash.wav","space","422.581639607","107","545220.937333","537487.628589","538253.938171","539020.806429","539787.276472","540553.954588","541320.743388","542087.511165","545987.907618","546737.301716","547503.844723","548270.443073","549037.467154","535204.035762","535971.265752","536737.891309","548279.439704","Mapping"
"Mixed","Both","tile","26","m150park.wav","None","727.937787073","107","545220.937333","537487.628589","538253.938171","539020.806429","539787.276472","540553.954588","541320.743388","542087.511165","545987.907618","546737.301716","547503.844723","548270.443073","549037.467154","549803.769625","535971.265752","536737.891309","549046.59642","Mapping"
"Mixed","Both","tile","26","m160tile.wav","None","726.966364775","107","545220.937333","537487.628589","538253.938171","539020.806429","539787.276472","540553.954588","541320.743388","542087.511165","545987.907618","546737.301716","547503.844723","548270.443073","549037.467154","549803.769625","550570.57914","536737.891309","549812.6902","Mapping"
"Mixed","Both","tile","26","m160romp.wav","space","522.079140414","107","545220.937333","537487.628589","538253.938171","539020.806429","539787.276472","540553.954588","541320.743388","542087.511165","545987.907618","546737.301716","547503.844723","548270.443073","549037.467154","549803.769625","550570.57914","551337.213354","550579.9576","Mapping"
"Mixed","Both","tile","26","m150cave.wav","None","722.240652191","107","545220.937333","552104.354921","538253.938171","539020.806429","539787.276472","540553.954588","541320.743388","542087.511165","545987.907618","546737.301716","547503.844723","548270.443073","549037.467154","549803.769625","550570.57914","551337.213354","551346.399817","Mapping"
"Mixed","Both","tile","26","m160cling.wav","None","720.053561032","107","545220.937333","552104.354921","552853.908861","539020.806429","539787.276472","540553.954588","541320.743388","542087.511165","545987.907618","546737.301716","547503.844723","548270.443073","549037.467154","549803.769625","550570.57914","551337.213354","552113.846229","Mapping"
"Mixed","Both","tile","26","m150jaw.wav","None","740.919351345","107","545220.937333","552104.354921","552853.908861","553620.138058","539787.276472","540553.954588","541320.743388","542087.511165","545987.907618","546737.301716","547503.844723","548270.443073","549037.467154","549803.769625","550570.57914","551337.213354","552858.08239","Mapping"
"Mixed","Both","tile","26","m150jaw.wav","None","734.950453509","107","545220.937333","552104.354921","552853.908861","553620.138058","554387.47966","540553.954588","541320.743388","542087.511165","545987.907618","546737.301716","547503.844723","548270.443073","549037.467154","549803.769625","550570.57914","551337.213354","553629.262378","Mapping"
"Mixed","Both","tile","26","m160park.wav","None","732.463464141","107","545220.937333","552104.354921","552853.908861","553620.138058","554387.47966","555153.860661","541320.743388","542087.511165","545987.907618","546737.301716","547503.844723","548270.443073","549037.467154","549803.769625","550570.57914","551337.213354","554396.842043","Mapping"
"Mixed","Both","tile","26","m150tile.wav","None","731.636116747","107","545220.937333","552104.354921","552853.908861","553620.138058","554387.47966","555153.860661","555920.447881","542087.511165","545987.907618","546737.301716","547503.844723","548270.443073","549037.467154","549803.769625","550570.57914","551337.213354","555162.901813","Mapping"
"Mixed","Both","tile","26","m160cave.wav","space","483.708272921","107","545220.937333","552104.354921","552853.908861","553620.138058","554387.47966","555153.860661","555920.447881","556686.972338","545987.907618","546737.301716","547503.844723","548270.443073","549037.467154","549803.769625","550570.57914","551337.213354","555930.180962","Mapping"
"Mixed","Both","tile","33","m150knife.wav","None","728.069185512","107","559820.738596","552104.354921","552853.908861","553620.138058","554387.47966","555153.860661","555920.447881","556686.972338","545987.907618","546737.301716","547503.844723","548270.443073","549037.467154","549803.769625","550570.57914","551337.213354","556695.781919","Mapping"
"Mixed","Both","tile","33","m150jaw.wav","None","720.09777301","107","559820.738596","552104.354921","552853.908861","553620.138058","554387.47966","555153.860661","555920.447881","556686.972338","560570.476495","546737.301716","547503.844723","548270.443073","549037.467154","549803.769625","550570.57914","551337.213354","559830.336569","Mapping"
"Mixed","Both","tile","33","m160cave.wav","None","735.570963938","107","559820.738596","552104.354921","552853.908861","553620.138058","554387.47966","555153.860661","555920.447881","556686.972338","560570.476495","561336.772782","547503.844723","548270.443073","549037.467154","549803.769625","550570.57914","551337.213354","560580.144959","Mapping"
"Mixed","Both","tile","33","m150lash.wav","None","735.400918871","107","559820.738596","552104.354921","552853.908861","553620.138058","554387.47966","555153.860661","555920.447881","556686.972338","560570.476495","561336.772782","562103.504076","548270.443073","549037.467154","549803.769625","550570.57914","551337.213354","561345.614208","Mapping"
"Mixed","Both","tile","33","m150tile.wav","None","734.043339267","107","559820.738596","552104.354921","552853.908861","553620.138058","554387.47966","555153.860661","555920.447881","556686.972338","560570.476495","561336.772782","562103.504076","562870.179101","549037.467154","549803.769625","550570.57914","551337.213354","562112.414448","Mapping"
"Mixed","Both","tile","33","m160bluff.wav","space","414.723384194","107","559820.738596","552104.354921","552853.908861","553620.138058","554387.47966","555153.860661","555920.447881","556686.972338","560570.476495","561336.772782","562103.504076","562870.179101","563637.32005","549803.769625","550570.57914","551337.213354","562879.067521","Mapping"
"Mixed","Both","tile","33","m150tile.wav","None","729.076780844","107","559820.738596","552104.354921","552853.908861","553620.138058","554387.47966","555153.860661","555920.447881","556686.972338","560570.476495","561336.772782","562103.504076","562870.179101","563637.32005","564403.660549","550570.57914","551337.213354","563647.01263","Mapping"
"Mixed","Both","tile","33","m160priest.wav","space","521.091640927","107","559820.738596","552104.354921","552853.908861","553620.138058","554387.47966","555153.860661","555920.447881","556686.972338","560570.476495","561336.772782","562103.504076","562870.179101","563637.32005","564403.660549","565170.129355","551337.213354","564412.691189","Mapping"
"Mixed","Both","tile","33","m160jolt.wav","None","726.04471934","107","559820.738596","552104.354921","552853.908861","553620.138058","554387.47966","555153.860661","555920.447881","556686.972338","560570.476495","561336.772782","562103.504076","562870.179101","563637.32005","564403.660549","565170.129355","565937.466319","565179.108672","Mapping"
"Mixed","Both","tile","33","m150romp.wav","None","722.973392811","107","559820.738596","566704.029733","552853.908861","553620.138058","554387.47966","555153.860661","555920.447881","556686.972338","560570.476495","561336.772782","562103.504076","562870.179101","563637.32005","564403.660549","565170.129355","565937.466319","565947.37161","Mapping"
"Mixed","Both","tile","33","m160lash.wav","None","721.860987833","107","559820.738596","566704.029733","567470.521727","553620.138058","554387.47966","555153.860661","555920.447881","556686.972338","560570.476495","561336.772782","562103.504076","562870.179101","563637.32005","564403.660549","565170.129355","565937.466319","566713.791567","Mapping"
"Mixed","Both","tile","33","m160tile.wav","None","721.020963974","107","559820.738596","566704.029733","567470.521727","568237.356285","554387.47966","555153.860661","555920.447881","556686.972338","560570.476495","561336.772782","562103.504076","562870.179101","563637.32005","564403.660549","565170.129355","565937.466319","567479.885965","Mapping"
"Mixed","Both","tile","33","m150ball.wav","space","454.158116831","107","559820.738596","566704.029733","567470.521727","568237.356285","568986.704007","555153.860661","555920.447881","556686.972338","560570.476495","561336.772782","562103.504076","562870.179101","563637.32005","564403.660549","565170.129355","565937.466319","568247.543233","Mapping"
"Mixed","Both","tile","33","m160tile.wav","None","732.183353277","107","559820.738596","566704.029733","567470.521727","568237.356285","568986.704007","569753.667181","555920.447881","556686.972338","560570.476495","561336.772782","562103.504076","562870.179101","563637.32005","564403.660549","565170.129355","565937.466319","568997.658632","Mapping"
"Mixed","Both","tile","33","m150cling.wav","None","732.401629444","107","559820.738596","566704.029733","567470.521727","568237.356285","568986.704007","569753.667181","570520.22472","556686.972338","560570.476495","561336.772782","562103.504076","562870.179101","563637.32005","564403.660549","565170.129355","565937.466319","569762.686381","Mapping"
"Mixed","Both","tile","33","m160romp.wav","None","731.000765925","107","559820.738596","566704.029733","567470.521727","568237.356285","568986.704007","569753.667181","570520.22472","571287.060514","560570.476495","561336.772782","562103.504076","562870.179101","563637.32005","564403.660549","565170.129355","565937.466319","570529.405618","Mapping"
"Mixed","Both","done","38","m160cad.wav","None","729.44840719","107","574420.417736","566704.029733","567470.521727","568237.356285","568986.704007","569753.667181","570520.22472","571287.060514","560570.476495","561336.772782","562103.504076","562870.179101","563637.32005","564403.660549","565170.129355","565937.466319","571296.118671","Mapping"
"Mixed","Both","done","38","m150greet.wav","None","720.670670737","107","574420.417736","566704.029733","567470.521727","568237.356285","568986.704007","569753.667181","570520.22472","571287.060514","575169.7871","561336.772782","562103.504076","562870.179101","563637.32005","564403.660549","565170.129355","565937.466319","574429.379122","Mapping"
"Mixed","Both","done","38","m150cave.wav","None","736.740566324","107","574420.417736","566704.029733","567470.521727","568237.356285","568986.704007","569753.667181","570520.22472","571287.060514","575169.7871","575936.970715","562103.504076","562870.179101","563637.32005","564403.660549","565170.129355","565937.466319","575178.496509","Mapping"
"Mixed","Both","done","38","m160done.wav","None","734.382502269","107","574420.417736","566704.029733","567470.521727","568237.356285","568986.704007","569753.667181","570520.22472","571287.060514","575169.7871","575936.970715","576703.480332","562870.179101","563637.32005","564403.660549","565170.129355","565937.466319","575946.103073","Mapping"
"Mixed","Both","done","38","m160jolt.wav","space","356.980342418","107","574420.417736","566704.029733","567470.521727","568237.356285","568986.704007","569753.667181","570520.22472","571287.060514","575169.7871","575936.970715","576703.480332","577469.923786","563637.32005","564403.660549","565170.129355","565937.466319","576712.520865","Mapping"
"Mixed","Both","done","38","m150knife.wav","None","730.23463483","107","574420.417736","566704.029733","567470.521727","568237.356285","568986.704007","569753.667181","570520.22472","571287.060514","575169.7871","575936.970715","576703.480332","577469.923786","578236.98775","564403.660549","565170.129355","565937.466319","577478.905885","Mapping"
"Mixed","Both","done","38","m160done.wav","None","727.671279572","107","574420.417736","566704.029733","567470.521727","568237.356285","568986.704007","569753.667181","570520.22472","571287.060514","575169.7871","575936.970715","576703.480332","577469.923786","578236.98775","579003.375244","565170.129355","565937.466319","578246.462672","Mapping"
"Mixed","Both","done","38","m160depth.wav","space","393.411766505","107","574420.417736","566704.029733","567470.521727","568237.356285","568986.704007","569753.667181","570520.22472","571287.060514","575169.7871","575936.970715","576703.480332","577469.923786","578236.98775","579003.375244","579770.449411","565937.466319","579012.085271","Mapping"
"Mixed","Both","done","38","m150done.wav","None","722.98452328","107","574420.417736","566704.029733","567470.521727","568237.356285","568986.704007","569753.667181","570520.22472","571287.060514","575169.7871","575936.970715","576703.480332","577469.923786","578236.98775","579003.375244","579770.449411","580537.194","579780.175382","Mapping"
"Mixed","Both","done","38","m150park.wav","space","498.999360949","107","574420.417736","581286.896653","567470.521727","568237.356285","568986.704007","569753.667181","570520.22472","571287.060514","575169.7871","575936.970715","576703.480332","577469.923786","578236.98775","579003.375244","579770.449411","580537.194","580546.44879","Mapping"
"Mixed","Both","done","38","m160cave.wav","None","735.702053644","107","574420.417736","581286.896653","582053.091222","568237.356285","568986.704007","569753.667181","570520.22472","571287.060514","575169.7871","575936.970715","576703.480332","577469.923786","578236.98775","579003.375244","579770.449411","580537.194","581296.093009","Mapping"
"Mixed","Both","done","38","m160tile.wav","None","734.894493129","107","574420.417736","581286.896653","582053.091222","582820.033991","568986.704007","569753.667181","570520.22472","571287.060514","575169.7871","575936.970715","576703.480332","577469.923786","578236.98775","579003.375244","579770.449411","580537.194","582062.063119","Mapping"
"Mixed","Both","done","38","m150done.wav","None","738.784200978","107","574420.417736","581286.896653","582053.091222","582820.033991","583586.812279","569753.667181","570520.22472","571287.060514","575169.7871","575936.970715","576703.480332","577469.923786","578236.98775","579003.375244","579770.449411","580537.194","582823.768803","Mapping"
"Mixed","Both","done","38","m160knife.wav","space","360.975169344","107","574420.417736","581286.896653","582053.091222","582820.033991","583586.812279","584353.152469","570520.22472","571287.060514","575169.7871","575936.970715","576703.480332","577469.923786","578236.98775","579003.375244","579770.449411","580537.194","583596.398194","Mapping"
