"Condition","Talker","Target","Trial","current_stimulus","response_response","response_time_response","subject_nr","time_Audio1","time_Audio10","time_Audio11","time_Audio12","time_Audio13","time_Audio14","time_Audio15","time_Audio16","time_Audio2","time_Audio3","time_Audio4","time_Audio5","time_Audio6","time_Audio7","time_Audio8","time_Audio9","time_response","title"
"Blocked","m160","tile","18","m160reek.wav","NA","NA","122","227050.497568","NA","NA","NA","NA","NA","NA","NA","NA","NA","NA","NA","NA","NA","NA","NA","NA","Mapping"
"Blocked","m160","tile","18","m160reek.wav","None","717.854412273","122","227050.497568","NA","NA","NA","NA","NA","NA","NA","227817.677163","NA","NA","NA","NA","NA","NA","NA","227064.531867","Mapping"
"Blocked","m160","tile","18","m160bluff.wav","None","719.062970253","122","227050.497568","NA","NA","NA","NA","NA","NA","NA","227817.677163","228583.297289","NA","NA","NA","NA","NA","NA","227829.161402","Mapping"
"Blocked","m160","tile","18","m160dime.wav","None","721.992695471","122","227050.497568","NA","NA","NA","NA","NA","NA","NA","227817.677163","228583.297289","229350.245932","NA","NA","NA","NA","NA","228592.295775","Mapping"
"Blocked","m160","tile","18","m160knife.wav","None","717.752075754","122","227050.497568","NA","NA","NA","NA","NA","NA","NA","227817.677163","228583.297289","229350.245932","230100.148929","NA","NA","NA","NA","229362.47435","Mapping"
"Blocked","m160","tile","18","m160tile.wav","None","736.831772374","122","227050.497568","NA","NA","NA","NA","NA","NA","NA","227817.677163","228583.297289","229350.245932","230100.148929","230867.093552","NA","NA","NA","230109.285924","Mapping"
"Blocked","m160","tile","18","m160cave.wav","space","620.048397919","122","227050.497568","NA","NA","NA","NA","NA","NA","NA","227817.677163","228583.297289","229350.245932","230100.148929","230867.093552","231633.275137","NA","NA","230877.535568","Mapping"
"Blocked","m160","tile","18","m160tile.wav","None","735.460898373","122","227050.497568","NA","NA","NA","NA","NA","NA","NA","227817.677163","228583.297289","229350.245932","230100.148929","230867.093552","231633.275137","232400.199664","NA","231642.401929","Mapping"
"Blocked","m160","tile","18","m160reek.wav","space","512.093464378","122","227050.497568","NA","NA","NA","NA","NA","NA","NA","227817.677163","228583.297289","229350.245932","230100.148929","230867.093552","231633.275137","232400.199664","233166.677127","232409.445489","Mapping"
"Blocked","m160","tile","18","m160tile.wav","None","732.584350975","122","227050.497568","233933.571046","NA","NA","NA","NA","NA","NA","227817.677163","228583.297289","229350.245932","230100.148929","230867.093552","231633.275137","232400.199664","233166.677127","233177.182214","Mapping"
"Blocked","m160","tile","18","m160cling.wav","space","346.522868378","122","227050.497568","233933.571046","234700.293065","NA","NA","NA","NA","NA","227817.677163","228583.297289","229350.245932","230100.148929","230867.093552","231633.275137","232400.199664","233166.677127","233942.964037","Mapping"
"Blocked","m160","tile","18","m160cave.wav","None","736.764681758","122","227050.497568","233933.571046","234700.293065","235466.624598","NA","NA","NA","NA","227817.677163","228583.297289","229350.245932","230100.148929","230867.093552","231633.275137","232400.199664","233166.677127","234704.563984","Mapping"
"Blocked","m160","tile","18","m160ball.wav","None","732.218598947","122","227050.497568","233933.571046","234700.293065","235466.624598","236233.492856","NA","NA","NA","227817.677163","228583.297289","229350.245932","230100.148929","230867.093552","231633.275137","232400.199664","233166.677127","235475.195498","Mapping"
"Blocked","m160","tile","18","m160tile.wav","None","731.221824652","122","227050.497568","233933.571046","234700.293065","235466.624598","236233.492856","237000.432533","NA","NA","227817.677163","228583.297289","229350.245932","230100.148929","230867.093552","231633.275137","232400.199664","233166.677127","236242.378803","Mapping"
"Blocked","m160","tile","18","m160dime.wav","space","364.49572444","122","227050.497568","233933.571046","234700.293065","235466.624598","236233.492856","237000.432533","237767.110959","NA","227817.677163","228583.297289","229350.245932","230100.148929","230867.093552","231633.275137","232400.199664","233166.677127","237012.974453","Mapping"
"Blocked","m160","tile","18","m160ball.wav","None","728.311268147","122","227050.497568","233933.571046","234700.293065","235466.624598","236233.492856","237000.432533","237767.110959","238533.372619","227817.677163","228583.297289","229350.245932","230100.148929","230867.093552","231633.275137","232400.199664","233166.677127","237776.770766","Mapping"
"Blocked","m160","done","21","m160romp.wav","None","728.837480769","122","241700.686334","233933.571046","234700.293065","235466.624598","236233.492856","237000.432533","237767.110959","238533.372619","227817.677163","228583.297289","229350.245932","230100.148929","230867.093552","231633.275137","232400.199664","233166.677127","238542.15221","Mapping"
"Blocked","m160","done","21","m160done.wav","None","722.926707705","122","241700.686334","233933.571046","234700.293065","235466.624598","236233.492856","237000.432533","237767.110959","238533.372619","242466.793716","228583.297289","229350.245932","230100.148929","230867.093552","231633.275137","232400.199664","233166.677127","241710.246896","Mapping"
"Blocked","m160","done","21","m160knife.wav","space","525.625666138","122","241700.686334","233933.571046","234700.293065","235466.624598","236233.492856","237000.432533","237767.110959","238533.372619","242466.793716","243233.819653","229350.245932","230100.148929","230867.093552","231633.275137","232400.199664","233166.677127","242475.742425","Mapping"
"Blocked","m160","done","21","m160done.wav","None","721.577475779","122","241700.686334","233933.571046","234700.293065","235466.624598","236233.492856","237000.432533","237767.110959","238533.372619","242466.793716","243233.819653","244001.160945","230100.148929","230867.093552","231633.275137","232400.199664","233166.677127","243243.242324","Mapping"
"Blocked","m160","done","21","m160bluff.wav","space","542.837028857","122","241700.686334","233933.571046","234700.293065","235466.624598","236233.492856","237000.432533","237767.110959","238533.372619","242466.793716","243233.819653","244001.160945","244767.131983","230867.093552","231633.275137","232400.199664","233166.677127","244010.500449","Mapping"
"Blocked","m160","done","21","m160greet.wav","None","719.30659865","122","241700.686334","233933.571046","234700.293065","235466.624598","236233.492856","237000.432533","237767.110959","238533.372619","242466.793716","243233.819653","244001.160945","244767.131983","245517.259439","231633.275137","232400.199664","233166.677127","244777.257405","Mapping"
"Blocked","m160","done","21","m160done.wav","None","736.182817724","122","241700.686334","233933.571046","234700.293065","235466.624598","236233.492856","237000.432533","237767.110959","238533.372619","242466.793716","243233.819653","244001.160945","244767.131983","245517.259439","246283.32261","232400.199664","233166.677127","245526.262872","Mapping"
"Blocked","m160","done","21","m160cad.wav","space","389.002956683","122","241700.686334","233933.571046","234700.293065","235466.624598","236233.492856","237000.432533","237767.110959","238533.372619","242466.793716","243233.819653","244001.160945","244767.131983","245517.259439","246283.32261","247050.009693","233166.677127","246292.306874","Mapping"
"Blocked","m160","done","21","m160greet.wav","None","734.54729165","122","241700.686334","233933.571046","234700.293065","235466.624598","236233.492856","237000.432533","237767.110959","238533.372619","242466.793716","243233.819653","244001.160945","244767.131983","245517.259439","246283.32261","247050.009693","247816.471697","247059.468847","Mapping"
"Blocked","m160","done","21","m160knife.wav","None","734.893565532","122","241700.686334","248583.28183","234700.293065","235466.624598","236233.492856","237000.432533","237767.110959","238533.372619","242466.793716","243233.819653","244001.160945","244767.131983","245517.259439","246283.32261","247050.009693","247816.471697","247825.262418","Mapping"
"Blocked","m160","done","21","m160gnash.wav","None","733.710359782","122","241700.686334","248583.28183","249349.695913","235466.624598","236233.492856","237000.432533","237767.110959","238533.372619","242466.793716","243233.819653","244001.160945","244767.131983","245517.259439","246283.32261","247050.009693","247816.471697","248592.678531","Mapping"
"Blocked","m160","done","21","m160cave.wav","None","733.911940595","122","241700.686334","248583.28183","249349.695913","250116.614875","236233.492856","237000.432533","237767.110959","238533.372619","242466.793716","243233.819653","244001.160945","244767.131983","245517.259439","246283.32261","247050.009693","247816.471697","249358.41336","Mapping"
"Blocked","m160","done","21","m160done.wav","None","732.191082556","122","241700.686334","248583.28183","249349.695913","250116.614875","250883.24476","237000.432533","237767.110959","238533.372619","242466.793716","243233.819653","244001.160945","244767.131983","245517.259439","246283.32261","247050.009693","247816.471697","250126.134318","Mapping"
"Blocked","m160","done","21","m160greet.wav","space","365.038941847","122","241700.686334","248583.28183","249349.695913","250116.614875","250883.24476","251650.204843","237767.110959","238533.372619","242466.793716","243233.819653","244001.160945","244767.131983","245517.259439","246283.32261","247050.009693","247816.471697","250892.17832","Mapping"
"Blocked","m160","done","21","m160gnash.wav","None","730.538551696","122","241700.686334","248583.28183","249349.695913","250116.614875","250883.24476","251650.204843","252416.61707","238533.372619","242466.793716","243233.819653","244001.160945","244767.131983","245517.259439","246283.32261","247050.009693","247816.471697","251659.099447","Mapping"
"Blocked","m160","done","21","m160gnash.wav","None","729.676267831","122","241700.686334","248583.28183","249349.695913","250116.614875","250883.24476","251650.204843","252416.61707","253182.869455","242466.793716","243233.819653","244001.160945","244767.131983","245517.259439","246283.32261","247050.009693","247816.471697","252425.84218","Mapping"
"Blocked","m160","tile","17","m160dime.wav","None","729.623708408","122","256317.145849","248583.28183","249349.695913","250116.614875","250883.24476","251650.204843","252416.61707","253182.869455","242466.793716","243233.819653","244001.160945","244767.131983","245517.259439","246283.32261","247050.009693","247816.471697","253191.873815","Mapping"
"Blocked","m160","tile","17","m160knife.wav","None","722.059476888","122","256317.145849","248583.28183","249349.695913","250116.614875","250883.24476","251650.204843","252416.61707","253182.869455","257083.645882","243233.819653","244001.160945","244767.131983","245517.259439","246283.32261","247050.009693","247816.471697","256326.766082","Mapping"
"Blocked","m160","tile","17","m160bluff.wav","None","722.004134906","122","256317.145849","248583.28183","249349.695913","250116.614875","250883.24476","251650.204843","252416.61707","253182.869455","257083.645882","257850.352133","244001.160945","244767.131983","245517.259439","246283.32261","247050.009693","247816.471697","257093.235507","Mapping"
"Blocked","m160","tile","17","m160tile.wav","None","721.790805226","122","256317.145849","248583.28183","249349.695913","250116.614875","250883.24476","251650.204843","252416.61707","253182.869455","257083.645882","257850.352133","258616.929459","244767.131983","245517.259439","246283.32261","247050.009693","247816.471697","257859.759346","Mapping"
"Blocked","m160","tile","17","m160done.wav","space","342.174965423","122","256317.145849","248583.28183","249349.695913","250116.614875","250883.24476","251650.204843","252416.61707","253182.869455","257083.645882","257850.352133","258616.929459","259383.612831","245517.259439","246283.32261","247050.009693","247816.471697","258626.906787","Mapping"
"Blocked","m160","tile","17","m160tile.wav","None","720.305537339","122","256317.145849","248583.28183","249349.695913","250116.614875","250883.24476","251650.204843","252416.61707","253182.869455","257083.645882","257850.352133","258616.929459","259383.612831","260150.051957","246283.32261","247050.009693","247816.471697","259393.040449","Mapping"
"Blocked","m160","tile","17","m160knife.wav","space","681.382795796","122","256317.145849","248583.28183","249349.695913","250116.614875","250883.24476","251650.204843","252416.61707","253182.869455","257083.645882","257850.352133","258616.929459","259383.612831","260150.051957","260900.116651","247050.009693","247816.471697","260159.647765","Mapping"
"Blocked","m160","tile","17","m160tile.wav","None","735.934551805","122","256317.145849","248583.28183","249349.695913","250116.614875","250883.24476","251650.204843","252416.61707","253182.869455","257083.645882","257850.352133","258616.929459","259383.612831","260150.051957","260900.116651","261666.005139","247816.471697","260909.38319","Mapping"
"Blocked","m160","tile","17","m160knife.wav","space","270.15368687","122","256317.145849","248583.28183","249349.695913","250116.614875","250883.24476","251650.204843","252416.61707","253182.869455","257083.645882","257850.352133","258616.929459","259383.612831","260150.051957","260900.116651","261666.005139","262432.614928","261674.875009","Mapping"
"Blocked","m160","tile","17","m160tile.wav","None","735.808099853","122","256317.145849","263199.664052","249349.695913","250116.614875","250883.24476","251650.204843","252416.61707","253182.869455","257083.645882","257850.352133","258616.929459","259383.612831","260150.051957","260900.116651","261666.005139","262432.614928","262441.574767","Mapping"
"Blocked","m160","tile","17","m160ball.wav","space","344.027222134","122","256317.145849","263199.664052","263966.399057","250116.614875","250883.24476","251650.204843","252416.61707","253182.869455","257083.645882","257850.352133","258616.929459","259383.612831","260150.051957","260900.116651","261666.005139","262432.614928","263208.970784","Mapping"
"Blocked","m160","tile","17","m160romp.wav","None","726.165606175","122","256317.145849","263199.664052","263966.399057","264732.620215","250883.24476","251650.204843","252416.61707","253182.869455","257083.645882","257850.352133","258616.929459","259383.612831","260150.051957","260900.116651","261666.005139","262432.614928","263983.313613","Mapping"
"Blocked","m160","tile","17","m160ball.wav","None","733.910085633","122","256317.145849","263199.664052","263966.399057","264732.620215","265499.87092","251650.204843","252416.61707","253182.869455","257083.645882","257850.352133","258616.929459","259383.612831","260150.051957","260900.116651","261666.005139","262432.614928","264741.881498","Mapping"
"Blocked","m160","tile","17","m160jaw.wav","None","732.537356671","122","256317.145849","263199.664052","263966.399057","264732.620215","265499.87092","266266.818017","252416.61707","253182.869455","257083.645882","257850.352133","258616.929459","259383.612831","260150.051957","260900.116651","261666.005139","262432.614928","265509.410459","Mapping"
"Blocked","m160","tile","17","m160knife.wav","None","731.530997902","122","256317.145849","263199.664052","263966.399057","264732.620215","265499.87092","266266.818017","267032.962501","253182.869455","257083.645882","257850.352133","258616.929459","259383.612831","260150.051957","260900.116651","261666.005139","262432.614928","266276.463912","Mapping"
"Blocked","m160","tile","17","m160reek.wav","None","731.671362417","122","256317.145849","263199.664052","263966.399057","264732.620215","265499.87092","266266.818017","267032.962501","267799.599497","257083.645882","257850.352133","258616.929459","259383.612831","260150.051957","260900.116651","261666.005139","262432.614928","267042.566657","Mapping"
"Blocked","m160","cave","11","m160priest.wav","None","730.768885929","122","270933.381523","263199.664052","263966.399057","264732.620215","265499.87092","266266.818017","267032.962501","267799.599497","257083.645882","257850.352133","258616.929459","259383.612831","260150.051957","260900.116651","261666.005139","262432.614928","267809.551782","Mapping"
"Blocked","m160","cave","11","m160cave.wav","None","721.356107853","122","270933.381523","263199.664052","263966.399057","264732.620215","265499.87092","266266.818017","267032.962501","267799.599497","271700.206497","257850.352133","258616.929459","259383.612831","260150.051957","260900.116651","261666.005139","262432.614928","270943.867441","Mapping"
"Blocked","m160","cave","11","m160gnash.wav","space","403.005720116","122","270933.381523","263199.664052","263966.399057","264732.620215","265499.87092","266266.818017","267032.962501","267799.599497","271700.206497","272466.881831","258616.929459","259383.612831","260150.051957","260900.116651","261666.005139","262432.614928","271709.849609","Mapping"
"Blocked","m160","cave","11","m160jaw.wav","None","720.403545303","122","270933.381523","263199.664052","263966.399057","264732.620215","265499.87092","266266.818017","267032.962501","267799.599497","271700.206497","272466.881831","273232.717141","259383.612831","260150.051957","260900.116651","261666.005139","262432.614928","272477.055484","Mapping"
"Blocked","m160","cave","11","m160lash.wav","None","721.717531327","122","270933.381523","263199.664052","263966.399057","264732.620215","265499.87092","266266.818017","267032.962501","267799.599497","271700.206497","272466.881831","273232.717141","274000.081003","260150.051957","260900.116651","261666.005139","262432.614928","273241.736651","Mapping"
"Blocked","m160","cave","11","m160cave.wav","None","720.197326737","122","270933.381523","263199.664052","263966.399057","264732.620215","265499.87092","266266.818017","267032.962501","267799.599497","271700.206497","272466.881831","273232.717141","274000.081003","274766.72913","260900.116651","261666.005139","262432.614928","274009.715768","Mapping"
"Blocked","m160","cave","11","m160jaw.wav","space","328.05069699","122","270933.381523","263199.664052","263966.399057","264732.620215","265499.87092","266266.818017","267032.962501","267799.599497","271700.206497","272466.881831","273232.717141","274000.081003","274766.72913","275516.439203","261666.005139","262432.614928","274776.703985","Mapping"
"Blocked","m160","cave","11","m160tile.wav","None","735.761414748","122","270933.381523","263199.664052","263966.399057","264732.620215","265499.87092","266266.818017","267032.962501","267799.599497","271700.206497","272466.881831","273232.717141","274000.081003","274766.72913","275516.439203","276282.820204","262432.614928","275525.970394","Mapping"
"Blocked","m160","cave","11","m160greet.wav","None","734.943651594","122","270933.381523","263199.664052","263966.399057","264732.620215","265499.87092","266266.818017","267032.962501","267799.599497","271700.206497","272466.881831","273232.717141","274000.081003","274766.72913","275516.439203","276282.820204","277049.403713","276292.758267","Mapping"
"Blocked","m160","cave","11","m160knife.wav","None","735.041968524","122","270933.381523","277816.001754","263966.399057","264732.620215","265499.87092","266266.818017","267032.962501","267799.599497","271700.206497","272466.881831","273232.717141","274000.081003","274766.72913","275516.439203","276282.820204","277049.403713","277058.767951","Mapping"
"Blocked","m160","cave","11","m160lash.wav","None","740.265449975","122","270933.381523","277816.001754","278582.734594","264732.620215","265499.87092","266266.818017","267032.962501","267799.599497","271700.206497","272466.881831","273232.717141","274000.081003","274766.72913","275516.439203","276282.820204","277049.403713","277819.790671","Mapping"
"Blocked","m160","cave","11","m160cave.wav","None","733.533512568","122","270933.381523","277816.001754","278582.734594","279349.208656","265499.87092","266266.818017","267032.962501","267799.599497","271700.206497","272466.881831","273232.717141","274000.081003","274766.72913","275516.439203","276282.820204","277049.403713","278592.589799","Mapping"
"Blocked","m160","cave","11","m160bluff.wav","space","426.54925934","122","270933.381523","277816.001754","278582.734594","279349.208656","280116.245104","266266.818017","267032.962501","267799.599497","271700.206497","272466.881831","273232.717141","274000.081003","274766.72913","275516.439203","276282.820204","277049.403713","279358.186118","Mapping"
"Blocked","m160","cave","11","m160cad.wav","None","732.490980532","122","270933.381523","277816.001754","278582.734594","279349.208656","280116.245104","280882.374438","267032.962501","267799.599497","271700.206497","272466.881831","273232.717141","274000.081003","274766.72913","275516.439203","276282.820204","277049.403713","280125.851424","Mapping"
"Blocked","m160","cave","11","m160cave.wav","None","733.206098434","122","270933.381523","277816.001754","278582.734594","279349.208656","280116.245104","280882.374438","281649.303912","267799.599497","271700.206497","272466.881831","273232.717141","274000.081003","274766.72913","275516.439203","276282.820204","277049.403713","280891.539568","Mapping"
"Blocked","m160","cave","11","m160jolt.wav","space","598.088443978","122","270933.381523","277816.001754","278582.734594","279349.208656","280116.245104","280882.374438","281649.303912","282416.039535","271700.206497","272466.881831","273232.717141","274000.081003","274766.72913","275516.439203","276282.820204","277049.403713","281658.554065","Mapping"
"Blocked","m160","tile","15","m160dime.wav","None","729.812304256","122","285549.837947","277816.001754","278582.734594","279349.208656","280116.245104","280882.374438","281649.303912","282416.039535","271700.206497","272466.881831","273232.717141","274000.081003","274766.72913","275516.439203","276282.820204","277049.403713","282426.248743","Mapping"
"Blocked","m160","tile","15","m160park.wav","None","722.633611411","122","285549.837947","277816.001754","278582.734594","279349.208656","280116.245104","280882.374438","281649.303912","282416.039535","286316.42022","272466.881831","273232.717141","274000.081003","274766.72913","275516.439203","276282.820204","277049.403713","285559.648322","Mapping"
"Blocked","m160","tile","15","m160tile.wav","None","721.872427035","122","285549.837947","277816.001754","278582.734594","279349.208656","280116.245104","280882.374438","281649.303912","282416.039535","286316.42022","287082.965391","273232.717141","274000.081003","274766.72913","275516.439203","276282.820204","277049.403713","286326.563574","Mapping"
"Blocked","m160","tile","15","m160reek.wav","space","539.496103302","122","285549.837947","277816.001754","278582.734594","279349.208656","280116.245104","280882.374438","281649.303912","282416.039535","286316.42022","287082.965391","287849.283012","274000.081003","274766.72913","275516.439203","276282.820204","277049.403713","287093.079374","Mapping"
"Blocked","m160","tile","15","m160done.wav","None","722.051129211","122","285549.837947","277816.001754","278582.734594","279349.208656","280116.245104","280882.374438","281649.303912","282416.039535","286316.42022","287082.965391","287849.283012","288616.426125","274766.72913","275516.439203","276282.820204","277049.403713","287858.441959","Mapping"
"Blocked","m160","tile","15","m160cad.wav","None","720.975515665","122","285549.837947","277816.001754","278582.734594","279349.208656","280116.245104","280882.374438","281649.303912","282416.039535","286316.42022","287082.965391","287849.283012","288616.426125","289382.467035","275516.439203","276282.820204","277049.403713","288626.155805","Mapping"
"Blocked","m160","tile","15","m160jolt.wav","None","721.660334151","122","285549.837947","277816.001754","278582.734594","279349.208656","280116.245104","280882.374438","281649.303912","282416.039535","286316.42022","287082.965391","287849.283012","288616.426125","289382.467035","290149.964461","276282.820204","277049.403713","289391.875176","Mapping"
"Blocked","m160","tile","15","m160bluff.wav","None","720.314503415","122","285549.837947","277816.001754","278582.734594","279349.208656","280116.245104","280882.374438","281649.303912","282416.039535","286316.42022","287082.965391","287849.283012","288616.426125","289382.467035","290149.964461","290916.257038","277049.403713","290159.46659","Mapping"
"Blocked","m160","tile","15","m160tile.wav","None","719.694611151","122","285549.837947","277816.001754","278582.734594","279349.208656","280116.245104","280882.374438","281649.303912","282416.039535","286316.42022","287082.965391","287849.283012","288616.426125","289382.467035","290149.964461","290916.257038","291682.916295","290926.357726","Mapping"
"Blocked","m160","tile","15","m160knife.wav","space","403.899539728","122","285549.837947","292432.624203","278582.734594","279349.208656","280116.245104","280882.374438","281649.303912","282416.039535","286316.42022","287082.965391","287849.283012","288616.426125","289382.467035","290149.964461","290916.257038","291682.916295","291692.594034","Mapping"
"Blocked","m160","tile","15","m160jaw.wav","None","736.063786084","122","285549.837947","292432.624203","293198.797131","279349.208656","280116.245104","280882.374438","281649.303912","282416.039535","286316.42022","287082.965391","287849.283012","288616.426125","289382.467035","290149.964461","290916.257038","291682.916295","292441.955978","Mapping"
"Blocked","m160","tile","15","m160tile.wav","None","742.122962605","122","285549.837947","292432.624203","293198.797131","293982.356104","280116.245104","280882.374438","281649.303912","282416.039535","286316.42022","287082.965391","287849.283012","288616.426125","289382.467035","290149.964461","290916.257038","291682.916295","293202.268837","Mapping"
"Blocked","m160","tile","15","m160jolt.wav","None","722.493865294","122","285549.837947","292432.624203","293198.797131","293982.356104","294749.713474","280882.374438","281649.303912","282416.039535","286316.42022","287082.965391","287849.283012","288616.426125","289382.467035","290149.964461","290916.257038","291682.916295","293991.452289","Mapping"
"Blocked","m160","tile","15","m160done.wav","None","721.284070518","122","285549.837947","292432.624203","293198.797131","293982.356104","294749.713474","295515.652975","281649.303912","282416.039535","286316.42022","287082.965391","287849.283012","288616.426125","289382.467035","290149.964461","290916.257038","291682.916295","294759.349475","Mapping"
"Blocked","m160","tile","15","m160tile.wav","None","721.907363506","122","285549.837947","292432.624203","293198.797131","293982.356104","294749.713474","295515.652975","296282.809383","282416.039535","286316.42022","287082.965391","287849.283012","288616.426125","289382.467035","290149.964461","290916.257038","291682.916295","295524.914259","Mapping"
"Blocked","m160","tile","15","m160greet.wav","space","403.428978287","122","285549.837947","292432.624203","293198.797131","293982.356104","294749.713474","295515.652975","296282.809383","297049.508214","286316.42022","287082.965391","287849.283012","288616.426125","289382.467035","290149.964461","290916.257038","291682.916295","296292.964795","Mapping"
"Blocked","m160","ball","5","m160reek.wav","None","719.508488663","122","300166.223879","292432.624203","293198.797131","293982.356104","294749.713474","295515.652975","296282.809383","297049.508214","286316.42022","287082.965391","287849.283012","288616.426125","289382.467035","290149.964461","290916.257038","291682.916295","297059.271285","Mapping"
"Blocked","m160","ball","5","m160cave.wav","None","722.038453212","122","300166.223879","292432.624203","293198.797131","293982.356104","294749.713474","295515.652975","296282.809383","297049.508214","300932.588494","287082.965391","287849.283012","288616.426125","289382.467035","290149.964461","290916.257038","291682.916295","300175.974274","Mapping"
"Blocked","m160","ball","5","m160ball.wav","None","721.139377449","122","300166.223879","292432.624203","293198.797131","293982.356104","294749.713474","295515.652975","296282.809383","297049.508214","300932.588494","301699.68554","287849.283012","288616.426125","289382.467035","290149.964461","290916.257038","291682.916295","300943.155106","Mapping"
"Blocked","m160","ball","5","m160cave.wav","space","506.821133662","122","300166.223879","292432.624203","293198.797131","293982.356104","294749.713474","295515.652975","296282.809383","297049.508214","300932.588494","301699.68554","302466.285435","288616.426125","289382.467035","290149.964461","290916.257038","291682.916295","301709.447993","Mapping"
"Blocked","m160","ball","5","m160ball.wav","None","720.120651647","122","300166.223879","292432.624203","293198.797131","293982.356104","294749.713474","295515.652975","296282.809383","297049.508214","300932.588494","301699.68554","302466.285435","303232.832463","289382.467035","290149.964461","290916.257038","291682.916295","302476.251943","Mapping"
"Blocked","m160","ball","5","m160romp.wav","space","580.451349495","122","300166.223879","292432.624203","293198.797131","293982.356104","294749.713474","295515.652975","296282.809383","297049.508214","300932.588494","301699.68554","302466.285435","303232.832463","303999.530675","290149.964461","290916.257038","291682.916295","303243.82357","Mapping"
"Blocked","m160","ball","5","m160park.wav","None","718.589007854","122","300166.223879","292432.624203","293198.797131","293982.356104","294749.713474","295515.652975","296282.809383","297049.508214","300932.588494","301699.68554","302466.285435","303232.832463","303999.530675","304766.023906","290916.257038","291682.916295","304009.992478","Mapping"
"Blocked","m160","ball","5","m160ball.wav","None","718.895707512","122","300166.223879","292432.624203","293198.797131","293982.356104","294749.713474","295515.652975","296282.809383","297049.508214","300932.588494","301699.68554","302466.285435","303232.832463","303999.530675","304766.023906","305516.208869","291682.916295","304776.004944","Mapping"
"Blocked","m160","ball","5","m160greet.wav","space","346.670962172","122","300166.223879","292432.624203","293198.797131","293982.356104","294749.713474","295515.652975","296282.809383","297049.508214","300932.588494","301699.68554","302466.285435","303232.832463","303999.530675","304766.023906","305516.208869","306281.941843","305525.521475","Mapping"
"Blocked","m160","ball","5","m160park.wav","None","735.652276548","122","300166.223879","307048.765889","293198.797131","293982.356104","294749.713474","295515.652975","296282.809383","297049.508214","300932.588494","301699.68554","302466.285435","303232.832463","303999.530675","304766.023906","305516.208869","306281.941843","306291.215802","Mapping"
"Blocked","m160","ball","5","m160priest.wav","None","734.55687589","122","300166.223879","307048.765889","307815.5955","293982.356104","294749.713474","295515.652975","296282.809383","297049.508214","300932.588494","301699.68554","302466.285435","303232.832463","303999.530675","304766.023906","305516.208869","306281.941843","307058.651084","Mapping"
"Blocked","m160","ball","5","m160jaw.wav","None","734.286040301","122","300166.223879","307048.765889","307815.5955","308582.18643","294749.713474","295515.652975","296282.809383","297049.508214","300932.588494","301699.68554","302466.285435","303232.832463","303999.530675","304766.023906","305516.208869","306281.941843","307825.184816","Mapping"
"Blocked","m160","ball","5","m160dime.wav","None","734.388376586","122","300166.223879","307048.765889","307815.5955","308582.18643","309348.965955","295515.652975","296282.809383","297049.508214","300932.588494","301699.68554","302466.285435","303232.832463","303999.530675","304766.023906","305516.208869","306281.941843","308591.636618","Mapping"
"Blocked","m160","ball","5","m160gnash.wav","None","733.559792396","122","300166.223879","307048.765889","307815.5955","308582.18643","309348.965955","310115.557503","296282.809383","297049.508214","300932.588494","301699.68554","302466.285435","303232.832463","303999.530675","304766.023906","305516.208869","306281.941843","309358.663481","Mapping"
"Blocked","m160","ball","5","m160ball.wav","None","733.882260043","122","300166.223879","307048.765889","307815.5955","308582.18643","309348.965955","310115.557503","310882.103293","297049.508214","300932.588494","301699.68554","302466.285435","303232.832463","303999.530675","304766.023906","305516.208869","306281.941843","310124.888968","Mapping"
"Blocked","m160","ball","5","m160cave.wav","space","428.983379621","122","300166.223879","307048.765889","307815.5955","308582.18643","309348.965955","310115.557503","310882.103293","311648.821602","300932.588494","301699.68554","302466.285435","303232.832463","303999.530675","304766.023906","305516.208869","306281.941843","310891.166396","Mapping"
"Blocked","m160","ball","2","m160reek.wav","None","732.40317544","122","314782.607647","307048.765889","307815.5955","308582.18643","309348.965955","310115.557503","310882.103293","311648.821602","300932.588494","301699.68554","302466.285435","303232.832463","303999.530675","304766.023906","305516.208869","306281.941843","311658.105455","Mapping"
"Blocked","m160","ball","2","m160park.wav","None","721.231201896","122","314782.607647","307048.765889","307815.5955","308582.18643","309348.965955","310115.557503","310882.103293","311648.821602","315549.333376","301699.68554","302466.285435","303232.832463","303999.530675","304766.023906","305516.208869","306281.941843","314793.376768","Mapping"
"Blocked","m160","ball","2","m160ball.wav","None","722.0430905","122","314782.607647","307048.765889","307815.5955","308582.18643","309348.965955","310115.557503","310882.103293","311648.821602","315549.333376","316315.932344","302466.285435","303232.832463","303999.530675","304766.023906","305516.208869","306281.941843","315559.090573","Mapping"
"Blocked","m160","ball","2","m160greet.wav","space","418.046687031","122","314782.607647","307048.765889","307815.5955","308582.18643","309348.965955","310115.557503","310882.103293","311648.821602","315549.333376","316315.932344","317082.684044","303232.832463","303999.530675","304766.023906","305516.208869","306281.941843","316325.954812","Mapping"
"Blocked","m160","ball","2","m160priest.wav","None","721.165038878","122","314782.607647","307048.765889","307815.5955","308582.18643","309348.965955","310115.557503","310882.103293","311648.821602","315549.333376","316315.932344","317082.684044","317849.087305","303999.530675","304766.023906","305516.208869","306281.941843","317092.131449","Mapping"
"Blocked","m160","ball","2","m160dime.wav","None","719.888462685","122","314782.607647","307048.765889","307815.5955","308582.18643","309348.965955","310115.557503","310882.103293","311648.821602","315549.333376","316315.932344","317082.684044","317849.087305","318615.26487","304766.023906","305516.208869","306281.941843","317859.700294","Mapping"
"Blocked","m160","ball","2","m160cave.wav","None","721.436802065","122","314782.607647","307048.765889","307815.5955","308582.18643","309348.965955","310115.557503","310882.103293","311648.821602","315549.333376","316315.932344","317082.684044","317849.087305","318615.26487","319381.906813","305516.208869","306281.941843","318624.489671","Mapping"
"Blocked","m160","ball","2","m160bluff.wav","None","721.379914088","122","314782.607647","307048.765889","307815.5955","308582.18643","309348.965955","310115.557503","310882.103293","311648.821602","315549.333376","316315.932344","317082.684044","317849.087305","318615.26487","319381.906813","320149.085481","306281.941843","319391.010109","Mapping"
"Blocked","m160","ball","2","m160ball.wav","None","719.38296454","122","314782.607647","307048.765889","307815.5955","308582.18643","309348.965955","310115.557503","310882.103293","311648.821602","315549.333376","316315.932344","317082.684044","317849.087305","318615.26487","319381.906813","320149.085481","320915.771018","320159.254497","Mapping"
"Blocked","m160","ball","2","m160lash.wav","space","338.32699596","122","314782.607647","321664.979921","307815.5955","308582.18643","309348.965955","310115.557503","310882.103293","311648.821602","315549.333376","316315.932344","317082.684044","317849.087305","318615.26487","319381.906813","320149.085481","320915.771018","320925.637044","Mapping"
"Blocked","m160","ball","2","m160priest.wav","None","736.438503955","122","314782.607647","321664.979921","322431.730693","308582.18643","309348.965955","310115.557503","310882.103293","311648.821602","315549.333376","316315.932344","317082.684044","317849.087305","318615.26487","319381.906813","320149.085481","320915.771018","321674.109496","Mapping"
"Blocked","m160","ball","2","m160depth.wav","None","736.11016199","122","314782.607647","321664.979921","322431.730693","323198.624303","309348.965955","310115.557503","310882.103293","311648.821602","315549.333376","316315.932344","317082.684044","317849.087305","318615.26487","319381.906813","320149.085481","320915.771018","322440.926122","Mapping"
"Blocked","m160","ball","2","m160ball.wav","None","735.154817114","122","314782.607647","321664.979921","322431.730693","323198.624303","323965.228836","310115.557503","310882.103293","311648.821602","315549.333376","316315.932344","317082.684044","317849.087305","318615.26487","319381.906813","320149.085481","320915.771018","323208.19816","Mapping"
"Blocked","m160","ball","2","m160reek.wav","space","406.31109057","122","314782.607647","321664.979921","322431.730693","323198.624303","323965.228836","324731.807399","310882.103293","311648.821602","315549.333376","316315.932344","317082.684044","317849.087305","318615.26487","319381.906813","320149.085481","320915.771018","323969.605492","Mapping"
"Blocked","m160","ball","2","m160ball.wav","None","734.531214694","122","314782.607647","321664.979921","322431.730693","323198.624303","323965.228836","324731.807399","325515.127999","311648.821602","315549.333376","316315.932344","317082.684044","317849.087305","318615.26487","319381.906813","320149.085481","320915.771018","324740.896163","Mapping"
"Blocked","m160","ball","2","m160priest.wav","space","459.807020146","122","314782.607647","321664.979921","322431.730693","323198.624303","323965.228836","324731.807399","325515.127999","326281.905979","315549.333376","316315.932344","317082.684044","317849.087305","318615.26487","319381.906813","320149.085481","320915.771018","325524.075163","Mapping"
"Blocked","m160","cave","8","m160depth.wav","None","719.834357267","122","329399.022642","321664.979921","322431.730693","323198.624303","323965.228836","324731.807399","325515.127999","326281.905979","315549.333376","316315.932344","317082.684044","317849.087305","318615.26487","319381.906813","320149.085481","320915.771018","326291.267434","Mapping"
"Blocked","m160","cave","8","m160done.wav","None","721.675174544","122","329399.022642","321664.979921","322431.730693","323198.624303","323965.228836","324731.807399","325515.127999","326281.905979","330165.714362","316315.932344","317082.684044","317849.087305","318615.26487","319381.906813","320149.085481","320915.771018","329408.783549","Mapping"
"Blocked","m160","cave","8","m160cave.wav","None","721.220999258","122","329399.022642","321664.979921","322431.730693","323198.624303","323965.228836","324731.807399","325515.127999","326281.905979","330165.714362","330932.071247","317082.684044","317849.087305","318615.26487","319381.906813","320149.085481","320915.771018","330175.63573","Mapping"
"Blocked","m160","cave","8","m160bluff.wav","space","433.739081956","122","329399.022642","321664.979921","322431.730693","323198.624303","323965.228836","324731.807399","325515.127999","326281.905979","330165.714362","330932.071247","331698.608999","317849.087305","318615.26487","319381.906813","320149.085481","320915.771018","330942.028788","Mapping"
"Blocked","m160","cave","8","m160cave.wav","None","720.958511112","122","329399.022642","321664.979921","322431.730693","323198.624303","323965.228836","324731.807399","325515.127999","326281.905979","330165.714362","330932.071247","331698.608999","332465.672036","318615.26487","319381.906813","320149.085481","320915.771018","331707.902745","Mapping"
"Blocked","m160","cave","8","m160lash.wav","space","436.09188986","122","329399.022642","321664.979921","322431.730693","323198.624303","323965.228836","324731.807399","325515.127999","326281.905979","330165.714362","330932.071247","331698.608999","332465.672036","333232.334384","319381.906813","320149.085481","320915.771018","332475.64349","Mapping"
"Blocked","m160","cave","8","m160dime.wav","None","719.325458165","122","329399.022642","321664.979921","322431.730693","323198.624303","323965.228836","324731.807399","325515.127999","326281.905979","330165.714362","330932.071247","331698.608999","332465.672036","333232.334384","333999.073099","320149.085481","320915.771018","333242.122499","Mapping"
"Blocked","m160","cave","8","m160jolt.wav","None","719.000826357","122","329399.022642","321664.979921","322431.730693","323198.624303","323965.228836","324731.807399","325515.127999","326281.905979","330165.714362","330932.071247","331698.608999","332465.672036","333232.334384","333999.073099","334765.566948","320915.771018","334009.099586","Mapping"
"Blocked","m160","cave","8","m160cave.wav","None","718.749468448","122","329399.022642","321664.979921","322431.730693","323198.624303","323965.228836","324731.807399","325515.127999","326281.905979","330165.714362","330932.071247","331698.608999","332465.672036","333232.334384","333999.073099","334765.566948","335531.904974","334775.587251","Mapping"
"Blocked","m160","cave","8","m160romp.wav","space","481.525200885","122","329399.022642","336281.783855","322431.730693","323198.624303","323965.228836","324731.807399","325515.127999","326281.905979","330165.714362","330932.071247","331698.608999","332465.672036","333232.334384","333999.073099","334765.566948","335531.904974","335542.181891","Mapping"
"Blocked","m160","cave","8","m160park.wav","None","735.352069372","122","329399.022642","336281.783855","337048.424871","323198.624303","323965.228836","324731.807399","325515.127999","326281.905979","330165.714362","330932.071247","331698.608999","332465.672036","333232.334384","333999.073099","334765.566948","335531.904974","336291.342872","Mapping"
"Blocked","m160","cave","8","m160cave.wav","None","734.407236101","122","329399.022642","336281.783855","337048.424871","337814.558224","323965.228836","324731.807399","325515.127999","326281.905979","330165.714362","330932.071247","331698.608999","332465.672036","333232.334384","333999.073099","334765.566948","335531.904974","337058.537308","Mapping"
"Blocked","m160","cave","8","m160done.wav","space","488.035770133","122","329399.022642","336281.783855","337048.424871","337814.558224","338581.55046","324731.807399","325515.127999","326281.905979","330165.714362","330932.071247","331698.608999","332465.672036","333232.334384","333999.073099","334765.566948","335531.904974","337823.604941","Mapping"
"Blocked","m160","cave","8","m160romp.wav","None","734.714863589","122","329399.022642","336281.783855","337048.424871","337814.558224","338581.55046","339347.993605","325515.127999","326281.905979","330165.714362","330932.071247","331698.608999","332465.672036","333232.334384","333999.073099","334765.566948","335531.904974","338590.814835","Mapping"
"Blocked","m160","cave","8","m160lash.wav","None","735.131628811","122","329399.022642","336281.783855","337048.424871","337814.558224","338581.55046","339347.993605","340115.107037","326281.905979","330165.714362","330932.071247","331698.608999","332465.672036","333232.334384","333999.073099","334765.566948","335531.904974","339356.987454","Mapping"
"Blocked","m160","cave","8","m160done.wav","None","733.403350692","122","329399.022642","336281.783855","337048.424871","337814.558224","338581.55046","339347.993605","340115.107037","340881.641697","330165.714362","330932.071247","331698.608999","332465.672036","333232.334384","333999.073099","334765.566948","335531.904974","340125.139708","Mapping"
"Blocked","m160","done","23","m160tile.wav","space","372.10107618","122","344015.326334","336281.783855","337048.424871","337814.558224","338581.55046","339347.993605","340115.107037","340881.641697","330165.714362","330932.071247","331698.608999","332465.672036","333232.334384","333999.073099","334765.566948","335531.904974","340891.493192","Mapping"
"Blocked","m160","done","23","m160ball.wav","None","721.700835973","122","344015.326334","336281.783855","337048.424871","337814.558224","338581.55046","339347.993605","340115.107037","340881.641697","344781.871197","330932.071247","331698.608999","332465.672036","333232.334384","333999.073099","334765.566948","335531.904974","344025.430732","Mapping"
"Blocked","m160","done","23","m160gnash.wav","None","721.647658153","122","344015.326334","336281.783855","337048.424871","337814.558224","338581.55046","339347.993605","340115.107037","340881.641697","344781.871197","345548.738527","331698.608999","332465.672036","333232.334384","333999.073099","334765.566948","335531.904974","344792.015788","Mapping"
"Blocked","m160","done","23","m160done.wav","None","721.703309333","122","344015.326334","336281.783855","337048.424871","337814.558224","338581.55046","339347.993605","340115.107037","340881.641697","344781.871197","345548.738527","346315.340278","332465.672036","333232.334384","333999.073099","334765.566948","335531.904974","345558.556631","Mapping"
"Blocked","m160","done","23","m160depth.wav","space","466.098076664","122","344015.326334","336281.783855","337048.424871","337814.558224","338581.55046","339347.993605","340115.107037","340881.641697","344781.871197","345548.738527","346315.340278","347081.943265","333232.334384","333999.073099","334765.566948","335531.904974","346325.419942","Mapping"
"Blocked","m160","done","23","m160romp.wav","None","720.86823266","122","344015.326334","336281.783855","337048.424871","337814.558224","338581.55046","339347.993605","340115.107037","340881.641697","344781.871197","345548.738527","346315.340278","347081.943265","347848.709187","333999.073099","334765.566948","335531.904974","347091.55144","Mapping"
"Blocked","m160","done","23","m160done.wav","None","720.106739085","122","344015.326334","336281.783855","337048.424871","337814.558224","338581.55046","339347.993605","340115.107037","340881.641697","344781.871197","345548.738527","346315.340278","347081.943265","347848.709187","348615.252503","334765.566948","335531.904974","347858.82657","Mapping"
"Blocked","m160","done","23","m160priest.wav","space","454.508719267","122","344015.326334","336281.783855","337048.424871","337814.558224","338581.55046","339347.993605","340115.107037","340881.641697","344781.871197","345548.738527","346315.340278","347081.943265","347848.709187","348615.252503","349381.374417","335531.904974","348624.988058","Mapping"
"Blocked","m160","done","23","m160cave.wav","None","720.34542053","122","344015.326334","336281.783855","337048.424871","337814.558224","338581.55046","339347.993605","340115.107037","340881.641697","344781.871197","345548.738527","346315.340278","347081.943265","347848.709187","348615.252503","349381.374417","350148.36789","349390.743293","Mapping"
"Blocked","m160","done","23","m160done.wav","None","719.230232993","122","344015.326334","350914.941506","337048.424871","337814.558224","338581.55046","339347.993605","340115.107037","340881.641697","344781.871197","345548.738527","346315.340278","347081.943265","347848.709187","348615.252503","349381.374417","350148.36789","350158.386957","Mapping"
"Blocked","m160","done","23","m160depth.wav","space","291.137890192","122","344015.326334","350914.941506","351664.374869","337814.558224","338581.55046","339347.993605","340115.107037","340881.641697","344781.871197","345548.738527","346315.340278","347081.943265","347848.709187","348615.252503","349381.374417","350148.36789","350924.283174","Mapping"
"Blocked","m160","done","23","m160bluff.wav","None","741.816262482","122","344015.326334","350914.941506","351664.374869","352431.138317","338581.55046","339347.993605","340115.107037","340881.641697","344781.871197","345548.738527","346315.340278","347081.943265","347848.709187","348615.252503","349381.374417","350148.36789","351668.025586","Mapping"
"Blocked","m160","done","23","m160done.wav","None","735.006413655","122","344015.326334","350914.941506","351664.374869","352431.138317","353197.751507","339347.993605","340115.107037","340881.641697","344781.871197","345548.738527","346315.340278","347081.943265","347848.709187","348615.252503","349381.374417","350148.36789","352441.372877","Mapping"
"Blocked","m160","done","23","m160tile.wav","space","488.544359803","122","344015.326334","350914.941506","351664.374869","352431.138317","353197.751507","353964.64048","340115.107037","340881.641697","344781.871197","345548.738527","346315.340278","347081.943265","347848.709187","348615.252503","349381.374417","350148.36789","353206.857585","Mapping"
"Blocked","m160","done","23","m160lash.wav","None","734.581300523","122","344015.326334","350914.941506","351664.374869","352431.138317","353197.751507","353964.64048","354731.292935","340881.641697","344781.871197","345548.738527","346315.340278","347081.943265","347848.709187","348615.252503","349381.374417","350148.36789","353974.242472","Mapping"
"Blocked","m160","done","23","m160greet.wav","None","734.969622223","122","344015.326334","350914.941506","351664.374869","352431.138317","353197.751507","353964.64048","354731.292935","355498.51736","344781.871197","345548.738527","346315.340278","347081.943265","347848.709187","348615.252503","349381.374417","350148.36789","354740.784243","Mapping"
"Blocked","m160","cave","10","m160jaw.wav","None","734.384975629","122","358631.728343","350914.941506","351664.374869","352431.138317","353197.751507","353964.64048","354731.292935","355498.51736","344781.871197","345548.738527","346315.340278","347081.943265","347848.709187","348615.252503","349381.374417","350148.36789","355507.91839","Mapping"
"Blocked","m160","cave","10","m160bluff.wav","None","721.484105568","122","358631.728343","350914.941506","351664.374869","352431.138317","353197.751507","353964.64048","354731.292935","355498.51736","359398.523018","345548.738527","346315.340278","347081.943265","347848.709187","348615.252503","349381.374417","350148.36789","358642.115017","Mapping"
"Blocked","m160","cave","10","m160reek.wav","None","721.76730819","122","358631.728343","350914.941506","351664.374869","352431.138317","353197.751507","353964.64048","354731.292935","355498.51736","359398.523018","360165.119512","346315.340278","347081.943265","347848.709187","348615.252503","349381.374417","350148.36789","359408.212506","Mapping"
"Blocked","m160","cave","10","m160priest.wav","None","720.880290261","122","358631.728343","350914.941506","351664.374869","352431.138317","353197.751507","353964.64048","354731.292935","355498.51736","359398.523018","360165.119512","360931.76733","347081.943265","347848.709187","348615.252503","349381.374417","350148.36789","360175.565857","Mapping"
"Blocked","m160","cave","10","m160priest.wav","None","721.009215573","122","358631.728343","350914.941506","351664.374869","352431.138317","353197.751507","353964.64048","354731.292935","355498.51736","359398.523018","360165.119512","360931.76733","361698.40649","347848.709187","348615.252503","349381.374417","350148.36789","360941.859671","Mapping"
"Blocked","m160","cave","10","m160cave.wav","None","721.10134922","122","358631.728343","350914.941506","351664.374869","352431.138317","353197.751507","353964.64048","354731.292935","355498.51736","359398.523018","360165.119512","360931.76733","361698.40649","362464.785018","348615.252503","349381.374417","350148.36789","361708.693919","Mapping"
"Blocked","m160","cave","10","m160jolt.wav","space","596.145290416","122","358631.728343","350914.941506","351664.374869","352431.138317","353197.751507","353964.64048","354731.292935","355498.51736","359398.523018","360165.119512","360931.76733","361698.40649","362464.785018","363231.174985","349381.374417","350148.36789","362475.083268","Mapping"
"Blocked","m160","cave","10","m160cave.wav","None","721.963014919","122","358631.728343","350914.941506","351664.374869","352431.138317","353197.751507","353964.64048","354731.292935","355498.51736","359398.523018","360165.119512","360931.76733","361698.40649","362464.785018","363231.174985","363998.392608","350148.36789","363240.196968","Mapping"
"Blocked","m160","cave","10","m160cad.wav","space","534.619514598","122","358631.728343","350914.941506","351664.374869","352431.138317","353197.751507","353964.64048","354731.292935","355498.51736","359398.523018","360165.119512","360931.76733","361698.40649","362464.785018","363231.174985","363998.392608","364765.406178","364008.57832","Mapping"
"Blocked","m160","cave","10","m160ball.wav","None","719.253730029","122","358631.728343","365531.519435","351664.374869","352431.138317","353197.751507","353964.64048","354731.292935","355498.51736","359398.523018","360165.119512","360931.76733","361698.40649","362464.785018","363231.174985","363998.392608","364765.406178","364775.163375","Mapping"
"Blocked","m160","cave","10","m160greet.wav","None","719.893409405","122","358631.728343","365531.519435","366298.284738","352431.138317","353197.751507","353964.64048","354731.292935","355498.51736","359398.523018","360165.119512","360931.76733","361698.40649","362464.785018","363231.174985","363998.392608","364765.406178","365541.145542","Mapping"
"Blocked","m160","cave","10","m160dime.wav","None","719.691828592","122","358631.728343","365531.519435","366298.284738","367064.402014","353197.751507","353964.64048","354731.292935","355498.51736","359398.523018","360165.119512","360931.76733","361698.40649","362464.785018","363231.174985","363998.392608","364765.406178","366308.072234","Mapping"
"Blocked","m160","cave","10","m160cave.wav","None","720.848136349","122","358631.728343","365531.519435","366298.284738","367064.402014","367831.533378","353964.64048","354731.292935","355498.51736","359398.523018","360165.119512","360931.76733","361698.40649","362464.785018","363231.174985","363998.392608","364765.406178","367073.547667","Mapping"
"Blocked","m160","cave","10","m160park.wav","space","597.219048999","122","358631.728343","365531.519435","366298.284738","367064.402014","367831.533378","368598.371956","354731.292935","355498.51736","359398.523018","360165.119512","360931.76733","361698.40649","362464.785018","363231.174985","363998.392608","364765.406178","367841.897483","Mapping"
"Blocked","m160","cave","10","m160cave.wav","None","718.395156087","122","358631.728343","365531.519435","366298.284738","367064.402014","367831.533378","368598.371956","369347.984639","355498.51736","359398.523018","360165.119512","360931.76733","361698.40649","362464.785018","363231.174985","363998.392608","364765.406178","368608.454403","Mapping"
"Blocked","m160","cave","10","m160park.wav","space","650.095395511","122","358631.728343","365531.519435","366298.284738","367064.402014","367831.533378","368598.371956","369347.984639","370114.047192","359398.523018","360165.119512","360931.76733","361698.40649","362464.785018","363231.174985","363998.392608","364765.406178","369357.036303","Mapping"
"Blocked","m160","tile","14","m160cad.wav","None","729.495092295","122","373247.740485","365531.519435","366298.284738","367064.402014","367831.533378","368598.371956","369347.984639","370114.047192","359398.523018","360165.119512","360931.76733","361698.40649","362464.785018","363231.174985","363998.392608","364765.406178","370129.83914","Mapping"
"Blocked","m160","tile","14","m160tile.wav","None","723.959655268","122","373247.740485","365531.519435","366298.284738","367064.402014","367831.533378","368598.371956","369347.984639","370114.047192","374014.79672","360165.119512","360931.76733","361698.40649","362464.785018","363231.174985","363998.392608","364765.406178","373256.983218","Mapping"
"Blocked","m160","tile","14","m160greet.wav","space","486.094162334","122","373247.740485","365531.519435","366298.284738","367064.402014","367831.533378","368598.371956","369347.984639","370114.047192","374014.79672","374781.373119","360931.76733","361698.40649","362464.785018","363231.174985","363998.392608","364765.406178","374024.915959","Mapping"
"Blocked","m160","tile","14","m160cling.wav","None","722.27466153","122","373247.740485","365531.519435","366298.284738","367064.402014","367831.533378","368598.371956","369347.984639","370114.047192","374014.79672","374781.373119","375547.654566","361698.40649","362464.785018","363231.174985","363998.392608","364765.406178","374791.164325","Mapping"
"Blocked","m160","tile","14","m160tile.wav","None","723.32554101","122","373247.740485","365531.519435","366298.284738","367064.402014","367831.533378","368598.371956","369347.984639","370114.047192","374014.79672","374781.373119","375547.654566","376314.873735","362464.785018","363231.174985","363998.392608","364765.406178","375556.830517","Mapping"
"Blocked","m160","tile","14","m160ball.wav","None","722.016501706","122","373247.740485","365531.519435","366298.284738","367064.402014","367831.533378","368598.371956","369347.984639","370114.047192","374014.79672","374781.373119","375547.654566","376314.873735","377081.320281","363231.174985","363998.392608","364765.406178","376324.913517","Mapping"
"Blocked","m160","tile","14","m160reek.wav","space","59.8961240612","122","373247.740485","365531.519435","366298.284738","367064.402014","367831.533378","368598.371956","369347.984639","370114.047192","374014.79672","374781.373119","375547.654566","376314.873735","377081.320281","377848.057759","363998.392608","364765.406178","377091.059855","Mapping"
"Blocked","m160","tile","14","m160cave.wav","None","721.411140636","122","373247.740485","365531.519435","366298.284738","367064.402014","367831.533378","368598.371956","369347.984639","370114.047192","374014.79672","374781.373119","375547.654566","376314.873735","377081.320281","377848.057759","378614.689499","364765.406178","377858.271295","Mapping"
"Blocked","m160","tile","14","m160tile.wav","None","721.659715986","122","373247.740485","365531.519435","366298.284738","367064.402014","367831.533378","368598.371956","369347.984639","370114.047192","374014.79672","374781.373119","375547.654566","376314.873735","377081.320281","377848.057759","378614.689499","379381.258786","378624.898089","Mapping"
"Blocked","m160","tile","14","m160park.wav","space","480.092492187","122","373247.740485","380147.745215","366298.284738","367064.402014","367831.533378","368598.371956","369347.984639","370114.047192","374014.79672","374781.373119","375547.654566","376314.873735","377081.320281","377848.057759","378614.689499","379381.258786","379390.828624","Mapping"
"Blocked","m160","tile","14","m160gnash.wav","None","722.269096179","122","373247.740485","380147.745215","380914.142293","367064.402014","367831.533378","368598.371956","369347.984639","370114.047192","374014.79672","374781.373119","375547.654566","376314.873735","377081.320281","377848.057759","378614.689499","379381.258786","380156.889322","Mapping"
"Blocked","m160","tile","14","m160dime.wav","None","722.848796053","122","373247.740485","380147.745215","380914.142293","381680.808352","367831.533378","368598.371956","369347.984639","370114.047192","374014.79672","374781.373119","375547.654566","376314.873735","377081.320281","377848.057759","378614.689499","379381.258786","380923.291965","Mapping"
"Blocked","m160","tile","14","m160ball.wav","None","723.197234329","122","373247.740485","380147.745215","380914.142293","381680.808352","382447.578911","368598.371956","369347.984639","370114.047192","374014.79672","374781.373119","375547.654566","376314.873735","377081.320281","377848.057759","378614.689499","379381.258786","381689.807456","Mapping"
"Blocked","m160","tile","14","m160jaw.wav","None","723.331106128","122","373247.740485","380147.745215","380914.142293","381680.808352","382447.578911","383214.528791","369347.984639","370114.047192","374014.79672","374781.373119","375547.654566","376314.873735","377081.320281","377848.057759","378614.689499","379381.258786","382456.704158","Mapping"
"Blocked","m160","tile","14","m160tile.wav","None","722.223029472","122","373247.740485","380147.745215","380914.142293","381680.808352","382447.578911","383214.528791","383980.809929","370114.047192","374014.79672","374781.373119","375547.654566","376314.873735","377081.320281","377848.057759","378614.689499","379381.258786","383224.693478","Mapping"
"Blocked","m160","tile","14","m160jaw.wav","space","513.074470917","122","373247.740485","380147.745215","380914.142293","381680.808352","382447.578911","383214.528791","383980.809929","384747.557918","374014.79672","374781.373119","375547.654566","376314.873735","377081.320281","377848.057759","378614.689499","379381.258786","383989.76142","Mapping"
"Blocked","m160","cave","9","m160lash.wav","None","722.223029472","122","387881.35633","380147.745215","380914.142293","381680.808352","382447.578911","383214.528791","383980.809929","384747.557918","374014.79672","374781.373119","375547.654566","376314.873735","377081.320281","377848.057759","378614.689499","379381.258786","384757.388389","Mapping"
"Blocked","m160","cave","9","m160cave.wav","None","722.12533094","122","387881.35633","380147.745215","380914.142293","381680.808352","382447.578911","383214.528791","383980.809929","384747.557918","388647.798239","374781.373119","375547.654566","376314.873735","377081.320281","377848.057759","378614.689499","379381.258786","387891.141971","Mapping"
"Blocked","m160","cave","9","m160jaw.wav","space","412.849176209","122","387881.35633","380147.745215","380914.142293","381680.808352","382447.578911","383214.528791","383980.809929","384747.557918","388647.798239","389413.796174","375547.654566","376314.873735","377081.320281","377848.057759","378614.689499","379381.258786","388657.875739","Mapping"
"Blocked","m160","cave","9","m160jaw.wav","None","722.816023743","122","387881.35633","380147.745215","380914.142293","381680.808352","382447.578911","383214.528791","383980.809929","384747.557918","388647.798239","389413.796174","390181.138085","376314.873735","377081.320281","377848.057759","378614.689499","379381.258786","389422.952957","Mapping"
"Blocked","m160","cave","9","m160done.wav","None","721.198429354","122","387881.35633","380147.745215","380914.142293","381680.808352","382447.578911","383214.528791","383980.809929","384747.557918","388647.798239","389413.796174","390181.138085","390947.733034","377081.320281","377848.057759","378614.689499","379381.258786","390191.162099","Mapping"
"Blocked","m160","cave","9","m160done.wav","None","721.957759","122","387881.35633","380147.745215","380914.142293","381680.808352","382447.578911","383214.528791","383980.809929","384747.557918","388647.798239","389413.796174","390181.138085","390947.733034","391714.605311","377848.057759","378614.689499","379381.258786","390957.166526","Mapping"
"Blocked","m160","cave","9","m160lash.wav","None","721.482250374","122","387881.35633","380147.745215","380914.142293","381680.808352","382447.578911","383214.528791","383980.809929","384747.557918","388647.798239","389413.796174","390181.138085","390947.733034","391714.605311","392481.017539","378614.689499","379381.258786","391724.478757","Mapping"
"Blocked","m160","cave","9","m160cave.wav","None","722.074008081","122","387881.35633","380147.745215","380914.142293","381680.808352","382447.578911","383214.528791","383980.809929","384747.557918","388647.798239","389413.796174","390181.138085","390947.733034","391714.605311","392481.017539","393247.919187","379381.258786","392490.574082","Mapping"
"Blocked","m160","cave","9","m160greet.wav","space","524.248299422","122","387881.35633","380147.745215","380914.142293","381680.808352","382447.578911","383214.528791","383980.809929","384747.557918","388647.798239","389413.796174","390181.138085","390947.733034","391714.605311","392481.017539","393247.919187","394013.931653","393258.396139","Mapping"
"Blocked","m160","cave","9","m160cave.wav","None","721.636218717","122","387881.35633","394780.67315","380914.142293","381680.808352","382447.578911","383214.528791","383980.809929","384747.557918","388647.798239","389413.796174","390181.138085","390947.733034","391714.605311","392481.017539","393247.919187","394013.931653","394023.278578","Mapping"
"Blocked","m160","cave","9","m160ball.wav","space","456.723636016","122","387881.35633","394780.67315","395547.508018","381680.808352","382447.578911","383214.528791","383980.809929","384747.557918","388647.798239","389413.796174","390181.138085","390947.733034","391714.605311","392481.017539","393247.919187","394013.931653","394789.921139","Mapping"
"Blocked","m160","cave","9","m160dime.wav","None","720.549165737","122","387881.35633","394780.67315","395547.508018","396313.869541","382447.578911","383214.528791","383980.809929","384747.557918","388647.798239","389413.796174","390181.138085","390947.733034","391714.605311","392481.017539","393247.919187","394013.931653","395556.573285","Mapping"
"Blocked","m160","cave","9","m160cave.wav","None","720.873488346","122","387881.35633","394780.67315","395547.508018","396313.869541","397080.970606","383214.528791","383980.809929","384747.557918","388647.798239","389413.796174","390181.138085","390947.733034","391714.605311","392481.017539","393247.919187","394013.931653","396323.037144","Mapping"
"Blocked","m160","cave","9","m160priest.wav","space","667.670655064","122","387881.35633","394780.67315","395547.508018","396313.869541","397080.970606","397830.705103","383980.809929","384747.557918","388647.798239","389413.796174","390181.138085","390947.733034","391714.605311","392481.017539","393247.919187","394013.931653","397090.885172","Mapping"
"Blocked","m160","cave","9","m160priest.wav","None","736.570211826","122","387881.35633","394780.67315","395547.508018","396313.869541","397080.970606","397830.705103","398597.444745","384747.557918","388647.798239","389413.796174","390181.138085","390947.733034","391714.605311","392481.017539","393247.919187","394013.931653","397839.933923","Mapping"
"Blocked","m160","cave","9","m160bluff.wav","None","736.671002349","122","387881.35633","394780.67315","395547.508018","396313.869541","397080.970606","397830.705103","398597.444745","399380.967854","388647.798239","389413.796174","390181.138085","390947.733034","391714.605311","392481.017539","393247.919187","394013.931653","398606.368721","Mapping"
"Blocked","m160","ball","3","m160jolt.wav","None","718.194811838","122","402497.600661","394780.67315","395547.508018","396313.869541","397080.970606","397830.705103","398597.444745","399380.967854","388647.798239","389413.796174","390181.138085","390947.733034","391714.605311","392481.017539","393247.919187","394013.931653","399391.716261","Mapping"
"Blocked","m160","ball","3","m160priest.wav","None","722.701938823","122","402497.600661","394780.67315","395547.508018","396313.869541","397080.970606","397830.705103","398597.444745","399380.967854","403263.609109","389413.796174","390181.138085","390947.733034","391714.605311","392481.017539","393247.919187","394013.931653","402508.059682","Mapping"
"Blocked","m160","ball","3","m160ball.wav","None","725.247052731","122","402497.600661","394780.67315","395547.508018","396313.869541","397080.970606","397830.705103","398597.444745","399380.967854","403263.609109","404030.498081","390181.138085","390947.733034","391714.605311","392481.017539","393247.919187","394013.931653","403272.579769","Mapping"
"Blocked","m160","ball","3","m160cave.wav","space","422.335537849","122","402497.600661","394780.67315","395547.508018","396313.869541","397080.970606","397830.705103","398597.444745","399380.967854","403263.609109","404030.498081","404797.685715","390947.733034","391714.605311","392481.017539","393247.919187","394013.931653","404040.131918","Mapping"
"Blocked","m160","ball","3","m160dime.wav","None","722.760063363","122","402497.600661","394780.67315","395547.508018","396313.869541","397080.970606","397830.705103","398597.444745","399380.967854","403263.609109","404030.498081","404797.685715","405563.528755","391714.605311","392481.017539","393247.919187","394013.931653","404807.438584","Mapping"
"Blocked","m160","ball","3","m160ball.wav","None","724.560688017","122","402497.600661","394780.67315","395547.508018","396313.869541","397080.970606","397830.705103","398597.444745","399380.967854","403263.609109","404030.498081","404797.685715","405563.528755","406330.422674","392481.017539","393247.919187","394013.931653","405573.186089","Mapping"
"Blocked","m160","ball","3","m160jaw.wav","space","362.972737523","122","402497.600661","394780.67315","395547.508018","396313.869541","397080.970606","397830.705103","398597.444745","399380.967854","403263.609109","404030.498081","404797.685715","405563.528755","406330.422674","407097.809415","393247.919187","394013.931653","406339.45115","Mapping"
"Blocked","m160","ball","3","m160jolt.wav","None","722.443160834","122","402497.600661","394780.67315","395547.508018","396313.869541","397080.970606","397830.705103","398597.444745","399380.967854","403263.609109","404030.498081","404797.685715","405563.528755","406330.422674","407097.809415","407864.169701","394013.931653","407107.474788","Mapping"
"Blocked","m160","ball","3","m160romp.wav","None","722.322583199","122","402497.600661","394780.67315","395547.508018","396313.869541","397080.970606","397830.705103","398597.444745","399380.967854","403263.609109","404030.498081","404797.685715","405563.528755","406330.422674","407097.809415","407864.169701","408631.672074","407874.5134","Mapping"
"Blocked","m160","ball","3","m160ball.wav","None","722.22117451","122","402497.600661","409397.785021","395547.508018","396313.869541","397080.970606","397830.705103","398597.444745","399380.967854","403263.609109","404030.498081","404797.685715","405563.528755","406330.422674","407097.809415","407864.169701","408631.672074","408641.353832","Mapping"
"Blocked","m160","ball","3","m160jolt.wav","space","503.14506446","122","402497.600661","409397.785021","410164.126757","396313.869541","397080.970606","397830.705103","398597.444745","399380.967854","403263.609109","404030.498081","404797.685715","405563.528755","406330.422674","407097.809415","407864.169701","408631.672074","409407.377738","Mapping"
"Blocked","m160","ball","3","m160done.wav","None","721.822650172","122","402497.600661","409397.785021","410164.126757","410930.748604","397080.970606","397830.705103","398597.444745","399380.967854","403263.609109","404030.498081","404797.685715","405563.528755","406330.422674","407097.809415","407864.169701","408631.672074","410174.249397","Mapping"
"Blocked","m160","ball","3","m160ball.wav","None","721.718768124","122","402497.600661","409397.785021","410164.126757","410930.748604","411697.598003","397830.705103","398597.444745","399380.967854","403263.609109","404030.498081","404797.685715","405563.528755","406330.422674","407097.809415","407864.169701","408631.672074","410941.349535","Mapping"
"Blocked","m160","ball","3","m160park.wav","space","602.90257982","122","402497.600661","409397.785021","410164.126757","410930.748604","411697.598003","412464.243965","398597.444745","399380.967854","403263.609109","404030.498081","404797.685715","405563.528755","406330.422674","407097.809415","407864.169701","408631.672074","411707.430638","Mapping"
"Blocked","m160","ball","3","m160greet.wav","None","722.246217541","122","402497.600661","409397.785021","410164.126757","410930.748604","411697.598003","412464.243965","413230.633932","399380.967854","403263.609109","404030.498081","404797.685715","405563.528755","406330.422674","407097.809415","407864.169701","408631.672074","412473.838228","Mapping"
"Blocked","m160","ball","3","m160dime.wav","None","722.877240041","122","402497.600661","409397.785021","410164.126757","410930.748604","411697.598003","412464.243965","413230.633932","413997.504663","403263.609109","404030.498081","404797.685715","405563.528755","406330.422674","407097.809415","407864.169701","408631.672074","413240.247672","Mapping"
"Blocked","m160","tile","13","m160cave.wav","None","722.880331567","122","417130.647319","409397.785021","410164.126757","410930.748604","411697.598003","412464.243965","413230.633932","413997.504663","403263.609109","404030.498081","404797.685715","405563.528755","406330.422674","407097.809415","407864.169701","408631.672074","414007.487557","Mapping"
"Blocked","m160","tile","13","m160tile.wav","None","722.421209561","122","417130.647319","409397.785021","410164.126757","410930.748604","411697.598003","412464.243965","413230.633932","413997.504663","417897.538456","404030.498081","404797.685715","405563.528755","406330.422674","407097.809415","407864.169701","408631.672074","417140.313619","Mapping"
"Blocked","m160","tile","13","m160reek.wav","space","450.702487957","122","417130.647319","409397.785021","410164.126757","410930.748604","411697.598003","412464.243965","413230.633932","413997.504663","417897.538456","418664.162158","404797.685715","405563.528755","406330.422674","407097.809415","407864.169701","408631.672074","417907.555667","Mapping"
"Blocked","m160","tile","13","m160gnash.wav","None","721.169058001","122","417130.647319","409397.785021","410164.126757","410930.748604","411697.598003","412464.243965","413230.633932","413997.504663","417897.538456","418664.162158","419430.541613","405563.528755","406330.422674","407097.809415","407864.169701","408631.672074","418674.472156","Mapping"
"Blocked","m160","tile","13","m160romp.wav","None","721.91200126","122","417130.647319","409397.785021","410164.126757","410930.748604","411697.598003","412464.243965","413230.633932","413997.504663","417897.538456","418664.162158","419430.541613","420197.533849","406330.422674","407097.809415","407864.169701","408631.672074","419440.742164","Mapping"
"Blocked","m160","tile","13","m160park.wav","None","722.900427878","122","417130.647319","409397.785021","410164.126757","410930.748604","411697.598003","412464.243965","413230.633932","413997.504663","417897.538456","418664.162158","419430.541613","420197.533849","420963.072662","407097.809415","407864.169701","408631.672074","420207.496028","Mapping"
"Blocked","m160","tile","13","m160cave.wav","None","729.483653093","122","417130.647319","409397.785021","410164.126757","410930.748604","411697.598003","412464.243965","413230.633932","413997.504663","417897.538456","418664.162158","419430.541613","420197.533849","420963.072662","421730.216703","407864.169701","408631.672074","420971.90605","Mapping"
"Blocked","m160","tile","13","m160reek.wav","None","729.155620327","122","417130.647319","409397.785021","410164.126757","410930.748604","411697.598003","412464.243965","413230.633932","413997.504663","417897.538456","418664.162158","419430.541613","420197.533849","420963.072662","421730.216703","422497.015087","408631.672074","421739.883312","Mapping"
"Blocked","m160","tile","13","m160cad.wav","None","730.325840646","122","417130.647319","409397.785021","410164.126757","410930.748604","411697.598003","412464.243965","413230.633932","413997.504663","417897.538456","418664.162158","419430.541613","420197.533849","420963.072662","421730.216703","422497.015087","423264.578367","422506.199386","Mapping"
"Blocked","m160","tile","13","m160tile.wav","None","729.302168358","122","417130.647319","424030.091828","410164.126757","410930.748604","411697.598003","412464.243965","413230.633932","413997.504663","417897.538456","418664.162158","419430.541613","420197.533849","420963.072662","421730.216703","422497.015087","423264.578367","423274.15748","Mapping"
"Blocked","m160","tile","13","m160priest.wav","space","470.44968931","122","417130.647319","424030.091828","424796.822194","410930.748604","411697.598003","412464.243965","413230.633932","413997.504663","417897.538456","418664.162158","419430.541613","420197.533849","420963.072662","421730.216703","422497.015087","423264.578367","424039.698766","Mapping"
"Blocked","m160","tile","13","m160tile.wav","None","730.518146418","122","417130.647319","424030.091828","424796.822194","425563.509586","411697.598003","412464.243965","413230.633932","413997.504663","417897.538456","418664.162158","419430.541613","420197.533849","420963.072662","421730.216703","422497.015087","423264.578367","424806.118723","Mapping"
"Blocked","m160","tile","13","m160done.wav","None","729.888360482","122","417130.647319","424030.091828","424796.822194","425563.509586","426330.099897","412464.243965","413230.633932","413997.504663","417897.538456","418664.162158","419430.541613","420197.533849","420963.072662","421730.216703","422497.015087","423264.578367","425574.065068","Mapping"
"Blocked","m160","tile","13","m160jolt.wav","space","18.6425254215","122","417130.647319","424030.091828","424796.822194","425563.509586","426330.099897","427096.918378","413230.633932","413997.504663","417897.538456","418664.162158","419430.541613","420197.533849","420963.072662","421730.216703","422497.015087","423264.578367","426339.430126","Mapping"
"Blocked","m160","tile","13","m160tile.wav","None","730.763011612","122","417130.647319","424030.091828","424796.822194","425563.509586","426330.099897","427096.918378","427863.460149","413997.504663","417897.538456","418664.162158","419430.541613","420197.533849","420963.072662","421730.216703","422497.015087","423264.578367","427106.567055","Mapping"
"Blocked","m160","tile","13","m160priest.wav","space","437.156991567","122","417130.647319","424030.091828","424796.822194","425563.509586","426330.099897","427096.918378","427863.460149","428630.406318","417897.538456","418664.162158","419430.541613","420197.533849","420963.072662","421730.216703","422497.015087","423264.578367","427872.890859","Mapping"
"Blocked","m160","done","20","m160jolt.wav","None","730.293068336","122","431763.739425","424030.091828","424796.822194","425563.509586","426330.099897","427096.918378","427863.460149","428630.406318","417897.538456","418664.162158","419430.541613","420197.533849","420963.072662","421730.216703","422497.015087","423264.578367","428639.752624","Mapping"
"Blocked","m160","done","20","m160done.wav","None","721.01508989","122","431763.739425","424030.091828","424796.822194","425563.509586","426330.099897","427096.918378","427863.460149","428630.406318","432530.376731","418664.162158","419430.541613","420197.533849","420963.072662","421730.216703","422497.015087","423264.578367","431774.660041","Mapping"
"Blocked","m160","done","20","m160lash.wav","space","361.63030751","122","431763.739425","424030.091828","424796.822194","425563.509586","426330.099897","427096.918378","427863.460149","428630.406318","432530.376731","433297.289819","419430.541613","420197.533849","420963.072662","421730.216703","422497.015087","423264.578367","432540.326542","Mapping"
"Blocked","m160","done","20","m160lash.wav","None","721.359199611","122","431763.739425","424030.091828","424796.822194","425563.509586","426330.099897","427096.918378","427863.460149","428630.406318","432530.376731","433297.289819","434063.877966","420197.533849","420963.072662","421730.216703","422497.015087","423264.578367","433306.94066","Mapping"
"Blocked","m160","done","20","m160done.wav","None","721.778438427","122","431763.739425","424030.091828","424796.822194","425563.509586","426330.099897","427096.918378","427863.460149","428630.406318","432530.376731","433297.289819","434063.877966","434830.1455","420963.072662","421730.216703","422497.015087","423264.578367","434073.629907","Mapping"
"Blocked","m160","done","20","m160reek.wav","space","406.184020452","122","431763.739425","424030.091828","424796.822194","425563.509586","426330.099897","427096.918378","427863.460149","428630.406318","432530.376731","433297.289819","434063.877966","434830.1455","435597.261406","421730.216703","422497.015087","423264.578367","434839.734507","Mapping"
"Blocked","m160","done","20","m160park.wav","None","721.007978776","122","431763.739425","424030.091828","424796.822194","425563.509586","426330.099897","427096.918378","427863.460149","428630.406318","432530.376731","433297.289819","434063.877966","434830.1455","435597.261406","436363.675179","422497.015087","423264.578367","435607.245227","Mapping"
"Blocked","m160","done","20","m160depth.wav","None","721.915711183","122","431763.739425","424030.091828","424796.822194","425563.509586","426330.099897","427096.918378","427863.460149","428630.406318","432530.376731","433297.289819","434063.877966","434830.1455","435597.261406","436363.675179","437130.181086","423264.578367","436373.588818","Mapping"
"Blocked","m160","done","20","m160done.wav","None","721.917257179","122","431763.739425","424030.091828","424796.822194","425563.509586","426330.099897","427096.918378","427863.460149","428630.406318","432530.376731","433297.289819","434063.877966","434830.1455","435597.261406","436363.675179","437130.181086","437897.27133","437140.53375","Mapping"
"Blocked","m160","done","20","m160knife.wav","space","458.907635417","122","431763.739425","438663.679847","424796.822194","425563.509586","426330.099897","427096.918378","427863.460149","428630.406318","432530.376731","433297.289819","434063.877966","434830.1455","435597.261406","436363.675179","437130.181086","437897.27133","437906.959272","Mapping"
"Blocked","m160","done","20","m160priest.wav","None","721.312205307","122","431763.739425","438663.679847","439430.169677","425563.509586","426330.099897","427096.918378","427863.460149","428630.406318","432530.376731","433297.289819","434063.877966","434830.1455","435597.261406","436363.675179","437130.181086","437897.27133","438673.940069","Mapping"
"Blocked","m160","done","20","m160knife.wav","None","721.918493975","122","431763.739425","438663.679847","439430.169677","440197.123885","426330.099897","427096.918378","427863.460149","428630.406318","432530.376731","433297.289819","434063.877966","434830.1455","435597.261406","436363.675179","437130.181086","437897.27133","439440.324162","Mapping"
"Blocked","m160","done","20","m160done.wav","None","722.749242093","122","431763.739425","438663.679847","439430.169677","440197.123885","440963.556209","427096.918378","427863.460149","428630.406318","432530.376731","433297.289819","434063.877966","434830.1455","435597.261406","436363.675179","437130.181086","437897.27133","440206.902106","Mapping"
"Blocked","m160","done","20","m160romp.wav","space","368.087389739","122","431763.739425","438663.679847","439430.169677","440197.123885","440963.556209","441730.089942","427863.460149","428630.406318","432530.376731","433297.289819","434063.877966","434830.1455","435597.261406","436363.675179","437130.181086","437897.27133","440973.729862","Mapping"
"Blocked","m160","done","20","m160greet.wav","None","721.787095303","122","431763.739425","438663.679847","439430.169677","440197.123885","440963.556209","441730.089942","442496.949543","428630.406318","432530.376731","433297.289819","434063.877966","434830.1455","435597.261406","436363.675179","437130.181086","437897.27133","441740.583898","Mapping"
"Blocked","m160","done","20","m160romp.wav","None","723.410254577","122","431763.739425","438663.679847","439430.169677","440197.123885","440963.556209","441730.089942","442496.949543","443263.270873","432530.376731","433297.289819","434063.877966","434830.1455","435597.261406","436363.675179","437130.181086","437897.27133","442506.492792","Mapping"
"Blocked","m160","tile","16","m160romp.wav","None","724.043441238","122","446396.906351","438663.679847","439430.169677","440197.123885","440963.556209","441730.089942","442496.949543","443263.270873","432530.376731","433297.289819","434063.877966","434830.1455","435597.261406","436363.675179","437130.181086","437897.27133","443273.262114","Mapping"
"Blocked","m160","tile","16","m160done.wav","None","722.723580897","122","446396.906351","438663.679847","439430.169677","440197.123885","440963.556209","441730.089942","442496.949543","443263.270873","447163.51614","433297.289819","434063.877966","434830.1455","435597.261406","436363.675179","437130.181086","437897.27133","446406.684881","Mapping"
"Blocked","m160","tile","16","m160tile.wav","None","723.3895401","122","446396.906351","438663.679847","439430.169677","440197.123885","440963.556209","441730.089942","442496.949543","443263.270873","447163.51614","447929.598171","434063.877966","434830.1455","435597.261406","436363.675179","437130.181086","437897.27133","447173.369799","Mapping"
"Blocked","m160","tile","16","m160greet.wav","space","659.050597111","122","446396.906351","438663.679847","439430.169677","440197.123885","440963.556209","441730.089942","442496.949543","443263.270873","447163.51614","447929.598171","448696.873919","434830.1455","435597.261406","436363.675179","437130.181086","437897.27133","447938.61397","Mapping"
"Blocked","m160","tile","16","m160tile.wav","None","722.25642018","122","446396.906351","438663.679847","439430.169677","440197.123885","440963.556209","441730.089942","442496.949543","443263.270873","447163.51614","447929.598171","448696.873919","449462.732108","435597.261406","436363.675179","437130.181086","437897.27133","448707.515042","Mapping"
"Blocked","m160","tile","16","m160romp.wav","space","485.727173742","122","446396.906351","438663.679847","439430.169677","440197.123885","440963.556209","441730.089942","442496.949543","443263.270873","447163.51614","447929.598171","448696.873919","449462.732108","450229.937365","436363.675179","437130.181086","437897.27133","449471.928465","Mapping"
"Blocked","m160","tile","16","m160ball.wav","None","723.182393936","122","446396.906351","438663.679847","439430.169677","440197.123885","440963.556209","441730.089942","442496.949543","443263.270873","447163.51614","447929.598171","448696.873919","449462.732108","450229.937365","450996.955571","437130.181086","437897.27133","450239.641693","Mapping"
"Blocked","m160","tile","16","m160tile.wav","None","723.59235771","122","446396.906351","438663.679847","439430.169677","440197.123885","440963.556209","441730.089942","442496.949543","443263.270873","447163.51614","447929.598171","448696.873919","449462.732108","450229.937365","450996.955571","451762.958763","437897.27133","451006.60765","Mapping"
"Blocked","m160","tile","16","m160cling.wav","space","369.010889903","122","446396.906351","438663.679847","439430.169677","440197.123885","440963.556209","441730.089942","442496.949543","443263.270873","447163.51614","447929.598171","448696.873919","449462.732108","450229.937365","450996.955571","451762.958763","452529.543509","451772.620735","Mapping"
"Blocked","m160","tile","16","m160gnash.wav","None","728.693097131","122","446396.906351","453296.487205","439430.169677","440197.123885","440963.556209","441730.089942","442496.949543","443263.270873","447163.51614","447929.598171","448696.873919","449462.732108","450229.937365","450996.955571","451762.958763","452529.543509","452538.514788","Mapping"
"Blocked","m160","tile","16","m160lash.wav","None","728.963623522","122","446396.906351","453296.487205","454062.984764","440197.123885","440963.556209","441730.089942","442496.949543","443263.270873","447163.51614","447929.598171","448696.873919","449462.732108","450229.937365","450996.955571","451762.958763","452529.543509","453305.645843","Mapping"
"Blocked","m160","tile","16","m160dime.wav","None","729.090075474","122","446396.906351","453296.487205","454062.984764","454829.551578","440963.556209","441730.089942","442496.949543","443263.270873","447163.51614","447929.598171","448696.873919","449462.732108","450229.937365","450996.955571","451762.958763","452529.543509","454072.657866","Mapping"
"Blocked","m160","tile","16","m160jolt.wav","space","510.111973155","122","446396.906351","453296.487205","454062.984764","454829.551578","455596.446116","441730.089942","442496.949543","443263.270873","447163.51614","447929.598171","448696.873919","449462.732108","450229.937365","450996.955571","451762.958763","452529.543509","454839.431517","Mapping"
"Blocked","m160","tile","16","m160cad.wav","None","729.069669964","122","446396.906351","453296.487205","454062.984764","454829.551578","455596.446116","456363.060852","442496.949543","443263.270873","447163.51614","447929.598171","448696.873919","449462.732108","450229.937365","450996.955571","451762.958763","452529.543509","455605.878372","Mapping"
"Blocked","m160","tile","16","m160tile.wav","None","729.50900509","122","446396.906351","453296.487205","454062.984764","454829.551578","455596.446116","456363.060852","457129.164834","443263.270873","447163.51614","447929.598171","448696.873919","449462.732108","450229.937365","450996.955571","451762.958763","452529.543509","456372.722823","Mapping"
"Blocked","m160","tile","16","m160ball.wav","space","587.284077192","122","446396.906351","453296.487205","454062.984764","454829.551578","455596.446116","456363.060852","457129.164834","457896.471808","447163.51614","447929.598171","448696.873919","449462.732108","450229.937365","450996.955571","451762.958763","452529.543509","457138.271221","Mapping"
"Blocked","m160","done","19","m160cave.wav","None","729.236314539","122","461029.837687","453296.487205","454062.984764","454829.551578","455596.446116","456363.060852","457129.164834","457896.471808","447163.51614","447929.598171","448696.873919","449462.732108","450229.937365","450996.955571","451762.958763","452529.543509","457906.801285","Mapping"
"Blocked","m160","done","19","m160done.wav","None","722.387200454","122","461029.837687","453296.487205","454062.984764","454829.551578","455596.446116","456363.060852","457129.164834","457896.471808","461796.775509","447929.598171","448696.873919","449462.732108","450229.937365","450996.955571","451762.958763","452529.543509","461039.537378","Mapping"
"Blocked","m160","done","19","m160ball.wav","space","470.960752573","122","461029.837687","453296.487205","454062.984764","454829.551578","455596.446116","456363.060852","457129.164834","457896.471808","461796.775509","462563.457026","448696.873919","449462.732108","450229.937365","450996.955571","451762.958763","452529.543509","461806.417384","Mapping"
"Blocked","m160","done","19","m160jaw.wav","None","720.355623402","122","461029.837687","453296.487205","454062.984764","454829.551578","455596.446116","456363.060852","457129.164834","457896.471808","461796.775509","462563.457026","463329.859051","449462.732108","450229.937365","450996.955571","451762.958763","452529.543509","462574.591281","Mapping"
"Blocked","m160","done","19","m160done.wav","None","722.574559506","122","461029.837687","453296.487205","454062.984764","454829.551578","455596.446116","456363.060852","457129.164834","457896.471808","461796.775509","462563.457026","463329.859051","464096.560664","450229.937365","450996.955571","451762.958763","452529.543509","463339.557196","Mapping"
"Blocked","m160","done","19","m160priest.wav","space","578.714414733","122","461029.837687","453296.487205","454062.984764","454829.551578","455596.446116","456363.060852","457129.164834","457896.471808","461796.775509","462563.457026","463329.859051","464096.560664","464863.201062","450996.955571","451762.958763","452529.543509","464106.638165","Mapping"
"Blocked","m160","done","19","m160lash.wav","None","722.637630766","122","461029.837687","453296.487205","454062.984764","454829.551578","455596.446116","456363.060852","457129.164834","457896.471808","461796.775509","462563.457026","463329.859051","464096.560664","464863.201062","465629.254339","451762.958763","452529.543509","464873.059977","Mapping"
"Blocked","m160","done","19","m160done.wav","None","724.448767491","122","461029.837687","453296.487205","454062.984764","454829.551578","455596.446116","456363.060852","457129.164834","457896.471808","461796.775509","462563.457026","463329.859051","464096.560664","464863.201062","465629.254339","466396.271","452529.543509","465638.400919","Mapping"
"Blocked","m160","done","19","m160dime.wav","space","503.914287314","122","461029.837687","453296.487205","454062.984764","454829.551578","455596.446116","456363.060852","457129.164834","457896.471808","461796.775509","462563.457026","463329.859051","464096.560664","464863.201062","465629.254339","466396.271","467163.210677","466405.445406","Mapping"
"Blocked","m160","done","19","m160dime.wav","None","722.999672638","122","461029.837687","467929.31806","454062.984764","454829.551578","455596.446116","456363.060852","457129.164834","457896.471808","461796.775509","462563.457026","463329.859051","464096.560664","464863.201062","465629.254339","466396.271","467163.210677","467172.990753","Mapping"
"Blocked","m160","done","19","m160tile.wav","None","724.685593974","122","461029.837687","467929.31806","468696.213834","454829.551578","455596.446116","456363.060852","457129.164834","457896.471808","461796.775509","462563.457026","463329.859051","464096.560664","464863.201062","465629.254339","466396.271","467163.210677","467938.559247","Mapping"
"Blocked","m160","done","19","m160done.wav","None","725.19882163","122","461029.837687","467929.31806","468696.213834","469462.737364","455596.446116","456363.060852","457129.164834","457896.471808","461796.775509","462563.457026","463329.859051","464096.560664","464863.201062","465629.254339","466396.271","467163.210677","468705.409882","Mapping"
"Blocked","m160","done","19","m160cave.wav","space","604.759474052","122","461029.837687","467929.31806","468696.213834","469462.737364","470228.945846","456363.060852","457129.164834","457896.471808","461796.775509","462563.457026","463329.859051","464096.560664","464863.201062","465629.254339","466396.271","467163.210677","469472.488996","Mapping"
"Blocked","m160","done","19","m160jaw.wav","None","614.265622338","122","461029.837687","467929.31806","468696.213834","469462.737364","470228.945846","470995.92788","457129.164834","457896.471808","461796.775509","462563.457026","463329.859051","464096.560664","464863.201062","465629.254339","466396.271","467163.210677","470349.111266","Mapping"
"Blocked","m160","done","19","m160depth.wav","None","725.324654952","122","461029.837687","467929.31806","468696.213834","469462.737364","470228.945846","470995.92788","471762.550963","457896.471808","461796.775509","462563.457026","463329.859051","464096.560664","464863.201062","465629.254339","466396.271","467163.210677","471005.607165","Mapping"
"Blocked","m160","done","19","m160priest.wav","None","726.597830188","122","461029.837687","467929.31806","468696.213834","469462.737364","470228.945846","470995.92788","471762.550963","472529.689748","461796.775509","462563.457026","463329.859051","464096.560664","464863.201062","465629.254339","466396.271","467163.210677","471771.87068","Mapping"
"Blocked","m160","ball","6","m160depth.wav","None","726.629984332","122","475663.038931","467929.31806","468696.213834","469462.737364","470228.945846","470995.92788","471762.550963","472529.689748","461796.775509","462563.457026","463329.859051","464096.560664","464863.201062","465629.254339","466396.271","467163.210677","472539.104072","Mapping"
"Blocked","m160","ball","6","m160dime.wav","None","722.011245787","122","475663.038931","467929.31806","468696.213834","469462.737364","470228.945846","470995.92788","471762.550963","472529.689748","476429.504955","462563.457026","463329.859051","464096.560664","464863.201062","465629.254339","466396.271","467163.210677","475672.950097","Mapping"
"Blocked","m160","ball","6","m160ball.wav","None","721.843673848","122","475663.038931","467929.31806","468696.213834","469462.737364","470228.945846","470995.92788","471762.550963","472529.689748","476429.504955","477196.421135","463329.859051","464096.560664","464863.201062","465629.254339","466396.271","467163.210677","476440.19771","Mapping"
"Blocked","m160","ball","6","m160bluff.wav","space","647.018194431","122","475663.038931","467929.31806","468696.213834","469462.737364","470228.945846","470995.92788","471762.550963","472529.689748","476429.504955","477196.421135","477962.934771","464096.560664","464863.201062","465629.254339","466396.271","467163.210677","477206.119589","Mapping"
"Blocked","m160","ball","6","m160ball.wav","None","717.701680493","122","475663.038931","467929.31806","468696.213834","469462.737364","470228.945846","470995.92788","471762.550963","472529.689748","476429.504955","477196.421135","477962.934771","478729.243735","464863.201062","465629.254339","466396.271","467163.210677","477977.637193","Mapping"
"Blocked","m160","ball","6","m160tile.wav","space","706.756949425","122","475663.038931","467929.31806","468696.213834","469462.737364","470228.945846","470995.92788","471762.550963","472529.689748","476429.504955","477196.421135","477962.934771","478729.243735","479496.191141","465629.254339","466396.271","467163.210677","478738.380112","Mapping"
"Blocked","m160","ball","6","m160cad.wav","None","722.818187904","122","475663.038931","467929.31806","468696.213834","469462.737364","470228.945846","470995.92788","471762.550963","472529.689748","476429.504955","477196.421135","477962.934771","478729.243735","479496.191141","480262.936348","466396.271","467163.210677","479506.204952","Mapping"
"Blocked","m160","ball","6","m160priest.wav","None","723.647081293","122","475663.038931","467929.31806","468696.213834","469462.737364","470228.945846","470995.92788","471762.550963","472529.689748","476429.504955","477196.421135","477962.934771","478729.243735","479496.191141","480262.936348","481029.089179","467163.210677","480272.658917","Mapping"
"Blocked","m160","ball","6","m160cave.wav","None","725.742038805","122","475663.038931","467929.31806","468696.213834","469462.737364","470228.945846","470995.92788","471762.550963","472529.689748","476429.504955","477196.421135","477962.934771","478729.243735","479496.191141","480262.936348","481029.089179","481795.54129","481038.23143","Mapping"
"Blocked","m160","ball","6","m160bluff.wav","None","726.40274209","122","475663.038931","482562.27042","468696.213834","469462.737364","470228.945846","470995.92788","471762.550963","472529.689748","476429.504955","477196.421135","477962.934771","478729.243735","479496.191141","480262.936348","481029.089179","481795.54129","481804.871828","Mapping"
"Blocked","m160","ball","6","m160ball.wav","None","727.128062164","122","475663.038931","482562.27042","483329.036341","469462.737364","470228.945846","470995.92788","471762.550963","472529.689748","476429.504955","477196.421135","477962.934771","478729.243735","479496.191141","480262.936348","481029.089179","481795.54129","482571.368459","Mapping"
"Blocked","m160","ball","6","m160knife.wav","space","378.655239008","122","475663.038931","482562.27042","483329.036341","484095.942937","470228.945846","470995.92788","471762.550963","472529.689748","476429.504955","477196.421135","477962.934771","478729.243735","479496.191141","480262.936348","481029.089179","481795.54129","483338.38512","Mapping"
"Blocked","m160","ball","6","m160jolt.wav","None","726.699857274","122","475663.038931","482562.27042","483329.036341","484095.942937","484862.505113","470995.92788","471762.550963","472529.689748","476429.504955","477196.421135","477962.934771","478729.243735","479496.191141","480262.936348","481029.089179","481795.54129","484105.083024","Mapping"
