"Condition","Talker","Target","Trial","current_stimulus","response_response","response_time_response","subject_nr","time_Audio1","time_Audio10","time_Audio11","time_Audio12","time_Audio13","time_Audio14","time_Audio15","time_Audio16","time_Audio2","time_Audio3","time_Audio4","time_Audio5","time_Audio6","time_Audio7","time_Audio8","time_Audio9","time_response","title"
"Blocked","m160","ball","5","m160cave.wav","NA","NA","186","364267.097584","NA","NA","NA","NA","NA","NA","NA","NA","NA","NA","NA","NA","NA","NA","NA","NA","Mapping"
"Blocked","m160","ball","5","m160ball.wav","None","716.604647227","186","364267.097584","NA","NA","NA","NA","NA","NA","NA","365034.691073","NA","NA","NA","NA","NA","NA","NA","364281.817052","Mapping"
"Blocked","m160","ball","5","m160gnash.wav","space","426.225509495","186","364267.097584","NA","NA","NA","NA","NA","NA","NA","365034.691073","365784.464145","NA","NA","NA","NA","NA","NA","365043.935183","Mapping"
"Blocked","m160","ball","5","m160ball.wav","None","736.839355435","186","364267.097584","NA","NA","NA","NA","NA","NA","NA","365034.691073","365784.464145","366552.129979","NA","NA","NA","NA","NA","365793.48349","Mapping"
"Blocked","m160","ball","5","m160lash.wav","space","348.822937347","186","364267.097584","NA","NA","NA","NA","NA","NA","NA","365034.691073","365784.464145","366552.129979","367319.379055","NA","NA","NA","NA","366561.339771","Mapping"
"Blocked","m160","ball","5","m160ball.wav","None","730.200600345","186","364267.097584","NA","NA","NA","NA","NA","NA","NA","365034.691073","365784.464145","366552.129979","367319.379055","368086.78488","NA","NA","NA","367328.832163","Mapping"
"Blocked","m160","ball","5","m160reek.wav","space","309.72900847","186","364267.097584","NA","NA","NA","NA","NA","NA","NA","365034.691073","365784.464145","366552.129979","367319.379055","368086.78488","368853.79095","NA","NA","368096.337539","Mapping"
"Blocked","m160","ball","5","m160cling.wav","None","724.319305737","186","364267.097584","NA","NA","NA","NA","NA","NA","NA","365034.691073","365784.464145","366552.129979","367319.379055","368086.78488","368853.79095","369620.629143","NA","368862.95004","Mapping"
"Blocked","m160","ball","5","m160priest.wav","None","723.206920549","186","364267.097584","NA","NA","NA","NA","NA","NA","NA","365034.691073","365784.464145","366552.129979","367319.379055","368086.78488","368853.79095","369620.629143","370388.095874","369629.968168","Mapping"
"Blocked","m160","ball","5","m160done.wav","None","722.075058147","186","364267.097584","371155.368138","NA","NA","NA","NA","NA","NA","365034.691073","365784.464145","366552.129979","367319.379055","368086.78488","368853.79095","369620.629143","370388.095874","370397.43088","Mapping"
"Blocked","m160","ball","5","m160ball.wav","None","720.649177674","186","364267.097584","371155.368138","371906.131782","NA","NA","NA","NA","NA","365034.691073","365784.464145","366552.129979","367319.379055","368086.78488","368853.79095","369620.629143","370388.095874","371164.687685","Mapping"
"Blocked","m160","ball","5","m160cad.wav","space","409.939489327","186","364267.097584","371155.368138","371906.131782","372673.251317","NA","NA","NA","NA","365034.691073","365784.464145","366552.129979","367319.379055","368086.78488","368853.79095","369620.629143","370388.095874","371916.016178","Mapping"
"Blocked","m160","ball","5","m160dime.wav","None","730.451644398","186","364267.097584","371155.368138","371906.131782","372673.251317","373440.536257","NA","NA","NA","365034.691073","365784.464145","366552.129979","367319.379055","368086.78488","368853.79095","369620.629143","370388.095874","372682.965671","Mapping"
"Blocked","m160","ball","5","m160knife.wav","None","729.706859682","186","364267.097584","371155.368138","371906.131782","372673.251317","373440.536257","374207.85366","NA","NA","365034.691073","365784.464145","366552.129979","367319.379055","368086.78488","368853.79095","369620.629143","370388.095874","373450.028938","Mapping"
"Blocked","m160","ball","5","m160knife.wav","None","727.916161064","186","364267.097584","371155.368138","371906.131782","372673.251317","373440.536257","374207.85366","374974.794496","NA","365034.691073","365784.464145","366552.129979","367319.379055","368086.78488","368853.79095","369620.629143","370388.095874","374217.536479","Mapping"
"Blocked","m160","ball","5","m160jolt.wav","None","724.289007485","186","364267.097584","371155.368138","371906.131782","372673.251317","373440.536257","374207.85366","374974.794496","375741.92949","365034.691073","365784.464145","366552.129979","367319.379055","368086.78488","368853.79095","369620.629143","370388.095874","374983.777669","Mapping"
"Blocked","m160","done","24","m160cave.wav","None","722.911047749","186","378877.798739","371155.368138","371906.131782","372673.251317","373440.536257","374207.85366","374974.794496","375741.92949","365034.691073","365784.464145","366552.129979","367319.379055","368086.78488","368853.79095","369620.629143","370388.095874","375751.08425","Mapping"
"Blocked","m160","done","24","m160done.wav","None","735.740264878","186","378877.798739","371155.368138","371906.131782","372673.251317","373440.536257","374207.85366","374974.794496","375741.92949","379644.962795","365784.464145","366552.129979","367319.379055","368086.78488","368853.79095","369620.629143","370388.095874","378887.18754","Mapping"
"Blocked","m160","done","24","m160bluff.wav","space","407.299198676","186","378877.798739","371155.368138","371906.131782","372673.251317","373440.536257","374207.85366","374974.794496","375741.92949","379644.962795","380411.983706","366552.129979","367319.379055","368086.78488","368853.79095","369620.629143","370388.095874","379654.395497","Mapping"
"Blocked","m160","done","24","m160greet.wav","None","729.56587933","186","378877.798739","371155.368138","371906.131782","372673.251317","373440.536257","374207.85366","374974.794496","375741.92949","379644.962795","380411.983706","381180.251798","367319.379055","368086.78488","368853.79095","369620.629143","370388.095874","380421.828837","Mapping"
"Blocked","m160","done","24","m160done.wav","None","728.50481607","186","378877.798739","371155.368138","371906.131782","372673.251317","373440.536257","374207.85366","374974.794496","375741.92949","379644.962795","380411.983706","381180.251798","381946.773713","368086.78488","368853.79095","369620.629143","370388.095874","381189.712944","Mapping"
"Blocked","m160","done","24","m160lash.wav","space","505.296967924","186","378877.798739","371155.368138","371906.131782","372673.251317","373440.536257","374207.85366","374974.794496","375741.92949","379644.962795","380411.983706","381180.251798","381946.773713","382697.808806","368853.79095","369620.629143","370388.095874","381956.260828","Mapping"
"Blocked","m160","done","24","m160cling.wav","None","734.986514319","186","378877.798739","371155.368138","371906.131782","372673.251317","373440.536257","374207.85366","374974.794496","375741.92949","379644.962795","380411.983706","381180.251798","381946.773713","382697.808806","383464.573726","369620.629143","370388.095874","382707.891996","Mapping"
"Blocked","m160","done","24","m160done.wav","None","731.600201689","186","378877.798739","371155.368138","371906.131782","372673.251317","373440.536257","374207.85366","374974.794496","375741.92949","379644.962795","380411.983706","381180.251798","381946.773713","382697.808806","383464.573726","384231.594637","370388.095874","383473.871631","Mapping"
"Blocked","m160","done","24","m160reek.wav","space","340.419762768","186","378877.798739","371155.368138","371906.131782","372673.251317","373440.536257","374207.85366","374974.794496","375741.92949","379644.962795","380411.983706","381180.251798","381946.773713","382697.808806","383464.573726","384231.594637","384998.857626","384241.057638","Mapping"
"Blocked","m160","done","24","m160cling.wav","None","722.8065487","186","378877.798739","385749.439479","371906.131782","372673.251317","373440.536257","374207.85366","374974.794496","375741.92949","379644.962795","380411.983706","381180.251798","381946.773713","382697.808806","383464.573726","384231.594637","384998.857626","385008.278271","Mapping"
"Blocked","m160","done","24","m160tile.wav","None","734.616749454","186","378877.798739","385749.439479","386516.707415","372673.251317","373440.536257","374207.85366","374974.794496","375741.92949","379644.962795","380411.983706","381180.251798","381946.773713","382697.808806","383464.573726","384231.594637","384998.857626","385758.981009","Mapping"
"Blocked","m160","done","24","m160jolt.wav","None","733.063182794","186","378877.798739","385749.439479","386516.707415","387284.000702","373440.536257","374207.85366","374974.794496","375741.92949","379644.962795","380411.983706","381180.251798","381946.773713","382697.808806","383464.573726","384231.594637","384998.857626","386526.495351","Mapping"
"Blocked","m160","done","24","m160greet.wav","None","729.552585166","186","378877.798739","385749.439479","386516.707415","387284.000702","388051.406218","374207.85366","374974.794496","375741.92949","379644.962795","380411.983706","381180.251798","381946.773713","382697.808806","383464.573726","384231.594637","384998.857626","387293.022521","Mapping"
"Blocked","m160","done","24","m160romp.wav","None","724.740392063","186","378877.798739","385749.439479","386516.707415","387284.000702","388051.406218","388818.440732","374974.794496","375741.92949","379644.962795","380411.983706","381180.251798","381946.773713","382697.808806","383464.573726","384231.594637","384998.857626","388060.96506","Mapping"
"Blocked","m160","done","24","m160done.wav","None","723.465075716","186","378877.798739","385749.439479","386516.707415","387284.000702","388051.406218","388818.440732","389568.930453","375741.92949","379644.962795","380411.983706","381180.251798","381946.773713","382697.808806","383464.573726","384231.594637","384998.857626","388828.117058","Mapping"
"Blocked","m160","done","24","m160cling.wav","space","539.187916089","186","378877.798739","385749.439479","386516.707415","387284.000702","388051.406218","388818.440732","389568.930453","390336.002686","379644.962795","380411.983706","381180.251798","381946.773713","382697.808806","383464.573726","384231.594637","384998.857626","389578.110875","Mapping"
"Blocked","m160","done","21","m160gnash.wav","None","731.489828788","186","393455.134531","385749.439479","386516.707415","387284.000702","388051.406218","388818.440732","389568.930453","390336.002686","379644.962795","380411.983706","381180.251798","381946.773713","382697.808806","383464.573726","384231.594637","384998.857626","390345.589045","Mapping"
"Blocked","m160","done","21","m160done.wav","None","736.286872532","186","393455.134531","385749.439479","386516.707415","387284.000702","388051.406218","388818.440732","389568.930453","390336.002686","394222.363821","380411.983706","381180.251798","381946.773713","382697.808806","383464.573726","384231.594637","384998.857626","393464.572798","Mapping"
"Blocked","m160","done","21","m160gnash.wav","space","477.319467813","186","393455.134531","385749.439479","386516.707415","387284.000702","388051.406218","388818.440732","389568.930453","390336.002686","394222.363821","394989.544262","381180.251798","381946.773713","382697.808806","383464.573726","384231.594637","384998.857626","394231.744892","Mapping"
"Blocked","m160","done","21","m160done.wav","None","727.138913702","186","393455.134531","385749.439479","386516.707415","387284.000702","388051.406218","388818.440732","389568.930453","390336.002686","394222.363821","394989.544262","395756.728414","381946.773713","382697.808806","383464.573726","384231.594637","384998.857626","394999.192145","Mapping"
"Blocked","m160","done","21","m160greet.wav","space","327.540460508","186","393455.134531","385749.439479","386516.707415","387284.000702","388051.406218","388818.440732","389568.930453","390336.002686","394222.363821","394989.544262","395756.728414","396507.614797","382697.808806","383464.573726","384231.594637","384998.857626","395765.568442","Mapping"
"Blocked","m160","done","21","m160knife.wav","None","734.407134354","186","393455.134531","385749.439479","386516.707415","387284.000702","388051.406218","388818.440732","389568.930453","390336.002686","394222.363821","394989.544262","395756.728414","396507.614797","397274.42671","383464.573726","384231.594637","384998.857626","396517.07316","Mapping"
"Blocked","m160","done","21","m160gnash.wav","None","731.727269478","186","393455.134531","385749.439479","386516.707415","387284.000702","388051.406218","388818.440732","389568.930453","390336.002686","394222.363821","394989.544262","395756.728414","396507.614797","397274.42671","398041.605915","384231.594637","384998.857626","397283.766354","Mapping"
"Blocked","m160","done","21","m160romp.wav","None","726.802230347","186","393455.134531","385749.439479","386516.707415","387284.000702","388051.406218","388818.440732","389568.930453","390336.002686","394222.363821","394989.544262","395756.728414","396507.614797","397274.42671","398041.605915","398809.110982","384998.857626","398051.297391","Mapping"
"Blocked","m160","done","21","m160romp.wav","None","722.220985685","186","393455.134531","385749.439479","386516.707415","387284.000702","388051.406218","388818.440732","389568.930453","390336.002686","394222.363821","394989.544262","395756.728414","396507.614797","397274.42671","398041.605915","398809.110982","399559.515683","398818.5307","Mapping"
"Blocked","m160","done","21","m160tile.wav","None","735.371118877","186","393455.134531","400326.416636","386516.707415","387284.000702","388051.406218","388818.440732","389568.930453","390336.002686","394222.363821","394989.544262","395756.728414","396507.614797","397274.42671","398041.605915","398809.110982","399559.515683","399568.632725","Mapping"
"Blocked","m160","done","21","m160knife.wav","None","731.369253714","186","393455.134531","400326.416636","401094.005179","387284.000702","388051.406218","388818.440732","389568.930453","390336.002686","394222.363821","394989.544262","395756.728414","396507.614797","397274.42671","398041.605915","398809.110982","399559.515683","400335.828625","Mapping"
"Blocked","m160","done","21","m160park.wav","None","726.52799869","186","393455.134531","400326.416636","401094.005179","401861.177582","388051.406218","388818.440732","389568.930453","390336.002686","394222.363821","394989.544262","395756.728414","396507.614797","397274.42671","398041.605915","398809.110982","399559.515683","401103.488585","Mapping"
"Blocked","m160","done","21","m160done.wav","None","725.333993789","186","393455.134531","400326.416636","401094.005179","401861.177582","402628.038344","388818.440732","389568.930453","390336.002686","394222.363821","394989.544262","395756.728414","396507.614797","397274.42671","398041.605915","398809.110982","399559.515683","401870.601937","Mapping"
"Blocked","m160","done","21","m160bluff.wav","space","455.617759842","186","393455.134531","400326.416636","401094.005179","401861.177582","402628.038344","403378.866913","389568.930453","390336.002686","394222.363821","394989.544262","395756.728414","396507.614797","397274.42671","398041.605915","398809.110982","399559.515683","402637.208872","Mapping"
"Blocked","m160","done","21","m160done.wav","None","732.475764584","186","393455.134531","400326.416636","401094.005179","401861.177582","402628.038344","403378.866913","404146.134231","390336.002686","394222.363821","394989.544262","395756.728414","396507.614797","397274.42671","398041.605915","398809.110982","399559.515683","403388.343208","Mapping"
"Blocked","m160","done","21","m160lash.wav","None","728.32271643","186","393455.134531","400326.416636","401094.005179","401861.177582","402628.038344","403378.866913","404146.134231","404913.357028","394222.363821","394989.544262","395756.728414","396507.614797","397274.42671","398041.605915","398809.110982","399559.515683","404155.979981","Mapping"
"Blocked","m160","done","20","m160priest.wav","space","0.0346270389855","186","408015.354807","400326.416636","401094.005179","401861.177582","402628.038344","403378.866913","404146.134231","404913.357028","394222.363821","394989.544262","395756.728414","396507.614797","397274.42671","398041.605915","398809.110982","399559.515683","404922.701308","Mapping"
"Blocked","m160","done","20","m160cave.wav","None","736.091169529","186","408015.354807","400326.416636","401094.005179","401861.177582","402628.038344","403378.866913","404146.134231","404913.357028","408783.04352","394989.544262","395756.728414","396507.614797","397274.42671","398041.605915","398809.110982","399559.515683","408024.351892","Mapping"
"Blocked","m160","done","20","m160ball.wav","None","730.528627057","186","408015.354807","400326.416636","401094.005179","401861.177582","402628.038344","403378.866913","404146.134231","404913.357028","408783.04352","409549.957149","395756.728414","396507.614797","397274.42671","398041.605915","398809.110982","399559.515683","408792.463855","Mapping"
"Blocked","m160","done","20","m160depth.wav","None","726.417935453","186","408015.354807","400326.416636","401094.005179","401861.177582","402628.038344","403378.866913","404146.134231","404913.357028","408783.04352","409549.957149","410317.211173","396507.614797","397274.42671","398041.605915","398809.110982","399559.515683","409559.23434","Mapping"
"Blocked","m160","done","20","m160cave.wav","None","725.905644707","186","408015.354807","400326.416636","401094.005179","401861.177582","402628.038344","403378.866913","404146.134231","404913.357028","408783.04352","409549.957149","410317.211173","411083.916733","397274.42671","398041.605915","398809.110982","399559.515683","410326.693342","Mapping"
"Blocked","m160","done","20","m160done.wav","None","726.292413194","186","408015.354807","400326.416636","401094.005179","401861.177582","402628.038344","403378.866913","404146.134231","404913.357028","408783.04352","409549.957149","410317.211173","411083.916733","411851.588441","398041.605915","398809.110982","399559.515683","411092.75676","Mapping"
"Blocked","m160","done","20","m160greet.wav","space","464.118631557","186","408015.354807","400326.416636","401094.005179","401861.177582","402628.038344","403378.866913","404146.134231","404913.357028","408783.04352","409549.957149","410317.211173","411083.916733","411851.588441","412602.115571","398809.110982","399559.515683","411860.360143","Mapping"
"Blocked","m160","done","20","m160done.wav","None","733.220858034","186","408015.354807","400326.416636","401094.005179","401861.177582","402628.038344","403378.866913","404146.134231","404913.357028","408783.04352","409549.957149","410317.211173","411083.916733","411851.588441","412602.115571","413369.339606","399559.515683","412610.786794","Mapping"
"Blocked","m160","done","20","m160lash.wav","space","514.051974751","186","408015.354807","400326.416636","401094.005179","401861.177582","402628.038344","403378.866913","404146.134231","404913.357028","408783.04352","409549.957149","410317.211173","411083.916733","411851.588441","412602.115571","413369.339606","414137.029864","413378.36297","Mapping"
"Blocked","m160","done","20","m160done.wav","None","723.04244386","186","408015.354807","414887.037593","401094.005179","401861.177582","402628.038344","403378.866913","404146.134231","404913.357028","408783.04352","409549.957149","410317.211173","411083.916733","411851.588441","412602.115571","413369.339606","414137.029864","414146.583451","Mapping"
"Blocked","m160","done","20","m160park.wav","space","339.560586493","186","408015.354807","414887.037593","415654.58007","401861.177582","402628.038344","403378.866913","404146.134231","404913.357028","408783.04352","409549.957149","410317.211173","411083.916733","411851.588441","412602.115571","413369.339606","414137.029864","414896.824292","Mapping"
"Blocked","m160","done","20","m160done.wav","None","730.86098209","186","408015.354807","414887.037593","415654.58007","416421.759893","402628.038344","403378.866913","404146.134231","404913.357028","408783.04352","409549.957149","410317.211173","411083.916733","411851.588441","412602.115571","413369.339606","414137.029864","415663.936408","Mapping"
"Blocked","m160","done","20","m160bluff.wav","space","301.274512429","186","408015.354807","414887.037593","415654.58007","416421.759893","417188.795644","403378.866913","404146.134231","404913.357028","408783.04352","409549.957149","410317.211173","411083.916733","411851.588441","412602.115571","413369.339606","414137.029864","416431.084077","Mapping"
"Blocked","m160","done","20","m160reek.wav","None","723.023893777","186","408015.354807","414887.037593","415654.58007","416421.759893","417188.795644","417940.201738","404146.134231","404913.357028","408783.04352","409549.957149","410317.211173","411083.916733","411851.588441","412602.115571","413369.339606","414137.029864","417198.050884","Mapping"
"Blocked","m160","done","20","m160lash.wav","None","734.103531577","186","408015.354807","414887.037593","415654.58007","416421.759893","417188.795644","417940.201738","418706.834334","404913.357028","408783.04352","409549.957149","410317.211173","411083.916733","411851.588441","412602.115571","413369.339606","414137.029864","417949.765836","Mapping"
"Blocked","m160","done","20","m160ball.wav","None","730.574693065","186","408015.354807","414887.037593","415654.58007","416421.759893","417188.795644","417940.201738","418706.834334","419474.307866","408783.04352","409549.957149","410317.211173","411083.916733","411851.588441","412602.115571","413369.339606","414137.029864","418716.001462","Mapping"
"Blocked","m160","ball","1","m160cling.wav","None","725.47992086","186","422576.11458","414887.037593","415654.58007","416421.759893","417188.795644","417940.201738","418706.834334","419474.307866","408783.04352","409549.957149","410317.211173","411083.916733","411851.588441","412602.115571","413369.339606","414137.029864","419483.925451","Mapping"
"Blocked","m160","ball","1","m160tile.wav","None","735.265073832","186","422576.11458","414887.037593","415654.58007","416421.759893","417188.795644","417940.201738","418706.834334","419474.307866","423343.110139","409549.957149","410317.211173","411083.916733","411851.588441","412602.115571","413369.339606","414137.029864","422585.734329","Mapping"
"Blocked","m160","ball","1","m160bluff.wav","None","731.430159882","186","422576.11458","414887.037593","415654.58007","416421.759893","417188.795644","417940.201738","418706.834334","419474.307866","423343.110139","424110.507925","410317.211173","411083.916733","411851.588441","412602.115571","413369.339606","414137.029864","423352.408972","Mapping"
"Blocked","m160","ball","1","m160ball.wav","None","727.938111871","186","422576.11458","414887.037593","415654.58007","416421.759893","417188.795644","417940.201738","418706.834334","419474.307866","423343.110139","424110.507925","424878.086574","411083.916733","411851.588441","412602.115571","413369.339606","414137.029864","424119.552931","Mapping"
"Blocked","m160","ball","1","m160cad.wav","space","340.37215123","186","422576.11458","414887.037593","415654.58007","416421.759893","417188.795644","417940.201738","418706.834334","419474.307866","423343.110139","424110.507925","424878.086574","425628.273621","411851.588441","412602.115571","413369.339606","414137.029864","424887.67757","Mapping"
"Blocked","m160","ball","1","m160done.wav","None","734.961162321","186","422576.11458","414887.037593","415654.58007","416421.759893","417188.795644","417940.201738","418706.834334","419474.307866","423343.110139","424110.507925","424878.086574","425628.273621","426395.606481","412602.115571","413369.339606","414137.029864","425637.97839","Mapping"
"Blocked","m160","ball","1","m160ball.wav","None","730.805950239","186","422576.11458","414887.037593","415654.58007","416421.759893","417188.795644","417940.201738","418706.834334","419474.307866","423343.110139","424110.507925","424878.086574","425628.273621","426395.606481","427162.964076","413369.339606","414137.029864","426404.792159","Mapping"
"Blocked","m160","ball","1","m160done.wav","None","726.973818149","186","422576.11458","414887.037593","415654.58007","416421.759893","417188.795644","417940.201738","418706.834334","419474.307866","423343.110139","424110.507925","424878.086574","425628.273621","426395.606481","427162.964076","427930.304975","414137.029864","427172.28826","Mapping"
"Blocked","m160","ball","1","m160knife.wav","space","272.304275073","186","422576.11458","414887.037593","415654.58007","416421.759893","417188.795644","417940.201738","418706.834334","419474.307866","423343.110139","424110.507925","424878.086574","425628.273621","426395.606481","427162.964076","427930.304975","428680.495732","427939.614629","Mapping"
"Blocked","m160","ball","1","m160ball.wav","None","734.657868743","186","422576.11458","429447.760575","415654.58007","416421.759893","417188.795644","417940.201738","418706.834334","419474.307866","423343.110139","424110.507925","424878.086574","425628.273621","426395.606481","427162.964076","427930.304975","428680.495732","428689.608445","Mapping"
"Blocked","m160","ball","1","m160done.wav","space","466.658133548","186","422576.11458","429447.760575","430215.14414","416421.759893","417188.795644","417940.201738","418706.834334","419474.307866","423343.110139","424110.507925","424878.086574","425628.273621","426395.606481","427162.964076","427930.304975","428680.495732","429457.198224","Mapping"
"Blocked","m160","ball","1","m160depth.wav","None","724.874880165","186","422576.11458","429447.760575","430215.14414","430982.23585","417188.795644","417940.201738","418706.834334","419474.307866","423343.110139","424110.507925","424878.086574","425628.273621","426395.606481","427162.964076","427930.304975","428680.495732","430224.54036","Mapping"
"Blocked","m160","ball","1","m160ball.wav","None","726.844277233","186","422576.11458","429447.760575","430215.14414","430982.23585","431732.851403","417940.201738","418706.834334","419474.307866","423343.110139","424110.507925","424878.086574","425628.273621","426395.606481","427162.964076","427930.304975","428680.495732","430986.686317","Mapping"
"Blocked","m160","ball","1","m160reek.wav","space","365.323518869","186","422576.11458","429447.760575","430215.14414","430982.23585","431732.851403","432500.06678","418706.834334","419474.307866","423343.110139","424110.507925","424878.086574","425628.273621","426395.606481","427162.964076","427930.304975","428680.495732","431742.485373","Mapping"
"Blocked","m160","ball","1","m160greet.wav","None","729.142319877","186","422576.11458","429447.760575","430215.14414","430982.23585","431732.851403","432500.06678","433267.350174","419474.307866","423343.110139","424110.507925","424878.086574","425628.273621","426395.606481","427162.964076","427930.304975","428680.495732","432509.794737","Mapping"
"Blocked","m160","ball","1","m160reek.wav","None","725.475592539","186","422576.11458","429447.760575","430215.14414","430982.23585","431732.851403","432500.06678","433267.350174","434034.634187","423343.110139","424110.507925","424878.086574","425628.273621","426395.606481","427162.964076","427930.304975","428680.495732","433276.417749","Mapping"
"Blocked","m160","done","19","m160dime.wav","None","721.564622596","186","437136.619908","429447.760575","430215.14414","430982.23585","431732.851403","432500.06678","433267.350174","434034.634187","423343.110139","424110.507925","424878.086574","425628.273621","426395.606481","427162.964076","427930.304975","428680.495732","434043.988051","Mapping"
"Blocked","m160","done","19","m160dime.wav","None","735.716149677","186","437136.619908","429447.760575","430215.14414","430982.23585","431732.851403","432500.06678","433267.350174","434034.634187","437904.118483","424110.507925","424878.086574","425628.273621","426395.606481","427162.964076","427930.304975","428680.495732","437145.971918","Mapping"
"Blocked","m160","done","19","m160park.wav","None","731.433251407","186","437136.619908","429447.760575","430215.14414","430982.23585","431732.851403","432500.06678","433267.350174","434034.634187","437904.118483","438671.216067","424878.086574","425628.273621","426395.606481","427162.964076","427930.304975","428680.495732","437913.16689","Mapping"
"Blocked","m160","done","19","m160ball.wav","None","727.536194026","186","437136.619908","429447.760575","430215.14414","430982.23585","431732.851403","432500.06678","433267.350174","434034.634187","437904.118483","438671.216067","439438.656827","425628.273621","426395.606481","427162.964076","427930.304975","428680.495732","438680.327854","Mapping"
"Blocked","m160","done","19","m160tile.wav","None","722.046924289","186","437136.619908","429447.760575","430215.14414","430982.23585","431732.851403","432500.06678","433267.350174","434034.634187","437904.118483","438671.216067","439438.656827","440189.512603","426395.606481","427162.964076","427930.304975","428680.495732","439448.689315","Mapping"
"Blocked","m160","done","19","m160greet.wav","None","735.253325664","186","437136.619908","429447.760575","430215.14414","430982.23585","431732.851403","432500.06678","433267.350174","434034.634187","437904.118483","438671.216067","439438.656827","440189.512603","440956.119848","427162.964076","427930.304975","428680.495732","440198.387877","Mapping"
"Blocked","m160","done","19","m160greet.wav","None","731.631736737","186","437136.619908","429447.760575","430215.14414","430982.23585","431732.851403","432500.06678","433267.350174","434034.634187","437904.118483","438671.216067","439438.656827","440189.512603","440956.119848","441723.354394","427930.304975","428680.495732","440965.695077","Mapping"
"Blocked","m160","done","19","m160done.wav","None","727.91739786","186","437136.619908","429447.760575","430215.14414","430982.23585","431732.851403","432500.06678","433267.350174","434034.634187","437904.118483","438671.216067","439438.656827","440189.512603","440956.119848","441723.354394","442490.680762","428680.495732","441732.269549","Mapping"
"Blocked","m160","done","19","m160cling.wav","space","447.529009078","186","437136.619908","429447.760575","430215.14414","430982.23585","431732.851403","432500.06678","433267.350174","434034.634187","437904.118483","438671.216067","439438.656827","440189.512603","440956.119848","441723.354394","442490.680762","443240.996422","442499.857474","Mapping"
"Blocked","m160","done","19","m160done.wav","None","735.646277666","186","437136.619908","444008.48634","430215.14414","430982.23585","431732.851403","432500.06678","433267.350174","434034.634187","437904.118483","438671.216067","439438.656827","440189.512603","440956.119848","441723.354394","442490.680762","443240.996422","443249.98887","Mapping"
"Blocked","m160","done","19","m160lash.wav","space","457.184930332","186","437136.619908","444008.48634","444775.650396","430982.23585","431732.851403","432500.06678","433267.350174","434034.634187","437904.118483","438671.216067","439438.656827","440189.512603","440956.119848","441723.354394","442490.680762","443240.996422","444018.155865","Mapping"
"Blocked","m160","done","19","m160done.wav","None","726.950321812","186","437136.619908","444008.48634","444775.650396","445542.828673","431732.851403","432500.06678","433267.350174","434034.634187","437904.118483","438671.216067","439438.656827","440189.512603","440956.119848","441723.354394","442490.680762","443240.996422","444784.997459","Mapping"
"Blocked","m160","done","19","m160ball.wav","space","323.375973385","186","437136.619908","444008.48634","444775.650396","445542.828673","446293.20122","432500.06678","433267.350174","434034.634187","437904.118483","438671.216067","439438.656827","440189.512603","440956.119848","441723.354394","442490.680762","443240.996422","445551.908924","Mapping"
"Blocked","m160","done","19","m160dime.wav","None","740.378705319","186","437136.619908","444008.48634","444775.650396","445542.828673","446293.20122","447060.594059","433267.350174","434034.634187","437904.118483","438671.216067","439438.656827","440189.512603","440956.119848","441723.354394","442490.680762","443240.996422","446296.905356","Mapping"
"Blocked","m160","done","19","m160done.wav","space","365.372986067","186","437136.619908","444008.48634","444775.650396","445542.828673","446293.20122","447060.594059","447827.672475","434034.634187","437904.118483","438671.216067","439438.656827","440189.512603","440956.119848","441723.354394","442490.680762","443240.996422","447069.871868","Mapping"
"Blocked","m160","done","19","m160gnash.wav","None","726.454416756","186","437136.619908","444008.48634","444775.650396","445542.828673","446293.20122","447060.594059","447827.672475","448595.358097","437904.118483","438671.216067","439438.656827","440189.512603","440956.119848","441723.354394","442490.680762","443240.996422","447836.896489","Mapping"
"Blocked","m160","done","22","m160dime.wav","space","117.746774573","186","451697.405033","444008.48634","444775.650396","445542.828673","446293.20122","447060.594059","447827.672475","448595.358097","437904.118483","438671.216067","439438.656827","440189.512603","440956.119848","441723.354394","442490.680762","443240.996422","448605.4552","Mapping"
"Blocked","m160","done","22","m160jaw.wav","None","735.252089333","186","451697.405033","444008.48634","444775.650396","445542.828673","446293.20122","447060.594059","447827.672475","448595.358097","452464.396573","438671.216067","439438.656827","440189.512603","440956.119848","441723.354394","442490.680762","443240.996422","451706.736946","Mapping"
"Blocked","m160","done","22","m160gnash.wav","None","734.600055031","186","451697.405033","444008.48634","444775.650396","445542.828673","446293.20122","447060.594059","447827.672475","448595.358097","452464.396573","453231.624626","439438.656827","440189.512603","440956.119848","441723.354394","442490.680762","443240.996422","452473.732505","Mapping"
"Blocked","m160","done","22","m160jolt.wav","None","729.999023024","186","451697.405033","444008.48634","444775.650396","445542.828673","446293.20122","447060.594059","447827.672475","448595.358097","452464.396573","453231.624626","453999.020557","440189.512603","440956.119848","441723.354394","442490.680762","443240.996422","453241.337434","Mapping"
"Blocked","m160","done","22","m160bluff.wav","None","726.326731034","186","451697.405033","444008.48634","444775.650396","445542.828673","446293.20122","447060.594059","447827.672475","448595.358097","452464.396573","453231.624626","453999.020557","454766.32281","440956.119848","441723.354394","442490.680762","443240.996422","454008.776958","Mapping"
"Blocked","m160","done","22","m160done.wav","None","722.855706234","186","451697.405033","444008.48634","444775.650396","445542.828673","446293.20122","447060.594059","447827.672475","448595.358097","452464.396573","453231.624626","453999.020557","454766.32281","455516.620848","441723.354394","442490.680762","443240.996422","454775.616387","Mapping"
"Blocked","m160","done","22","m160greet.wav","space","548.763144296","186","451697.405033","444008.48634","444775.650396","445542.828673","446293.20122","447060.594059","447827.672475","448595.358097","452464.396573","453231.624626","453999.020557","454766.32281","455516.620848","456284.06099","442490.680762","443240.996422","455526.159286","Mapping"
"Blocked","m160","done","22","m160done.wav","None","730.659096036","186","451697.405033","444008.48634","444775.650396","445542.828673","446293.20122","447060.594059","447827.672475","448595.358097","452464.396573","453231.624626","453999.020557","454766.32281","455516.620848","456284.06099","457051.122093","443240.996422","456293.104141","Mapping"
"Blocked","m160","done","22","m160priest.wav","space","374.785592314","186","451697.405033","444008.48634","444775.650396","445542.828673","446293.20122","447060.594059","447827.672475","448595.358097","452464.396573","453231.624626","453999.020557","454766.32281","455516.620848","456284.06099","457051.122093","457818.470721","457060.090425","Mapping"
"Blocked","m160","done","22","m160done.wav","None","721.712404862","186","451697.405033","458568.87604","444775.650396","445542.828673","446293.20122","447060.594059","447827.672475","448595.358097","452464.396573","453231.624626","453999.020557","454766.32281","455516.620848","456284.06099","457051.122093","457818.470721","457827.790268","Mapping"
"Blocked","m160","done","22","m160park.wav","space","400.578514673","186","451697.405033","458568.87604","459336.13501","445542.828673","446293.20122","447060.594059","447827.672475","448595.358097","452464.396573","453231.624626","453999.020557","454766.32281","455516.620848","456284.06099","457051.122093","457818.470721","458578.247527","Mapping"
"Blocked","m160","done","22","m160done.wav","None","729.667595122","186","451697.405033","458568.87604","459336.13501","460103.373884","446293.20122","447060.594059","447827.672475","448595.358097","452464.396573","453231.624626","453999.020557","454766.32281","455516.620848","456284.06099","457051.122093","457818.470721","459345.540505","Mapping"
"Blocked","m160","done","22","m160jolt.wav","space","353.952954523","186","451697.405033","458568.87604","459336.13501","460103.373884","460870.766723","447060.594059","447827.672475","448595.358097","452464.396573","453231.624626","453999.020557","454766.32281","455516.620848","456284.06099","457051.122093","457818.470721","460112.776906","Mapping"
"Blocked","m160","done","22","m160tile.wav","None","721.669740044","186","451697.405033","458568.87604","459336.13501","460103.373884","460870.766723","461621.314877","447827.672475","448595.358097","452464.396573","453231.624626","453999.020557","454766.32281","455516.620848","456284.06099","457051.122093","457818.470721","460879.887475","Mapping"
"Blocked","m160","done","22","m160gnash.wav","None","733.919576742","186","451697.405033","458568.87604","459336.13501","460103.373884","460870.766723","461621.314877","462388.780371","448595.358097","452464.396573","453231.624626","453999.020557","454766.32281","455516.620848","456284.06099","457051.122093","457818.470721","461630.614637","Mapping"
"Blocked","m160","done","22","m160knife.wav","None","729.517339729","186","451697.405033","458568.87604","459336.13501","460103.373884","460870.766723","461621.314877","462388.780371","463155.543436","452464.396573","453231.624626","453999.020557","454766.32281","455516.620848","456284.06099","457051.122093","457818.470721","462398.252647","Mapping"
"Blocked","m160","ball","2","m160priest.wav","None","725.882766303","186","466257.82534","458568.87604","459336.13501","460103.373884","460870.766723","461621.314877","462388.780371","463155.543436","452464.396573","453231.624626","453999.020557","454766.32281","455516.620848","456284.06099","457051.122093","457818.470721","463164.955115","Mapping"
"Blocked","m160","ball","2","m160greet.wav","None","735.306811519","186","466257.82534","458568.87604","459336.13501","460103.373884","460870.766723","461621.314877","462388.780371","463155.543436","467025.060504","453231.624626","453999.020557","454766.32281","455516.620848","456284.06099","457051.122093","457818.470721","466267.137467","Mapping"
"Blocked","m160","ball","2","m160jolt.wav","None","731.150053907","186","466257.82534","458568.87604","459336.13501","460103.373884","460870.766723","461621.314877","462388.780371","463155.543436","467025.060504","467792.241254","453999.020557","454766.32281","455516.620848","456284.06099","457051.122093","457818.470721","467034.363974","Mapping"
"Blocked","m160","ball","2","m160lash.wav","None","728.30633074","186","466257.82534","458568.87604","459336.13501","460103.373884","460870.766723","461621.314877","462388.780371","463155.543436","467025.060504","467792.241254","468559.685106","454766.32281","455516.620848","456284.06099","457051.122093","457818.470721","467801.117146","Mapping"
"Blocked","m160","ball","2","m160gnash.wav","None","723.338007927","186","466257.82534","458568.87604","459336.13501","460103.373884","460870.766723","461621.314877","462388.780371","463155.543436","467025.060504","467792.241254","468559.685106","469309.729627","455516.620848","456284.06099","457051.122093","457818.470721","468569.06927","Mapping"
"Blocked","m160","ball","2","m160greet.wav","None","736.62448395","186","466257.82534","458568.87604","459336.13501","460103.373884","460870.766723","461621.314877","462388.780371","463155.543436","467025.060504","467792.241254","468559.685106","469309.729627","470077.727816","456284.06099","457051.122093","457818.470721","469319.060613","Mapping"
"Blocked","m160","ball","2","m160ball.wav","None","731.295362581","186","466257.82534","458568.87604","459336.13501","460103.373884","460870.766723","461621.314877","462388.780371","463155.543436","467025.060504","467792.241254","468559.685106","469309.729627","470077.727816","470844.597544","457051.122093","457818.470721","470087.454846","Mapping"
"Blocked","m160","ball","2","m160gnash.wav","space","500.219509006","186","466257.82534","458568.87604","459336.13501","460103.373884","460870.766723","461621.314877","462388.780371","463155.543436","467025.060504","467792.241254","468559.685106","469309.729627","470077.727816","470844.597544","471611.68338","457818.470721","470854.143092","Mapping"
"Blocked","m160","ball","2","m160bluff.wav","None","724.491511937","186","466257.82534","458568.87604","459336.13501","460103.373884","460870.766723","461621.314877","462388.780371","463155.543436","467025.060504","467792.241254","468559.685106","469309.729627","470077.727816","470844.597544","471611.68338","472378.774163","471620.904303","Mapping"
"Blocked","m160","ball","2","m160cling.wav","None","720.723996405","186","466257.82534","473129.555429","459336.13501","460103.373884","460870.766723","461621.314877","462388.780371","463155.543436","467025.060504","467792.241254","468559.685106","469309.729627","470077.727816","470844.597544","471611.68338","472378.774163","472387.928305","Mapping"
"Blocked","m160","ball","2","m160ball.wav","None","733.413469512","186","466257.82534","473129.555429","473896.857373","460103.373884","460870.766723","461621.314877","462388.780371","463155.543436","467025.060504","467792.241254","468559.685106","469309.729627","470077.727816","470844.597544","471611.68338","472378.774163","473138.426683","Mapping"
"Blocked","m160","ball","2","m160greet.wav","space","400.307992473","186","466257.82534","473129.555429","473896.857373","474663.738232","460870.766723","461621.314877","462388.780371","463155.543436","467025.060504","467792.241254","468559.685106","469309.729627","470077.727816","470844.597544","471611.68338","472378.774163","473905.893105","Mapping"
"Blocked","m160","ball","2","m160ball.wav","None","725.745495874","186","466257.82534","473129.555429","473896.857373","474663.738232","475431.31719","461621.314877","462388.780371","463155.543436","467025.060504","467792.241254","468559.685106","469309.729627","470077.727816","470844.597544","471611.68338","472378.774163","474672.523537","Mapping"
"Blocked","m160","ball","2","m160done.wav","space","481.275266968","186","466257.82534","473129.555429","473896.857373","474663.738232","475431.31719","476181.81464","462388.780371","463155.543436","467025.060504","467792.241254","468559.685106","469309.729627","470077.727816","470844.597544","471611.68338","472378.774163","475440.922098","Mapping"
"Blocked","m160","ball","2","m160ball.wav","None","732.183909975","186","466257.82534","473129.555429","473896.857373","474663.738232","475431.31719","476181.81464","476949.168216","463155.543436","467025.060504","467792.241254","468559.685106","469309.729627","470077.727816","470844.597544","471611.68338","472378.774163","476191.372246","Mapping"
"Blocked","m160","ball","2","m160depth.wav","space","531.817052048","186","466257.82534","473129.555429","473896.857373","474663.738232","475431.31719","476181.81464","476949.168216","477716.481599","467025.060504","467792.241254","468559.685106","469309.729627","470077.727816","470844.597544","471611.68338","472378.774163","476958.356366","Mapping"
"Blocked","m160","done","23","m160reek.wav","None","724.198112264","186","480818.237609","473129.555429","473896.857373","474663.738232","475431.31719","476181.81464","476949.168216","477716.481599","467025.060504","467792.241254","468559.685106","469309.729627","470077.727816","470844.597544","471611.68338","472378.774163","477726.108149","Mapping"
"Blocked","m160","done","23","m160done.wav","None","735.671320464","186","480818.237609","473129.555429","473896.857373","474663.738232","475431.31719","476181.81464","476949.168216","477716.481599","481585.444639","467792.241254","468559.685106","469309.729627","470077.727816","470844.597544","471611.68338","472378.774163","480828.111802","Mapping"
"Blocked","m160","done","23","m160jolt.wav","space","423.315624241","186","480818.237609","473129.555429","473896.857373","474663.738232","475431.31719","476181.81464","476949.168216","477716.481599","481585.444639","482352.723086","468559.685106","469309.729627","470077.727816","470844.597544","471611.68338","472378.774163","481594.681329","Mapping"
"Blocked","m160","done","23","m160done.wav","None","727.033797186","186","480818.237609","473129.555429","473896.857373","474663.738232","475431.31719","476181.81464","476949.168216","477716.481599","481585.444639","482352.723086","483121.628991","469309.729627","470077.727816","470844.597544","471611.68338","472378.774163","482362.264306","Mapping"
"Blocked","m160","done","23","m160cling.wav","space","326.631817501","186","480818.237609","473129.555429","473896.857373","474663.738232","475431.31719","476181.81464","476949.168216","477716.481599","481585.444639","482352.723086","483121.628991","483870.418291","470077.727816","470844.597544","471611.68338","472378.774163","483131.301607","Mapping"
"Blocked","m160","done","23","m160depth.wav","None","734.941994306","186","480818.237609","473129.555429","473896.857373","474663.738232","475431.31719","476181.81464","476949.168216","477716.481599","481585.444639","482352.723086","483121.628991","483870.418291","484638.208102","470844.597544","471611.68338","472378.774163","483880.147176","Mapping"
"Blocked","m160","done","23","m160cave.wav","space","226.418553852","186","480818.237609","473129.555429","473896.857373","474663.738232","475431.31719","476181.81464","476949.168216","477716.481599","481585.444639","482352.723086","483121.628991","483870.418291","484638.208102","485405.157286","471611.68338","472378.774163","484647.435826","Mapping"
"Blocked","m160","done","23","m160lash.wav","None","726.579939015","186","480818.237609","473129.555429","473896.857373","474663.738232","475431.31719","476181.81464","476949.168216","477716.481599","481585.444639","482352.723086","483121.628991","483870.418291","484638.208102","485405.157286","486172.209423","472378.774163","485414.66728","Mapping"
"Blocked","m160","done","23","m160done.wav","space","588.501377963","186","480818.237609","473129.555429","473896.857373","474663.738232","475431.31719","476181.81464","476949.168216","477716.481599","481585.444639","482352.723086","483121.628991","483870.418291","484638.208102","485405.157286","486172.209423","486923.054687","486181.319354","Mapping"
"Blocked","m160","done","23","m160cling.wav","None","733.833009843","186","480818.237609","487689.973881","473896.857373","474663.738232","475431.31719","476181.81464","476949.168216","477716.481599","481585.444639","482352.723086","483121.628991","483870.418291","484638.208102","485405.157286","486172.209423","486923.054687","486932.893017","Mapping"
"Blocked","m160","done","23","m160cave.wav","None","731.435106136","186","480818.237609","487689.973881","488457.833255","474663.738232","475431.31719","476181.81464","476949.168216","477716.481599","481585.444639","482352.723086","483121.628991","483870.418291","484638.208102","485405.157286","486172.209423","486923.054687","487699.028163","Mapping"
"Blocked","m160","done","23","m160cave.wav","None","726.043223869","186","480818.237609","487689.973881","488457.833255","489224.837161","475431.31719","476181.81464","476949.168216","477716.481599","481585.444639","482352.723086","483121.628991","483870.418291","484638.208102","485405.157286","486172.209423","486923.054687","488467.430125","Mapping"
"Blocked","m160","done","23","m160lash.wav","None","722.652892582","186","480818.237609","487689.973881","488457.833255","489224.837161","489974.805626","476181.81464","476949.168216","477716.481599","481585.444639","482352.723086","483121.628991","483870.418291","484638.208102","485405.157286","486172.209423","486923.054687","489234.070451","Mapping"
"Blocked","m160","done","23","m160cave.wav","None","735.969358124","186","480818.237609","487689.973881","488457.833255","489224.837161","489974.805626","490742.28596","476949.168216","477716.481599","481585.444639","482352.723086","483121.628991","483870.418291","484638.208102","485405.157286","486172.209423","486923.054687","489983.955131","Mapping"
"Blocked","m160","done","23","m160done.wav","None","732.084358111","186","480818.237609","487689.973881","488457.833255","489224.837161","489974.805626","490742.28596","491509.913767","477716.481599","481585.444639","482352.723086","483121.628991","483870.418291","484638.208102","485405.157286","486172.209423","486923.054687","490751.7975","Mapping"
"Blocked","m160","done","23","m160depth.wav","space","570.641077589","186","480818.237609","487689.973881","488457.833255","489224.837161","489974.805626","490742.28596","491509.913767","492276.886448","481585.444639","482352.723086","483121.628991","483870.418291","484638.208102","485405.157286","486172.209423","486923.054687","491519.000511","Mapping"
"Blocked","m160","ball","3","m160lash.wav","None","723.03440515","186","495378.969247","487689.973881","488457.833255","489224.837161","489974.805626","490742.28596","491509.913767","492276.886448","481585.444639","482352.723086","483121.628991","483870.418291","484638.208102","485405.157286","486172.209423","486923.054687","492286.473115","Mapping"
"Blocked","m160","ball","3","m160ball.wav","None","734.867793974","186","495378.969247","487689.973881","488457.833255","489224.837161","489974.805626","490742.28596","491509.913767","492276.886448","496146.460402","482352.723086","483121.628991","483870.418291","484638.208102","485405.157286","486172.209423","486923.054687","495388.319093","Mapping"
"Blocked","m160","ball","3","m160jolt.wav","space","525.805288926","186","495378.969247","487689.973881","488457.833255","489224.837161","489974.805626","490742.28596","491509.913767","492276.886448","496146.460402","496913.579319","483121.628991","483870.418291","484638.208102","485405.157286","486172.209423","486923.054687","496155.641133","Mapping"
"Blocked","m160","ball","3","m160reek.wav","None","725.645634811","186","495378.969247","487689.973881","488457.833255","489224.837161","489974.805626","490742.28596","491509.913767","492276.886448","496146.460402","496913.579319","497680.756978","483870.418291","484638.208102","485405.157286","486172.209423","486923.054687","496922.998418","Mapping"
"Blocked","m160","ball","3","m160ball.wav","None","722.786453087","186","495378.969247","487689.973881","488457.833255","489224.837161","489974.805626","490742.28596","491509.913767","492276.886448","496146.460402","496913.579319","497680.756978","498431.026882","484638.208102","485405.157286","486172.209423","486923.054687","497690.505649","Mapping"
"Blocked","m160","ball","3","m160cave.wav","space","608.856970444","186","495378.969247","487689.973881","488457.833255","489224.837161","489974.805626","490742.28596","491509.913767","492276.886448","496146.460402","496913.579319","497680.756978","498431.026882","499198.579251","485405.157286","486172.209423","486923.054687","498440.535639","Mapping"
"Blocked","m160","ball","3","m160dime.wav","None","731.091002934","186","495378.969247","487689.973881","488457.833255","489224.837161","489974.805626","490742.28596","491509.913767","492276.886448","496146.460402","496913.579319","497680.756978","498431.026882","499198.579251","499965.769277","486172.209423","486923.054687","499207.980109","Mapping"
"Blocked","m160","ball","3","m160knife.wav","None","727.193327155","186","495378.969247","487689.973881","488457.833255","489224.837161","489974.805626","490742.28596","491509.913767","492276.886448","496146.460402","496913.579319","497680.756978","498431.026882","499198.579251","499965.769277","500732.939825","486923.054687","499975.26474","Mapping"
"Blocked","m160","ball","3","m160romp.wav","None","723.786609713","186","495378.969247","487689.973881","488457.833255","489224.837161","489974.805626","490742.28596","491509.913767","492276.886448","496146.460402","496913.579319","497680.756978","498431.026882","499198.579251","499965.769277","500732.939825","501500.314733","500742.494958","Mapping"
"Blocked","m160","ball","3","m160ball.wav","None","719.602336641","186","495378.969247","502250.598239","488457.833255","489224.837161","489974.805626","490742.28596","491509.913767","492276.886448","496146.460402","496913.579319","497680.756978","498431.026882","499198.579251","499965.769277","500732.939825","501500.314733","501509.941283","Mapping"
"Blocked","m160","ball","3","m160tile.wav","space","485.010319855","186","495378.969247","502250.598239","503018.139788","489224.837161","489974.805626","490742.28596","491509.913767","492276.886448","496146.460402","496913.579319","497680.756978","498431.026882","499198.579251","499965.769277","500732.939825","501500.314733","502260.25787","Mapping"
"Blocked","m160","ball","3","m160jaw.wav","None","728.138761595","186","495378.969247","502250.598239","503018.139788","503785.227479","489974.805626","490742.28596","491509.913767","492276.886448","496146.460402","496913.579319","497680.756978","498431.026882","499198.579251","499965.769277","500732.939825","501500.314733","503027.091735","Mapping"
"Blocked","m160","ball","3","m160ball.wav","None","723.704680335","186","495378.969247","502250.598239","503018.139788","503785.227479","504551.964574","490742.28596","491509.913767","492276.886448","496146.460402","496913.579319","497680.756978","498431.026882","499198.579251","499965.769277","500732.939825","501500.314733","503794.809819","Mapping"
"Blocked","m160","ball","3","m160dime.wav","space","375.906015281","186","495378.969247","502250.598239","503018.139788","503785.227479","504551.964574","505303.081906","491509.913767","492276.886448","496146.460402","496913.579319","497680.756978","498431.026882","499198.579251","499965.769277","500732.939825","501500.314733","504561.249804","Mapping"
"Blocked","m160","ball","3","m160gnash.wav","None","732.542235404","186","495378.969247","502250.598239","503018.139788","503785.227479","504551.964574","505303.081906","506069.726251","492276.886448","496146.460402","496913.579319","497680.756978","498431.026882","499198.579251","499965.769277","500732.939825","501500.314733","505312.41382","Mapping"
"Blocked","m160","ball","3","m160cad.wav","None","735.248997342","186","495378.969247","502250.598239","503018.139788","503785.227479","504551.964574","505303.081906","506069.726251","506837.2341","496146.460402","496913.579319","497680.756978","498431.026882","499198.579251","499965.769277","500732.939825","501500.314733","506078.501044","Mapping"
"Blocked","m160","ball","4","m160jaw.wav","None","730.762357824","186","509956.059869","502250.598239","503018.139788","503785.227479","504551.964574","505303.081906","506069.726251","506837.2341","496146.460402","496913.579319","497680.756978","498431.026882","499198.579251","499965.769277","500732.939825","501500.314733","506846.363509","Mapping"
"Blocked","m160","ball","4","m160ball.wav","None","736.024698708","186","509956.059869","502250.598239","503018.139788","503785.227479","504551.964574","505303.081906","506069.726251","506837.2341","510723.534639","496913.579319","497680.756978","498431.026882","499198.579251","499965.769277","500732.939825","501500.314733","509965.380962","Mapping"
"Blocked","m160","ball","4","m160romp.wav","space","412.31760662","186","509956.059869","502250.598239","503018.139788","503785.227479","504551.964574","505303.081906","506069.726251","506837.2341","510723.534639","511490.466509","497680.756978","498431.026882","499198.579251","499965.769277","500732.939825","501500.314733","510732.619527","Mapping"
"Blocked","m160","ball","4","m160dime.wav","None","727.774253115","186","509956.059869","502250.598239","503018.139788","503785.227479","504551.964574","505303.081906","506069.726251","506837.2341","510723.534639","511490.466509","512259.229579","498431.026882","499198.579251","499965.769277","500732.939825","501500.314733","511499.633946","Mapping"
"Blocked","m160","ball","4","m160ball.wav","None","721.707767341","186","509956.059869","502250.598239","503018.139788","503785.227479","504551.964574","505303.081906","506069.726251","506837.2341","510723.534639","511490.466509","512259.229579","513008.537353","499198.579251","499965.769277","500732.939825","501500.314733","512269.056779","Mapping"
"Blocked","m160","ball","4","m160gnash.wav","space","431.122413836","186","509956.059869","502250.598239","503018.139788","503785.227479","504551.964574","505303.081906","506069.726251","506837.2341","510723.534639","511490.466509","512259.229579","513008.537353","513775.741291","499965.769277","500732.939825","501500.314733","513017.723958","Mapping"
"Blocked","m160","ball","4","m160lash.wav","None","732.224411331","186","509956.059869","502250.598239","503018.139788","503785.227479","504551.964574","505303.081906","506069.726251","506837.2341","510723.534639","511490.466509","512259.229579","513008.537353","513775.741291","514543.058693","500732.939825","501500.314733","513784.983237","Mapping"
"Blocked","m160","ball","4","m160cad.wav","None","728.214198723","186","509956.059869","502250.598239","503018.139788","503785.227479","504551.964574","505303.081906","506069.726251","506837.2341","510723.534639","511490.466509","512259.229579","513008.537353","513775.741291","514543.058693","515310.077131","501500.314733","514552.26323","Mapping"
"Blocked","m160","ball","4","m160ball.wav","None","724.69247086","186","509956.059869","502250.598239","503018.139788","503785.227479","504551.964574","505303.081906","506069.726251","506837.2341","510723.534639","511490.466509","512259.229579","513008.537353","513775.741291","514543.058693","515310.077131","516077.34754","515319.137905","Mapping"
"Blocked","m160","ball","4","m160cling.wav","space","321.805711836","186","509956.059869","516828.002048","503018.139788","503785.227479","504551.964574","505303.081906","506069.726251","506837.2341","510723.534639","511490.466509","512259.229579","513008.537353","513775.741291","514543.058693","515310.077131","516077.34754","516086.953685","Mapping"
"Blocked","m160","ball","4","m160park.wav","None","733.074930962","186","509956.059869","516828.002048","517595.161775","503785.227479","504551.964574","505303.081906","506069.726251","506837.2341","510723.534639","511490.466509","512259.229579","513008.537353","513775.741291","514543.058693","515310.077131","516077.34754","516837.357767","Mapping"
"Blocked","m160","ball","4","m160romp.wav","None","729.047405068","186","509956.059869","516828.002048","517595.161775","518362.274818","504551.964574","505303.081906","506069.726251","506837.2341","510723.534639","511490.466509","512259.229579","513008.537353","513775.741291","514543.058693","515310.077131","516077.34754","517604.728656","Mapping"
"Blocked","m160","ball","4","m160romp.wav","None","726.117115468","186","509956.059869","516828.002048","517595.161775","518362.274818","519129.730109","505303.081906","506069.726251","506837.2341","510723.534639","511490.466509","512259.229579","513008.537353","513775.741291","514543.058693","515310.077131","516077.34754","518371.322915","Mapping"
"Blocked","m160","ball","4","m160done.wav","None","721.799899358","186","509956.059869","516828.002048","517595.161775","518362.274818","519129.730109","519879.831825","506069.726251","506837.2341","510723.534639","511490.466509","512259.229579","513008.537353","513775.741291","514543.058693","515310.077131","516077.34754","519139.008227","Mapping"
"Blocked","m160","ball","4","m160ball.wav","None","736.46495305","186","509956.059869","516828.002048","517595.161775","518362.274818","519129.730109","519879.831825","520647.572478","506837.2341","510723.534639","511490.466509","512259.229579","513008.537353","513775.741291","514543.058693","515310.077131","516077.34754","519888.993388","Mapping"
"Blocked","m160","ball","4","m160depth.wav","space","639.619451948","186","509956.059869","516828.002048","517595.161775","518362.274818","519129.730109","519879.831825","520647.572478","521414.775798","510723.534639","511490.466509","512259.229579","513008.537353","513775.741291","514543.058693","515310.077131","516077.34754","520656.947366","Mapping"
"Blocked","m160","cave","7","m160lash.wav","None","726.807795465","186","524516.543556","516828.002048","517595.161775","518362.274818","519129.730109","519879.831825","520647.572478","521414.775798","510723.534639","511490.466509","512259.229579","513008.537353","513775.741291","514543.058693","515310.077131","516077.34754","521424.340205","Mapping"
"Blocked","m160","cave","7","m160jaw.wav","None","734.592634719","186","524516.543556","516828.002048","517595.161775","518362.274818","519129.730109","519879.831825","520647.572478","521414.775798","525283.92341","511490.466509","512259.229579","513008.537353","513775.741291","514543.058693","515310.077131","516077.34754","524526.821523","Mapping"
"Blocked","m160","cave","7","m160priest.wav","None","731.682440266","186","524516.543556","516828.002048","517595.161775","518362.274818","519129.730109","519879.831825","520647.572478","521414.775798","525283.92341","526051.461868","512259.229579","513008.537353","513775.741291","514543.058693","515310.077131","516077.34754","525293.121146","Mapping"
"Blocked","m160","cave","7","m160depth.wav","None","727.229500189","186","524516.543556","516828.002048","517595.161775","518362.274818","519129.730109","519879.831825","520647.572478","521414.775798","525283.92341","526051.461868","526818.730422","513008.537353","513775.741291","514543.058693","515310.077131","516077.34754","526060.992885","Mapping"
"Blocked","m160","cave","7","m160cave.wav","None","724.021886941","186","524516.543556","516828.002048","517595.161775","518362.274818","519129.730109","519879.831825","520647.572478","521414.775798","525283.92341","526051.461868","526818.730422","527585.713305","513775.741291","514543.058693","515310.077131","516077.34754","526828.494861","Mapping"
"Blocked","m160","cave","7","m160gnash.wav","space","621.358778793","186","524516.543556","516828.002048","517595.161775","518362.274818","519129.730109","519879.831825","520647.572478","521414.775798","525283.92341","526051.461868","526818.730422","527585.713305","528336.618548","514543.058693","515310.077131","516077.34754","527594.973183","Mapping"
"Blocked","m160","cave","7","m160cave.wav","None","732.107854914","186","524516.543556","516828.002048","517595.161775","518362.274818","519129.730109","519879.831825","520647.572478","521414.775798","525283.92341","526051.461868","526818.730422","527585.713305","528336.618548","529103.591538","515310.077131","516077.34754","528346.178009","Mapping"
"Blocked","m160","cave","7","m160park.wav","space","415.411755443","186","524516.543556","516828.002048","517595.161775","518362.274818","519129.730109","519879.831825","520647.572478","521414.775798","525283.92341","526051.461868","526818.730422","527585.713305","528336.618548","529103.591538","529870.846489","516077.34754","529112.887279","Mapping"
"Blocked","m160","cave","7","m160cave.wav","None","724.349603988","186","524516.543556","516828.002048","517595.161775","518362.274818","519129.730109","519879.831825","520647.572478","521414.775798","525283.92341","526051.461868","526818.730422","527585.713305","528336.618548","529103.591538","529870.846489","530637.812058","529879.985482","Mapping"
"Blocked","m160","cave","7","m160done.wav","space","513.418799266","186","524516.543556","531388.541385","517595.161775","518362.274818","519129.730109","519879.831825","520647.572478","521414.775798","525283.92341","526051.461868","526818.730422","527585.713305","528336.618548","529103.591538","529870.846489","530637.812058","530646.805434","Mapping"
"Blocked","m160","cave","7","m160cave.wav","None","732.44268354","186","524516.543556","531388.541385","532155.583628","518362.274818","519129.730109","519879.831825","520647.572478","521414.775798","525283.92341","526051.461868","526818.730422","527585.713305","528336.618548","529103.591538","529870.846489","530637.812058","531397.885046","Mapping"
"Blocked","m160","cave","7","m160cad.wav","space","523.428408895","186","524516.543556","531388.541385","532155.583628","532923.053141","519129.730109","519879.831825","520647.572478","521414.775798","525283.92341","526051.461868","526818.730422","527585.713305","528336.618548","529103.591538","529870.846489","530637.812058","532164.730041","Mapping"
"Blocked","m160","cave","7","m160jaw.wav","None","723.549787886","186","524516.543556","531388.541385","532155.583628","532923.053141","533690.20112","519879.831825","520647.572478","521414.775798","525283.92341","526051.461868","526818.730422","527585.713305","528336.618548","529103.591538","529870.846489","530637.812058","532932.499756","Mapping"
"Blocked","m160","cave","7","m160jaw.wav","None","720.733889844","186","524516.543556","531388.541385","532155.583628","532923.053141","533690.20112","534440.530692","520647.572478","521414.775798","525283.92341","526051.461868","526818.730422","527585.713305","528336.618548","529103.591538","529870.846489","530637.812058","533699.592393","Mapping"
"Blocked","m160","cave","7","m160gnash.wav","None","733.926069457","186","524516.543556","531388.541385","532155.583628","532923.053141","533690.20112","534440.530692","535208.129128","521414.775798","525283.92341","526051.461868","526818.730422","527585.713305","528336.618548","529103.591538","529870.846489","530637.812058","534449.793352","Mapping"
"Blocked","m160","cave","7","m160jaw.wav","None","729.91894884","186","524516.543556","531388.541385","532155.583628","532923.053141","533690.20112","534440.530692","535208.129128","535975.623993","525283.92341","526051.461868","526818.730422","527585.713305","528336.618548","529103.591538","529870.846489","530637.812058","535217.35036","Mapping"
"Blocked","m160","tile","14","m160jolt.wav","None","726.476676762","186","539077.337956","531388.541385","532155.583628","532923.053141","533690.20112","534440.530692","535208.129128","535975.623993","525283.92341","526051.461868","526818.730422","527585.713305","528336.618548","529103.591538","529870.846489","530637.812058","535984.441143","Mapping"
"Blocked","m160","tile","14","m160priest.wav","None","735.513953958","186","539077.337956","531388.541385","532155.583628","532923.053141","533690.20112","534440.530692","535208.129128","535975.623993","539844.804377","526051.461868","526818.730422","527585.713305","528336.618548","529103.591538","529870.846489","530637.812058","539086.599689","Mapping"
"Blocked","m160","tile","14","m160romp.wav","None","731.992226094","186","539077.337956","531388.541385","532155.583628","532923.053141","533690.20112","534440.530692","535208.129128","535975.623993","539844.804377","540611.988838","526818.730422","527585.713305","528336.618548","529103.591538","529870.846489","530637.812058","539854.402175","Mapping"
"Blocked","m160","tile","14","m160jaw.wav","None","728.873344138","186","539077.337956","531388.541385","532155.583628","532923.053141","533690.20112","534440.530692","535208.129128","535975.623993","539844.804377","540611.988838","541379.35076","527585.713305","528336.618548","529103.591538","529870.846489","530637.812058","540621.623735","Mapping"
"Blocked","m160","tile","14","m160tile.wav","None","725.31884443","186","539077.337956","531388.541385","532155.583628","532923.053141","533690.20112","534440.530692","535208.129128","535975.623993","539844.804377","540611.988838","541379.35076","542147.018141","528336.618548","529103.591538","529870.846489","530637.812058","541388.882396","Mapping"
"Blocked","m160","tile","14","m160romp.wav","space","595.23566626","186","539077.337956","531388.541385","532155.583628","532923.053141","533690.20112","534440.530692","535208.129128","535975.623993","539844.804377","540611.988838","541379.35076","542147.018141","542897.119239","529103.591538","529870.846489","530637.812058","542156.52628","Mapping"
"Blocked","m160","tile","14","m160park.wav","None","733.218694106","186","539077.337956","531388.541385","532155.583628","532923.053141","533690.20112","534440.530692","535208.129128","535975.623993","539844.804377","540611.988838","541379.35076","542147.018141","542897.119239","543664.181269","529870.846489","530637.812058","542906.846268","Mapping"
"Blocked","m160","tile","14","m160ball.wav","None","731.34111939","186","539077.337956","531388.541385","532155.583628","532923.053141","533690.20112","534440.530692","535208.129128","535975.623993","539844.804377","540611.988838","541379.35076","542147.018141","542897.119239","543664.181269","544431.316262","530637.812058","543673.561412","Mapping"
"Blocked","m160","tile","14","m160tile.wav","None","727.643784601","186","539077.337956","531388.541385","532155.583628","532923.053141","533690.20112","534440.530692","535208.129128","535975.623993","539844.804377","540611.988838","541379.35076","542147.018141","542897.119239","543664.181269","544431.316262","545198.71714","544440.876032","Mapping"
"Blocked","m160","tile","14","m160lash.wav","None","724.045074545","186","539077.337956","545965.739287","532155.583628","532923.053141","533690.20112","534440.530692","535208.129128","535975.623993","539844.804377","540611.988838","541379.35076","542147.018141","542897.119239","543664.181269","544431.316262","545198.71714","545208.096047","Mapping"
"Blocked","m160","tile","14","m160tile.wav","space","0.0340081751347","186","539077.337956","545965.739287","546716.270437","532923.053141","533690.20112","534440.530692","535208.129128","535975.623993","539844.804377","540611.988838","541379.35076","542147.018141","542897.119239","543664.181269","544431.316262","545198.71714","545975.229495","Mapping"
"Blocked","m160","tile","14","m160park.wav","space","649.914422538","186","539077.337956","545965.739287","546716.270437","547483.669151","533690.20112","534440.530692","535208.129128","535975.623993","539844.804377","540611.988838","541379.35076","542147.018141","542897.119239","543664.181269","544431.316262","545198.71714","546725.645325","Mapping"
"Blocked","m160","tile","14","m160cave.wav","None","728.684442583","186","539077.337956","545965.739287","546716.270437","547483.669151","548250.791469","534440.530692","535208.129128","535975.623993","539844.804377","540611.988838","541379.35076","542147.018141","542897.119239","543664.181269","544431.316262","545198.71714","547493.134625","Mapping"
"Blocked","m160","tile","14","m160gnash.wav","None","725.208471529","186","539077.337956","545965.739287","546716.270437","547483.669151","548250.791469","549018.042091","535208.129128","535975.623993","539844.804377","540611.988838","541379.35076","542147.018141","542897.119239","543664.181269","544431.316262","545198.71714","548260.530865","Mapping"
"Blocked","m160","tile","14","m160tile.wav","None","722.17368288","186","539077.337956","545965.739287","546716.270437","547483.669151","548250.791469","549018.042091","549768.559637","535975.623993","539844.804377","540611.988838","541379.35076","542147.018141","542897.119239","543664.181269","544431.316262","545198.71714","549027.267342","Mapping"
"Blocked","m160","tile","14","m160ball.wav","space","597.680563107","186","539077.337956","545965.739287","546716.270437","547483.669151","548250.791469","549018.042091","549768.559637","550535.764812","539844.804377","540611.988838","541379.35076","542147.018141","542897.119239","543664.181269","544431.316262","545198.71714","549777.829718","Mapping"
"Blocked","m160","cave","10","m160depth.wav","None","730.961461551","186","553655.085868","545965.739287","546716.270437","547483.669151","548250.791469","549018.042091","549768.559637","550535.764812","539844.804377","540611.988838","541379.35076","542147.018141","542897.119239","543664.181269","544431.316262","545198.71714","550545.275734","Mapping"
"Blocked","m160","cave","10","m160jolt.wav","None","734.723103698","186","553655.085868","545965.739287","546716.270437","547483.669151","548250.791469","549018.042091","549768.559637","550535.764812","554421.957451","540611.988838","541379.35076","542147.018141","542897.119239","543664.181269","544431.316262","545198.71714","553664.63389","Mapping"
"Blocked","m160","cave","10","m160park.wav","None","731.507760938","186","553655.085868","545965.739287","546716.270437","547483.669151","548250.791469","549018.042091","549768.559637","550535.764812","554421.957451","555189.100483","541379.35076","542147.018141","542897.119239","543664.181269","544431.316262","545198.71714","554431.398191","Mapping"
"Blocked","m160","cave","10","m160cave.wav","None","728.003964759","186","553655.085868","545965.739287","546716.270437","547483.669151","548250.791469","549018.042091","549768.559637","550535.764812","554421.957451","555189.100483","555956.445402","542147.018141","542897.119239","543664.181269","544431.316262","545198.71714","555198.50165","Mapping"
"Blocked","m160","cave","10","m160bluff.wav","space","465.279864613","186","553655.085868","545965.739287","546716.270437","547483.669151","548250.791469","549018.042091","549768.559637","550535.764812","554421.957451","555189.100483","555956.445402","556723.636354","542897.119239","543664.181269","544431.316262","545198.71714","555966.000534","Mapping"
"Blocked","m160","cave","10","m160jolt.wav","None","720.497994684","186","553655.085868","545965.739287","546716.270437","547483.669151","548250.791469","549018.042091","549768.559637","550535.764812","554421.957451","555189.100483","555956.445402","556723.636354","557474.192238","543664.181269","544431.316262","545198.71714","556732.998258","Mapping"
"Blocked","m160","cave","10","m160greet.wav","None","733.346071094","186","553655.085868","545965.739287","546716.270437","547483.669151","548250.791469","549018.042091","549768.559637","550535.764812","554421.957451","555189.100483","555956.445402","556723.636354","557474.192238","558241.393703","544431.316262","545198.71714","557483.647509","Mapping"
"Blocked","m160","cave","10","m160gnash.wav","None","730.155152734","186","553655.085868","545965.739287","546716.270437","547483.669151","548250.791469","549018.042091","549768.559637","550535.764812","554421.957451","555189.100483","555956.445402","556723.636354","557474.192238","558241.393703","559008.451095","545198.71714","558250.37131","Mapping"
"Blocked","m160","cave","10","m160cave.wav","None","726.703915279","186","553655.085868","545965.739287","546716.270437","547483.669151","548250.791469","549018.042091","549768.559637","550535.764812","554421.957451","555189.100483","555956.445402","556723.636354","557474.192238","558241.393703","559008.451095","559775.712539","559017.560099","Mapping"
"Blocked","m160","cave","10","m160park.wav","space","454.274117947","186","553655.085868","560526.457632","546716.270437","547483.669151","548250.791469","549018.042091","549768.559637","550535.764812","554421.957451","555189.100483","555956.445402","556723.636354","557474.192238","558241.393703","559008.451095","559775.712539","559784.882757","Mapping"
"Blocked","m160","cave","10","m160cave.wav","None","734.221015126","186","553655.085868","560526.457632","561293.471741","547483.669151","548250.791469","549018.042091","549768.559637","550535.764812","554421.957451","555189.100483","555956.445402","556723.636354","557474.192238","558241.393703","559008.451095","559775.712539","560535.856635","Mapping"
"Blocked","m160","cave","10","m160greet.wav","space","648.610662669","186","553655.085868","560526.457632","561293.471741","562060.77585","548250.791469","549018.042091","549768.559637","550535.764812","554421.957451","555189.100483","555956.445402","556723.636354","557474.192238","558241.393703","559008.451095","559775.712539","561302.488923","Mapping"
"Blocked","m160","cave","10","m160cad.wav","None","726.139684208","186","553655.085868","560526.457632","561293.471741","562060.77585","562828.152303","549018.042091","549768.559637","550535.764812","554421.957451","555189.100483","555956.445402","556723.636354","557474.192238","558241.393703","559008.451095","559775.712539","562069.744801","Mapping"
"Blocked","m160","cave","10","m160tile.wav","None","722.919085529","186","553655.085868","560526.457632","561293.471741","562060.77585","562828.152303","563578.278753","549768.559637","550535.764812","554421.957451","555189.100483","555956.445402","556723.636354","557474.192238","558241.393703","559008.451095","559775.712539","562837.728769","Mapping"
"Blocked","m160","cave","10","m160cave.wav","None","736.700229812","186","553655.085868","560526.457632","561293.471741","562060.77585","562828.152303","563578.278753","564345.629236","550535.764812","554421.957451","555189.100483","555956.445402","556723.636354","557474.192238","558241.393703","559008.451095","559775.712539","563587.527191","Mapping"
"Blocked","m160","cave","10","m160done.wav","space","572.142703924","186","553655.085868","560526.457632","561293.471741","562060.77585","562828.152303","563578.278753","564345.629236","565113.075562","554421.957451","555189.100483","555956.445402","556723.636354","557474.192238","558241.393703","559008.451095","559775.712539","564354.721854","Mapping"
"Blocked","m160","tile","13","m160dime.wav","None","727.029159199","186","568214.959567","560526.457632","561293.471741","562060.77585","562828.152303","563578.278753","564345.629236","565113.075562","554421.957451","555189.100483","555956.445402","556723.636354","557474.192238","558241.393703","559008.451095","559775.712539","565122.836291","Mapping"
"Blocked","m160","tile","13","m160romp.wav","None","735.56372989","186","568214.959567","560526.457632","561293.471741","562060.77585","562828.152303","563578.278753","564345.629236","565113.075562","568982.455669","555189.100483","555956.445402","556723.636354","557474.192238","558241.393703","559008.451095","559775.712539","568224.390105","Mapping"
"Blocked","m160","tile","13","m160lash.wav","None","731.651214417","186","568214.959567","560526.457632","561293.471741","562060.77585","562828.152303","563578.278753","564345.629236","565113.075562","568982.455669","569749.368989","555956.445402","556723.636354","557474.192238","558241.393703","559008.451095","559775.712539","568992.083455","Mapping"
"Blocked","m160","tile","13","m160tile.wav","None","732.498951722","186","568214.959567","560526.457632","561293.471741","562060.77585","562828.152303","563578.278753","564345.629236","565113.075562","568982.455669","569749.368989","570517.09913","556723.636354","557474.192238","558241.393703","559008.451095","559775.712539","569758.354326","Mapping"
"Blocked","m160","tile","13","m160depth.wav","space","487.807049882","186","568214.959567","560526.457632","561293.471741","562060.77585","562828.152303","563578.278753","564345.629236","565113.075562","568982.455669","569749.368989","570517.09913","571284.184657","557474.192238","558241.393703","559008.451095","559775.712539","570526.960338","Mapping"
"Blocked","m160","tile","13","m160reek.wav","None","722.93052543","186","568214.959567","560526.457632","561293.471741","562060.77585","562828.152303","563578.278753","564345.629236","565113.075562","568982.455669","569749.368989","570517.09913","571284.184657","572051.287188","558241.393703","559008.451095","559775.712539","571294.016185","Mapping"
"Blocked","m160","tile","13","m160jaw.wav","None","720.297035761","186","568214.959567","560526.457632","561293.471741","562060.77585","562828.152303","563578.278753","564345.629236","565113.075562","568982.455669","569749.368989","570517.09913","571284.184657","572051.287188","572802.016514","559008.451095","559775.712539","572060.42278","Mapping"
"Blocked","m160","tile","13","m160tile.wav","None","734.281612094","186","568214.959567","560526.457632","561293.471741","562060.77585","562828.152303","563578.278753","564345.629236","565113.075562","568982.455669","569749.368989","570517.09913","571284.184657","572051.287188","572802.016514","573569.060304","559775.712539","572811.375944","Mapping"
"Blocked","m160","tile","13","m160reek.wav","space","468.428736553","186","568214.959567","560526.457632","561293.471741","562060.77585","562828.152303","563578.278753","564345.629236","565113.075562","568982.455669","569749.368989","570517.09913","571284.184657","572051.287188","572802.016514","573569.060304","574336.37987","573578.220629","Mapping"
"Blocked","m160","tile","13","m160dime.wav","None","726.7329772","186","568214.959567","575103.69851","561293.471741","562060.77585","562828.152303","563578.278753","564345.629236","565113.075562","568982.455669","569749.368989","570517.09913","571284.184657","572051.287188","572802.016514","573569.060304","574336.37987","574345.550708","Mapping"
"Blocked","m160","tile","13","m160park.wav","None","723.148179241","186","568214.959567","575103.69851","575870.874932","562060.77585","562828.152303","563578.278753","564345.629236","565113.075562","568982.455669","569749.368989","570517.09913","571284.184657","572051.287188","572802.016514","573569.060304","574336.37987","575112.932726","Mapping"
"Blocked","m160","tile","13","m160tile.wav","None","720.776245929","186","568214.959567","575103.69851","575870.874932","576621.152255","562828.152303","563578.278753","564345.629236","565113.075562","568982.455669","569749.368989","570517.09913","571284.184657","572051.287188","572802.016514","573569.060304","574336.37987","575880.329276","Mapping"
"Blocked","m160","tile","13","m160gnash.wav","space","448.309966363","186","568214.959567","575103.69851","575870.874932","576621.152255","577388.689785","563578.278753","564345.629236","565113.075562","568982.455669","569749.368989","570517.09913","571284.184657","572051.287188","572802.016514","573569.060304","574336.37987","576630.246419","Mapping"
"Blocked","m160","tile","13","m160tile.wav","None","728.9735144","186","568214.959567","575103.69851","575870.874932","576621.152255","577388.689785","578155.705749","564345.629236","565113.075562","568982.455669","569749.368989","570517.09913","571284.184657","572051.287188","572802.016514","573569.060304","574336.37987","577398.259448","Mapping"
"Blocked","m160","tile","13","m160ball.wav","space","592.254672199","186","568214.959567","575103.69851","575870.874932","576621.152255","577388.689785","578155.705749","578923.076947","565113.075562","568982.455669","569749.368989","570517.09913","571284.184657","572051.287188","572802.016514","573569.060304","574336.37987","578166.226412","Mapping"
"Blocked","m160","tile","13","m160knife.wav","None","722.750280052","186","568214.959567","575103.69851","575870.874932","576621.152255","577388.689785","578155.705749","578923.076947","579674.032893","568982.455669","569749.368989","570517.09913","571284.184657","572051.287188","572802.016514","573569.060304","574336.37987","578931.981282","Mapping"
"Blocked","m160","cave","11","m160reek.wav","None","734.859755263","186","582792.415625","575103.69851","575870.874932","576621.152255","577388.689785","578155.705749","578923.076947","579674.032893","568982.455669","569749.368989","570517.09913","571284.184657","572051.287188","572802.016514","573569.060304","574336.37987","579683.636874","Mapping"
"Blocked","m160","cave","11","m160dime.wav","None","735.588772222","186","582792.415625","575103.69851","575870.874932","576621.152255","577388.689785","578155.705749","578923.076947","579674.032893","583559.708603","569749.368989","570517.09913","571284.184657","572051.287188","572802.016514","573569.060304","574336.37987","582801.579661","Mapping"
"Blocked","m160","cave","11","m160dime.wav","None","732.171234209","186","582792.415625","575103.69851","575870.874932","576621.152255","577388.689785","578155.705749","578923.076947","579674.032893","583559.708603","584327.592401","570517.09913","571284.184657","572051.287188","572802.016514","573569.060304","574336.37987","583569.054429","Mapping"
"Blocked","m160","cave","11","m160depth.wav","None","727.704072371","186","582792.415625","575103.69851","575870.874932","576621.152255","577388.689785","578155.705749","578923.076947","579674.032893","583559.708603","584327.592401","585094.332587","571284.184657","572051.287188","572802.016514","573569.060304","574336.37987","584337.316648","Mapping"
"Blocked","m160","cave","11","m160cave.wav","None","725.680879783","186","582792.415625","575103.69851","575870.874932","576621.152255","577388.689785","578155.705749","578923.076947","579674.032893","583559.708603","584327.592401","585094.332587","585861.513647","572051.287188","572802.016514","573569.060304","574336.37987","585103.847838","Mapping"
"Blocked","m160","cave","11","m160cling.wav","space","639.32079589","186","582792.415625","575103.69851","575870.874932","576621.152255","577388.689785","578155.705749","578923.076947","579674.032893","583559.708603","584327.592401","585094.332587","585861.513647","586611.723881","572802.016514","573569.060304","574336.37987","585870.896883","Mapping"
"Blocked","m160","cave","11","m160knife.wav","None","735.28053239","186","582792.415625","575103.69851","575870.874932","576621.152255","577388.689785","578155.705749","578923.076947","579674.032893","583559.708603","584327.592401","585094.332587","585861.513647","586611.723881","587379.039738","573569.060304","574336.37987","586620.644293","Mapping"
"Blocked","m160","cave","11","m160cave.wav","None","731.637611054","186","582792.415625","575103.69851","575870.874932","576621.152255","577388.689785","578155.705749","578923.076947","579674.032893","583559.708603","584327.592401","585094.332587","585861.513647","586611.723881","587379.039738","588146.399496","574336.37987","587388.27581","Mapping"
"Blocked","m160","cave","11","m160ball.wav","space","538.5933863","186","582792.415625","575103.69851","575870.874932","576621.152255","577388.689785","578155.705749","578923.076947","579674.032893","583559.708603","584327.592401","585094.332587","585861.513647","586611.723881","587379.039738","588146.399496","588913.971962","588155.615163","Mapping"
"Blocked","m160","cave","11","m160jaw.wav","None","723.200119566","186","582792.415625","589680.991636","575870.874932","576621.152255","577388.689785","578155.705749","578923.076947","579674.032893","583559.708603","584327.592401","585094.332587","585861.513647","586611.723881","587379.039738","588146.399496","588913.971962","588923.41734","Mapping"
"Blocked","m160","cave","11","m160cave.wav","None","719.905629754","186","582792.415625","589680.991636","590431.195687","576621.152255","577388.689785","578155.705749","578923.076947","579674.032893","583559.708603","584327.592401","585094.332587","585861.513647","586611.723881","587379.039738","588146.399496","588913.971962","589690.410117","Mapping"
"Blocked","m160","cave","11","m160greet.wav","space","493.109582458","186","582792.415625","589680.991636","590431.195687","591198.483719","577388.689785","578155.705749","578923.076947","579674.032893","583559.708603","584327.592401","585094.332587","585861.513647","586611.723881","587379.039738","588146.399496","588913.971962","590440.90664","Mapping"
"Blocked","m160","cave","11","m160romp.wav","None","729.264131747","186","582792.415625","589680.991636","590431.195687","591198.483719","591966.065769","578155.705749","578923.076947","579674.032893","583559.708603","584327.592401","585094.332587","585861.513647","586611.723881","587379.039738","588146.399496","588913.971962","591207.714844","Mapping"
"Blocked","m160","cave","11","m160knife.wav","None","726.373414975","186","582792.415625","589680.991636","590431.195687","591198.483719","591966.065769","592733.840739","578923.076947","579674.032893","583559.708603","584327.592401","585094.332587","585861.513647","586611.723881","587379.039738","588146.399496","588913.971962","591975.185284","Mapping"
"Blocked","m160","cave","11","m160cave.wav","None","721.691072453","186","582792.415625","589680.991636","590431.195687","591198.483719","591966.065769","592733.840739","593500.421086","579674.032893","583559.708603","584327.592401","585094.332587","585861.513647","586611.723881","587379.039738","588146.399496","588913.971962","592743.549219","Mapping"
"Blocked","m160","cave","11","m160dime.wav","space","471.647170838","186","582792.415625","589680.991636","590431.195687","591198.483719","591966.065769","592733.840739","593500.421086","594250.685425","583559.708603","584327.592401","585094.332587","585861.513647","586611.723881","587379.039738","588146.399496","588913.971962","593510.305791","Mapping"
"Blocked","m160","tile","17","m160cave.wav","None","731.510543264","186","597370.017919","589680.991636","590431.195687","591198.483719","591966.065769","592733.840739","593500.421086","594250.685425","583559.708603","584327.592401","585094.332587","585861.513647","586611.723881","587379.039738","588146.399496","588913.971962","594260.529319","Mapping"
"Blocked","m160","tile","17","m160tile.wav","None","735.318560153","186","597370.017919","589680.991636","590431.195687","591198.483719","591966.065769","592733.840739","593500.421086","594250.685425","598136.780984","584327.592401","585094.332587","585861.513647","586611.723881","587379.039738","588146.399496","588913.971962","597379.468553","Mapping"
"Blocked","m160","tile","17","m160done.wav","space","571.882385295","186","597370.017919","589680.991636","590431.195687","591198.483719","591966.065769","592733.840739","593500.421086","594250.685425","598136.780984","598904.111372","585094.332587","585861.513647","586611.723881","587379.039738","588146.399496","588913.971962","598145.892461","Mapping"
"Blocked","m160","tile","17","m160tile.wav","None","728.931776714","186","597370.017919","589680.991636","590431.195687","591198.483719","591966.065769","592733.840739","593500.421086","594250.685425","598136.780984","598904.111372","599671.402495","585861.513647","586611.723881","587379.039738","588146.399496","588913.971962","598913.440503","Mapping"
"Blocked","m160","tile","17","m160bluff.wav","space","573.193255346","186","597370.017919","589680.991636","590431.195687","591198.483719","591966.065769","592733.840739","593500.421086","594250.685425","598136.780984","598904.111372","599671.402495","600438.7672","586611.723881","587379.039738","588146.399496","588913.971962","599680.516137","Mapping"
"Blocked","m160","tile","17","m160done.wav","None","720.365980174","186","597370.017919","589680.991636","590431.195687","591198.483719","591966.065769","592733.840739","593500.421086","594250.685425","598136.780984","598904.111372","599671.402495","600438.7672","601205.432569","587379.039738","588146.399496","588913.971962","600448.28616","Mapping"
"Blocked","m160","tile","17","m160cad.wav","None","722.49738127","186","597370.017919","589680.991636","590431.195687","591198.483719","591966.065769","592733.840739","593500.421086","594250.685425","598136.780984","598904.111372","599671.402495","600438.7672","601205.432569","601956.260828","588146.399496","588913.971962","601214.171808","Mapping"
"Blocked","m160","tile","17","m160gnash.wav","None","735.212515574","186","597370.017919","589680.991636","590431.195687","591198.483719","591966.065769","592733.840739","593500.421086","594250.685425","598136.780984","598904.111372","599671.402495","600438.7672","601205.432569","601956.260828","602723.75322","588913.971962","601965.300579","Mapping"
"Blocked","m160","tile","17","m160cling.wav","None","731.169222388","186","597370.017919","589680.991636","590431.195687","591198.483719","591966.065769","592733.840739","593500.421086","594250.685425","598136.780984","598904.111372","599671.402495","600438.7672","601205.432569","601956.260828","602723.75322","603490.795773","602733.326284","Mapping"
"Blocked","m160","tile","17","m160greet.wav","None","728.278196417","186","597370.017919","604258.144092","590431.195687","591198.483719","591966.065769","592733.840739","593500.421086","594250.685425","598136.780984","598904.111372","599671.402495","600438.7672","601205.432569","601956.260828","602723.75322","603490.795773","603500.112228","Mapping"
"Blocked","m160","tile","17","m160tile.wav","None","725.73869396","186","597370.017919","604258.144092","605025.532603","591198.483719","591966.065769","592733.840739","593500.421086","594250.685425","598136.780984","598904.111372","599671.402495","600438.7672","601205.432569","601956.260828","602723.75322","603490.795773","604267.757039","Mapping"
"Blocked","m160","tile","17","m160lash.wav","space","434.673822019","186","597370.017919","604258.144092","605025.532603","605775.983678","591966.065769","592733.840739","593500.421086","594250.685425","598136.780984","598904.111372","599671.402495","600438.7672","601205.432569","601956.260828","602723.75322","603490.795773","605034.836691","Mapping"
"Blocked","m160","tile","17","m160tile.wav","None","734.598199371","186","597370.017919","604258.144092","605025.532603","605775.983678","606542.841349","592733.840739","593500.421086","594250.685425","598136.780984","598904.111372","599671.402495","600438.7672","601205.432569","601956.260828","602723.75322","603490.795773","605785.053109","Mapping"
"Blocked","m160","tile","17","m160gnash.wav","space","597.373868804","186","597370.017919","604258.144092","605025.532603","605775.983678","606542.841349","607310.565307","593500.421086","594250.685425","598136.780984","598904.111372","599671.402495","600438.7672","601205.432569","601956.260828","602723.75322","603490.795773","606552.100299","Mapping"
"Blocked","m160","tile","17","m160jaw.wav","None","726.50202876","186","597370.017919","604258.144092","605025.532603","605775.983678","606542.841349","607310.565307","608077.367945","594250.685425","598136.780984","598904.111372","599671.402495","600438.7672","601205.432569","601956.260828","602723.75322","603490.795773","607320.091068","Mapping"
"Blocked","m160","tile","17","m160priest.wav","None","723.856790923","186","597370.017919","604258.144092","605025.532603","605775.983678","606542.841349","607310.565307","608077.367945","608844.752437","598136.780984","598904.111372","599671.402495","600438.7672","601205.432569","601956.260828","602723.75322","603490.795773","608086.77746","Mapping"
"Blocked","m160","ball","6","m160dime.wav","None","720.898985397","186","611946.861825","604258.144092","605025.532603","605775.983678","606542.841349","607310.565307","608077.367945","608844.752437","598136.780984","598904.111372","599671.402495","600438.7672","601205.432569","601956.260828","602723.75322","603490.795773","608854.001494","Mapping"
"Blocked","m160","ball","6","m160dime.wav","None","735.36679009","186","611946.861825","604258.144092","605025.532603","605775.983678","606542.841349","607310.565307","608077.367945","608844.752437","612714.307533","598904.111372","599671.402495","600438.7672","601205.432569","601956.260828","602723.75322","603490.795773","611955.865403","Mapping"
"Blocked","m160","ball","6","m160ball.wav","None","731.655234005","186","611946.861825","604258.144092","605025.532603","605775.983678","606542.841349","607310.565307","608077.367945","608844.752437","612714.307533","613481.647814","599671.402495","600438.7672","601205.432569","601956.260828","602723.75322","603490.795773","612723.550406","Mapping"
"Blocked","m160","ball","6","m160bluff.wav","space","458.2676352","186","611946.861825","604258.144092","605025.532603","605775.983678","606542.841349","607310.565307","608077.367945","608844.752437","612714.307533","613481.647814","614248.607509","600438.7672","601205.432569","601956.260828","602723.75322","603490.795773","613490.964887","Mapping"
"Blocked","m160","ball","6","m160cave.wav","None","724.497695453","186","611946.861825","604258.144092","605025.532603","605775.983678","606542.841349","607310.565307","608077.367945","608844.752437","612714.307533","613481.647814","614248.607509","615015.906671","601205.432569","601956.260828","602723.75322","603490.795773","614257.764125","Mapping"
"Blocked","m160","ball","6","m160cad.wav","None","720.841170754","186","611946.861825","604258.144092","605025.532603","605775.983678","606542.841349","607310.565307","608077.367945","608844.752437","612714.307533","613481.647814","614248.607509","615015.906671","615766.377533","601956.260828","602723.75322","603490.795773","615025.376164","Mapping"
"Blocked","m160","ball","6","m160romp.wav","None","734.144341666","186","611946.861825","604258.144092","605025.532603","605775.983678","606542.841349","607310.565307","608077.367945","608844.752437","612714.307533","613481.647814","614248.607509","615015.906671","615766.377533","616533.706993","602723.75322","603490.795773","615776.041493","Mapping"
"Blocked","m160","ball","6","m160romp.wav","None","731.566193514","186","611946.861825","604258.144092","605025.532603","605775.983678","606542.841349","607310.565307","608077.367945","608844.752437","612714.307533","613481.647814","614248.607509","615015.906671","615766.377533","616533.706993","617301.064278","603490.795773","616542.930389","Mapping"
"Blocked","m160","ball","6","m160cad.wav","None","728.556137998","186","611946.861825","604258.144092","605025.532603","605775.983678","606542.841349","607310.565307","608077.367945","608844.752437","612714.307533","613481.647814","614248.607509","615015.906671","615766.377533","616533.706993","617301.064278","618068.666115","617310.396501","Mapping"
"Blocked","m160","ball","6","m160greet.wav","None","724.992981646","186","611946.861825","618835.629212","605025.532603","605775.983678","606542.841349","607310.565307","608077.367945","608844.752437","612714.307533","613481.647814","614248.607509","615015.906671","615766.377533","616533.706993","617301.064278","618068.666115","618077.749149","Mapping"
"Blocked","m160","ball","6","m160ball.wav","None","721.770528238","186","611946.861825","618835.629212","619585.785032","605775.983678","606542.841349","607310.565307","608077.367945","608844.752437","612714.307533","613481.647814","614248.607509","615015.906671","615766.377533","616533.706993","617301.064278","618068.666115","618844.913513","Mapping"
"Blocked","m160","ball","6","m160park.wav","space","393.651305698","186","611946.861825","618835.629212","619585.785032","620352.963309","606542.841349","607310.565307","608077.367945","608844.752437","612714.307533","613481.647814","614248.607509","615015.906671","615766.377533","616533.706993","617301.064278","618068.666115","619595.31234","Mapping"
"Blocked","m160","ball","6","m160ball.wav","None","731.304019224","186","611946.861825","618835.629212","619585.785032","620352.963309","621120.427875","607310.565307","608077.367945","608844.752437","612714.307533","613481.647814","614248.607509","615015.906671","615766.377533","616533.706993","617301.064278","618068.666115","620362.162899","Mapping"
