"Condition","Talker","Target","Trial","current_stimulus","response_response","response_time_response","subject_nr","time_Audio1","time_Audio10","time_Audio11","time_Audio12","time_Audio13","time_Audio14","time_Audio15","time_Audio16","time_Audio2","time_Audio3","time_Audio4","time_Audio5","time_Audio6","time_Audio7","time_Audio8","time_Audio9","time_response","title"
"Mixed","Both","ball","1","m150done.wav","NA","NA","171","113776.686908","NA","NA","NA","NA","NA","NA","NA","NA","NA","NA","NA","NA","NA","NA","NA","NA","Mapping"
"Mixed","Both","ball","1","m150ball.wav","lshift","0.0383374281228","171","113776.686908","NA","NA","NA","NA","NA","NA","NA","114543.789418","NA","NA","NA","NA","NA","NA","NA","113790.835336","Mapping"
"Mixed","Both","ball","1","m160tile.wav","b","0.0343185383826","171","113776.686908","NA","NA","NA","NA","NA","NA","NA","114543.789418","115309.879073","NA","NA","NA","NA","NA","NA","114554.053072","Mapping"
"Mixed","Both","ball","1","m150jolt.wav","None","718.634204473","171","113776.686908","NA","NA","NA","NA","NA","NA","NA","114543.789418","115309.879073","116059.691945","NA","NA","NA","NA","NA","115320.060796","Mapping"
"Mixed","Both","ball","1","m160ball.wav","None","735.798935406","171","113776.686908","NA","NA","NA","NA","NA","NA","NA","114543.789418","115309.879073","116059.691945","116826.190328","NA","NA","NA","NA","116069.039516","Mapping"
"Mixed","Both","ball","1","m150cave.wav","None","734.235750977","171","113776.686908","NA","NA","NA","NA","NA","NA","NA","114543.789418","115309.879073","116059.691945","116826.190328","117593.204723","NA","NA","NA","116835.89716","Mapping"
"Mixed","Both","ball","1","m160romp.wav","b","149.726859992","171","113776.686908","NA","NA","NA","NA","NA","NA","NA","114543.789418","115309.879073","116059.691945","116826.190328","117593.204723","118359.141337","NA","NA","117603.401905","Mapping"
"Mixed","Both","ball","1","m150cave.wav","a","0.0337001401931","171","113776.686908","NA","NA","NA","NA","NA","NA","NA","114543.789418","115309.879073","116059.691945","116826.190328","117593.204723","118359.141337","119125.96157","NA","118368.865482","Mapping"
"Mixed","Both","ball","1","m150greet.wav","k","0.0336999073625","171","113776.686908","NA","NA","NA","NA","NA","NA","NA","114543.789418","115309.879073","116059.691945","116826.190328","117593.204723","118359.141337","119125.96157","119892.815195","119135.65418","Mapping"
"Mixed","Both","ball","1","m160priest.wav","c","0.0346275046468","171","113776.686908","120659.356862","NA","NA","NA","NA","NA","NA","114543.789418","115309.879073","116059.691945","116826.190328","117593.204723","118359.141337","119125.96157","119892.815195","119902.657445","Mapping"
"Mixed","Both","ball","1","m150ball.wav","c","0.034318305552","171","113776.686908","120659.356862","121425.866375","NA","NA","NA","NA","NA","114543.789418","115309.879073","116059.691945","116826.190328","117593.204723","118359.141337","119125.96157","119892.815195","120669.123055","Mapping"
"Mixed","Both","ball","1","m160tile.wav","space","0.0340093392879","171","113776.686908","120659.356862","121425.866375","122192.675788","NA","NA","NA","NA","114543.789418","115309.879073","116059.691945","116826.190328","117593.204723","118359.141337","119125.96157","119892.815195","121435.539198","Mapping"
"Mixed","Both","ball","1","m160ball.wav","r","0.0330815091729","171","113776.686908","120659.356862","121425.866375","122192.675788","122959.603305","NA","NA","NA","114543.789418","115309.879073","116059.691945","116826.190328","117593.204723","118359.141337","119125.96157","119892.815195","122202.449092","Mapping"
"Mixed","Both","ball","1","m150priest.wav","space","0.034318305552","171","113776.686908","120659.356862","121425.866375","122192.675788","122959.603305","123726.284101","NA","NA","114543.789418","115309.879073","116059.691945","116826.190328","117593.204723","118359.141337","119125.96157","119892.815195","122969.881491","Mapping"
"Mixed","Both","ball","1","m160reek.wav","l","0.034318305552","171","113776.686908","120659.356862","121425.866375","122192.675788","122959.603305","123726.284101","124493.086093","NA","114543.789418","115309.879073","116059.691945","116826.190328","117593.204723","118359.141337","119125.96157","119892.815195","123736.3437","Mapping"
"Mixed","Both","ball","1","m160priest.wav","a","0.0336999073625","171","113776.686908","120659.356862","121425.866375","122192.675788","122959.603305","123726.284101","124493.086093","125243.000374","114543.789418","115309.879073","116059.691945","116826.190328","117593.204723","118359.141337","119125.96157","119892.815195","124503.882454","Mapping"
"Mixed","Both","ball","8","m150bluff.wav","p","0.034318305552","171","128409.471488","120659.356862","121425.866375","122192.675788","122959.603305","123726.284101","124493.086093","125243.000374","114543.789418","115309.879073","116059.691945","116826.190328","117593.204723","118359.141337","119125.96157","119892.815195","125252.547363","Mapping"
"Mixed","Both","ball","8","m150ball.wav","space","0.0389560591429","171","128409.471488","120659.356862","121425.866375","122192.675788","122959.603305","123726.284101","124493.086093","125243.000374","129175.993678","115309.879073","116059.691945","116826.190328","117593.204723","118359.141337","119125.96157","119892.815195","128419.672071","Mapping"
"Mixed","Both","ball","8","m150dime.wav","l","0.0336999073625","171","128409.471488","120659.356862","121425.866375","122192.675788","122959.603305","123726.284101","124493.086093","125243.000374","129175.993678","129943.051357","116059.691945","116826.190328","117593.204723","118359.141337","119125.96157","119892.815195","129186.343592","Mapping"
"Mixed","Both","ball","8","m160ball.wav","l","0.0401926226914","171","128409.471488","120659.356862","121425.866375","122192.675788","122959.603305","123726.284101","124493.086093","125243.000374","129175.993678","129943.051357","130692.48611","116826.190328","117593.204723","118359.141337","119125.96157","119892.815195","129953.555858","Mapping"
"Mixed","Both","ball","8","m160knife.wav","e","0.0346275046468","171","128409.471488","120659.356862","121425.866375","122192.675788","122959.603305","123726.284101","124493.086093","125243.000374","129175.993678","129943.051357","130692.48611","131459.148664","117593.204723","118359.141337","119125.96157","119892.815195","130702.173773","Mapping"
"Mixed","Both","ball","8","m160park.wav","t","0.0333907082677","171","128409.471488","120659.356862","121425.866375","122192.675788","122959.603305","123726.284101","124493.086093","125243.000374","129175.993678","129943.051357","130692.48611","131459.148664","132225.725887","118359.141337","119125.96157","119892.815195","131468.659789","Mapping"
"Mixed","Both","ball","8","m150lash.wav","b","0.0336999073625","171","128409.471488","120659.356862","121425.866375","122192.675788","122959.603305","123726.284101","124493.086093","125243.000374","129175.993678","129943.051357","130692.48611","131459.148664","132225.725887","132992.588786","119125.96157","119892.815195","132235.366555","Mapping"
"Mixed","Both","ball","8","m160dime.wav","m","0.034318305552","171","128409.471488","120659.356862","121425.866375","122192.675788","122959.603305","123726.284101","124493.086093","125243.000374","129175.993678","129943.051357","130692.48611","131459.148664","132225.725887","132992.588786","133758.961336","119892.815195","133002.238112","Mapping"
"Mixed","Both","ball","8","m160lash.wav","None","730.545448139","171","128409.471488","120659.356862","121425.866375","122192.675788","122959.603305","123726.284101","124493.086093","125243.000374","129175.993678","129943.051357","130692.48611","131459.148664","132225.725887","132992.588786","133758.961336","134525.670885","133768.606951","Mapping"
"Mixed","Both","ball","8","m150depth.wav","None","730.072720675","171","128409.471488","135292.49792","121425.866375","122192.675788","122959.603305","123726.284101","124493.086093","125243.000374","129175.993678","129943.051357","130692.48611","131459.148664","132225.725887","132992.588786","133758.961336","134525.670885","134534.802962","Mapping"
"Mixed","Both","ball","8","m150ball.wav","l","0.0346275046468","171","128409.471488","135292.49792","136058.961985","122192.675788","122959.603305","123726.284101","124493.086093","125243.000374","129175.993678","129943.051357","130692.48611","131459.148664","132225.725887","132992.588786","133758.961336","134525.670885","135302.223921","Mapping"
"Mixed","Both","ball","8","m160bluff.wav","d","0.0389560591429","171","128409.471488","135292.49792","136058.961985","136825.627013","122959.603305","123726.284101","124493.086093","125243.000374","129175.993678","129943.051357","130692.48611","131459.148664","132225.725887","132992.588786","133758.961336","134525.670885","136068.512375","Mapping"
"Mixed","Both","ball","8","m150cave.wav","j","0.0395742245018","171","128409.471488","135292.49792","136058.961985","136825.627013","137592.066344","123726.284101","124493.086093","125243.000374","129175.993678","129943.051357","130692.48611","131459.148664","132225.725887","132992.588786","133758.961336","134525.670885","136835.444529","Mapping"
"Mixed","Both","ball","8","m160priest.wav","b","0.0222604721785","171","128409.471488","135292.49792","136058.961985","136825.627013","137592.066344","138359.648691","124493.086093","125243.000374","129175.993678","129943.051357","130692.48611","131459.148664","132225.725887","132992.588786","133758.961336","134525.670885","137601.080007","Mapping"
"Mixed","Both","ball","8","m160ball.wav","o","0.034318305552","171","128409.471488","135292.49792","136058.961985","136825.627013","137592.066344","138359.648691","139126.277237","125243.000374","129175.993678","129943.051357","130692.48611","131459.148664","132225.725887","132992.588786","133758.961336","134525.670885","138369.702726","Mapping"
"Mixed","Both","ball","8","m150lash.wav","o","0.0386466272175","171","128409.471488","135292.49792","136058.961985","136825.627013","137592.066344","138359.648691","139126.277237","139892.759543","129175.993678","129943.051357","130692.48611","131459.148664","132225.725887","132992.588786","133758.961336","134525.670885","139135.92378","Mapping"
"Mixed","Both","done","37","m150jolt.wav","o","0.0377192627639","171","143009.500613","135292.49792","136058.961985","136825.627013","137592.066344","138359.648691","139126.277237","139892.759543","129175.993678","129943.051357","130692.48611","131459.148664","132225.725887","132992.588786","133758.961336","134525.670885","139903.01485","Mapping"
"Mixed","Both","done","37","m160bluff.wav","f","0.0340091064572","171","143009.500613","135292.49792","136058.961985","136825.627013","137592.066344","138359.648691","139126.277237","139892.759543","143775.96375","129943.051357","130692.48611","131459.148664","132225.725887","132992.588786","133758.961336","134525.670885","143019.611535","Mapping"
"Mixed","Both","done","37","m150gnash.wav","d","0.0386468600482","171","143009.500613","135292.49792","136058.961985","136825.627013","137592.066344","138359.648691","139126.277237","139892.759543","143775.96375","144542.696178","130692.48611","131459.148664","132225.725887","132992.588786","133758.961336","134525.670885","143786.385702","Mapping"
"Mixed","Both","done","37","m150jolt.wav","n","0.0343185383826","171","143009.500613","135292.49792","136058.961985","136825.627013","137592.066344","138359.648691","139126.277237","139892.759543","143775.96375","144542.696178","145292.277479","131459.148664","132225.725887","132992.588786","133758.961336","134525.670885","144552.647257","Mapping"
"Mixed","Both","done","37","m150done.wav","j","10.5508773122","171","143009.500613","135292.49792","136058.961985","136825.627013","137592.066344","138359.648691","139126.277237","139892.759543","143775.96375","144542.696178","145292.277479","146059.011762","132225.725887","132992.588786","133758.961336","134525.670885","145302.139516","Mapping"
"Mixed","Both","done","37","m160jolt.wav","o","0.0340091064572","171","143009.500613","135292.49792","136058.961985","136825.627013","137592.066344","138359.648691","139126.277237","139892.759543","143775.96375","144542.696178","145292.277479","146059.011762","146825.485411","132992.588786","133758.961336","134525.670885","146068.630788","Mapping"
"Mixed","Both","done","37","m160greet.wav","j","0.0333909410983","171","143009.500613","135292.49792","136058.961985","136825.627013","137592.066344","138359.648691","139126.277237","139892.759543","143775.96375","144542.696178","145292.277479","146059.011762","146825.485411","147591.895371","133758.961336","134525.670885","146835.858822","Mapping"
"Mixed","Both","done","37","m160done.wav","d","0.0371008645743","171","143009.500613","135292.49792","136058.961985","136825.627013","137592.066344","138359.648691","139126.277237","139892.759543","143775.96375","144542.696178","145292.277479","146059.011762","146825.485411","147591.895371","148358.967272","134525.670885","147601.395365","Mapping"
"Mixed","Both","done","37","m160tile.wav","e","0.034318305552","171","143009.500613","135292.49792","136058.961985","136825.627013","137592.066344","138359.648691","139126.277237","139892.759543","143775.96375","144542.696178","145292.277479","146059.011762","146825.485411","147591.895371","148358.967272","149125.480186","148368.267849","Mapping"
"Mixed","Both","done","37","m150park.wav","s","513.615566073","171","143009.500613","149892.278777","136058.961985","136825.627013","137592.066344","138359.648691","139126.277237","139892.759543","143775.96375","144542.696178","145292.277479","146059.011762","146825.485411","147591.895371","148358.967272","149125.480186","149135.021301","Mapping"
"Mixed","Both","done","37","m160done.wav","t","146.349132294","171","143009.500613","149892.278777","150658.923091","136825.627013","137592.066344","138359.648691","139126.277237","139892.759543","143775.96375","144542.696178","145292.277479","146059.011762","146825.485411","147591.895371","148358.967272","149125.480186","149902.28118","Mapping"
"Mixed","Both","done","37","m160priest.wav","i","0.0337001401931","171","143009.500613","149892.278777","150658.923091","151425.409725","137592.066344","138359.648691","139126.277237","139892.759543","143775.96375","144542.696178","145292.277479","146059.011762","146825.485411","147591.895371","148358.967272","149125.480186","150668.399279","Mapping"
"Mixed","Both","done","37","m150jaw.wav","t","0.0343185383826","171","143009.500613","149892.278777","150658.923091","151425.409725","152191.953866","138359.648691","139126.277237","139892.759543","143775.96375","144542.696178","145292.277479","146059.011762","146825.485411","147591.895371","148358.967272","149125.480186","151434.880966","Mapping"
"Mixed","Both","done","37","m160knife.wav","i","0.0219515059143","171","143009.500613","149892.278777","150658.923091","151425.409725","152191.953866","152959.348855","139126.277237","139892.759543","143775.96375","144542.696178","145292.277479","146059.011762","146825.485411","147591.895371","148358.967272","149125.480186","152201.373784","Mapping"
"Mixed","Both","done","37","m150done.wav","r","0.0340091064572","171","143009.500613","149892.278777","150658.923091","151425.409725","152191.953866","152959.348855","153725.759432","139892.759543","143775.96375","144542.696178","145292.277479","146059.011762","146825.485411","147591.895371","148358.967272","149125.480186","152969.656412","Mapping"
"Mixed","Both","done","37","m150reek.wav","s","0.0346275046468","171","143009.500613","149892.278777","150658.923091","151425.409725","152191.953866","152959.348855","153725.759432","154492.333254","143775.96375","144542.696178","145292.277479","146059.011762","146825.485411","147591.895371","148358.967272","149125.480186","153735.924769","Mapping"
"Mixed","Both","done","43","m150cad.wav","k","0.0216420739889","171","157609.287963","149892.278777","150658.923091","151425.409725","152191.953866","152959.348855","153725.759432","154492.333254","143775.96375","144542.696178","145292.277479","146059.011762","146825.485411","147591.895371","148358.967272","149125.480186","154501.481408","Mapping"
"Mixed","Both","done","43","m150done.wav","None","721.400076756","171","157609.287963","149892.278777","150658.923091","151425.409725","152191.953866","152959.348855","153725.759432","154492.333254","158375.63516","144542.696178","145292.277479","146059.011762","146825.485411","147591.895371","148358.967272","149125.480186","157619.032823","Mapping"
"Mixed","Both","done","43","m150knife.wav","c","302.446217043","171","157609.287963","149892.278777","150658.923091","151425.409725","152191.953866","152959.348855","153725.759432","154492.333254","158375.63516","159142.616473","145292.277479","146059.011762","146825.485411","147591.895371","148358.967272","149125.480186","158386.07999","Mapping"
"Mixed","Both","done","43","m150knife.wav","a","0.0336999073625","171","157609.287963","149892.278777","150658.923091","151425.409725","152191.953866","152959.348855","153725.759432","154492.333254","158375.63516","159142.616473","159891.93714","146059.011762","146825.485411","147591.895371","148358.967272","149125.480186","159152.39256","Mapping"
"Mixed","Both","done","43","m160cling.wav","d","0.0680182129145","171","157609.287963","149892.278777","150658.923091","151425.409725","152191.953866","152959.348855","153725.759432","154492.333254","158375.63516","159142.616473","159891.93714","160658.694302","146825.485411","147591.895371","148358.967272","149125.480186","159902.134013","Mapping"
"Mixed","Both","done","43","m150reek.wav","n","0.0680182129145","171","157609.287963","149892.278777","150658.923091","151425.409725","152191.953866","152959.348855","153725.759432","154492.333254","158375.63516","159142.616473","159891.93714","160658.694302","161425.210308","147591.895371","148358.967272","149125.480186","160668.135244","Mapping"
"Mixed","Both","done","43","m150greet.wav","i","0.0336999073625","171","157609.287963","149892.278777","150658.923091","151425.409725","152191.953866","152959.348855","153725.759432","154492.333254","158375.63516","159142.616473","159891.93714","160658.694302","161425.210308","162192.1471","148358.967272","149125.480186","161434.899208","Mapping"
"Mixed","Both","done","43","m150done.wav","e","0.0346275046468","171","157609.287963","149892.278777","150658.923091","151425.409725","152191.953866","152959.348855","153725.759432","154492.333254","158375.63516","159142.616473","159891.93714","160658.694302","161425.210308","162192.1471","162958.308174","149125.480186","162201.926897","Mapping"
"Mixed","Both","done","43","m160priest.wav","e","0.0194781459868","171","157609.287963","149892.278777","150658.923091","151425.409725","152191.953866","152959.348855","153725.759432","154492.333254","158375.63516","159142.616473","159891.93714","160658.694302","161425.210308","162192.1471","162958.308174","163725.242802","162968.040049","Mapping"
"Mixed","Both","done","43","m160cave.wav","r","0.0340091064572","171","157609.287963","164492.535763","150658.923091","151425.409725","152191.953866","152959.348855","153725.759432","154492.333254","158375.63516","159142.616473","159891.93714","160658.694302","161425.210308","162192.1471","162958.308174","163725.242802","163734.930774","Mapping"
"Mixed","Both","done","43","m160jaw.wav","t","0.0349367037416","171","157609.287963","164492.535763","165258.648606","151425.409725","152191.953866","152959.348855","153725.759432","154492.333254","158375.63516","159142.616473","159891.93714","160658.694302","161425.210308","162192.1471","162958.308174","163725.242802","164502.67853","Mapping"
"Mixed","Both","done","43","m160done.wav","p","0.0340091064572","171","157609.287963","164492.535763","165258.648606","166025.531293","152191.953866","152959.348855","153725.759432","154492.333254","158375.63516","159142.616473","159891.93714","160658.694302","161425.210308","162192.1471","162958.308174","163725.242802","165268.439842","Mapping"
"Mixed","Both","done","43","m160cling.wav","c","0.0222607050091","171","157609.287963","164492.535763","165258.648606","166025.531293","166792.654208","152959.348855","153725.759432","154492.333254","158375.63516","159142.616473","159891.93714","160658.694302","161425.210308","162192.1471","162958.308174","163725.242802","166035.585636","Mapping"
"Mixed","Both","done","43","m160depth.wav","j","0.0343185383826","171","157609.287963","164492.535763","165258.648606","166025.531293","166792.654208","167559.008825","153725.759432","154492.333254","158375.63516","159142.616473","159891.93714","160658.694302","161425.210308","162192.1471","162958.308174","163725.242802","166802.762966","Mapping"
"Mixed","Both","done","43","m160done.wav","d","0.0333909410983","171","157609.287963","164492.535763","165258.648606","166025.531293","166792.654208","167559.008825","168308.792326","154492.333254","158375.63516","159142.616473","159891.93714","160658.694302","161425.210308","162192.1471","162958.308174","163725.242802","167569.26475","Mapping"
"Mixed","Both","done","43","m150jolt.wav","d","593.78658887","171","157609.287963","164492.535763","165258.648606","166025.531293","166792.654208","167559.008825","168308.792326","169075.142305","158375.63516","159142.616473","159891.93714","160658.694302","161425.210308","162192.1471","162958.308174","163725.242802","168318.59531","Mapping"
"Mixed","Both","done","46","m160cad.wav","a","0.0340093392879","171","172208.923199","164492.535763","165258.648606","166025.531293","166792.654208","167559.008825","168308.792326","169075.142305","158375.63516","159142.616473","159891.93714","160658.694302","161425.210308","162192.1471","162958.308174","163725.242802","169084.259851","Mapping"
"Mixed","Both","done","46","m160bluff.wav","j","0.0333907082677","171","172208.923199","164492.535763","165258.648606","166025.531293","166792.654208","167559.008825","168308.792326","169075.142305","172975.674796","159142.616473","159891.93714","160658.694302","161425.210308","162192.1471","162958.308174","163725.242802","172219.071841","Mapping"
"Mixed","Both","done","46","m160done.wav","d","0.0349367037416","171","172208.923199","164492.535763","165258.648606","166025.531293","166792.654208","167559.008825","168308.792326","169075.142305","172975.674796","173725.29227","159891.93714","160658.694302","161425.210308","162192.1471","162958.308174","163725.242802","172986.132921","Mapping"
"Mixed","Both","done","46","m150priest.wav","c","0.0333907082677","171","172208.923199","164492.535763","165258.648606","166025.531293","166792.654208","167559.008825","168308.792326","169075.142305","172975.674796","173725.29227","174491.806112","160658.694302","161425.210308","162192.1471","162958.308174","163725.242802","173734.683126","Mapping"
"Mixed","Both","done","46","m160done.wav","a","0.0340093392879","171","172208.923199","164492.535763","165258.648606","166025.531293","166792.654208","167559.008825","168308.792326","169075.142305","172975.674796","173725.29227","174491.806112","175258.331703","161425.210308","162192.1471","162958.308174","163725.242802","174501.880861","Mapping"
"Mixed","Both","done","46","m150depth.wav","l","0.0340091064572","171","172208.923199","164492.535763","165258.648606","166025.531293","166792.654208","167559.008825","168308.792326","169075.142305","172975.674796","173725.29227","174491.806112","175258.331703","176025.083299","162192.1471","162958.308174","163725.242802","175268.029568","Mapping"
"Mixed","Both","done","46","m150cling.wav","space","0.0340091064572","171","172208.923199","164492.535763","165258.648606","166025.531293","166792.654208","167559.008825","168308.792326","169075.142305","172975.674796","173725.29227","174491.806112","175258.331703","176025.083299","176791.87076","162958.308174","163725.242802","176035.148155","Mapping"
"Mixed","Both","done","46","m150tile.wav","e","0.0337001401931","171","172208.923199","164492.535763","165258.648606","166025.531293","166792.654208","167559.008825","168308.792326","169075.142305","172975.674796","173725.29227","174491.806112","175258.331703","176025.083299","176791.87076","177558.524967","163725.242802","176801.619949","Mapping"
"Mixed","Both","done","46","m150jolt.wav","d","0.0340091064572","171","172208.923199","164492.535763","165258.648606","166025.531293","166792.654208","167559.008825","168308.792326","169075.142305","172975.674796","173725.29227","174491.806112","175258.331703","176025.083299","176791.87076","177558.524967","178325.026133","177568.715038","Mapping"
"Mixed","Both","done","46","m150romp.wav","d","0.0389558263123","171","172208.923199","179092.097416","165258.648606","166025.531293","166792.654208","167559.008825","168308.792326","169075.142305","172975.674796","173725.29227","174491.806112","175258.331703","176025.083299","176791.87076","177558.524967","178325.026133","178335.056052","Mapping"
"Mixed","Both","done","46","m150done.wav","h","0.034318305552","171","172208.923199","179092.097416","179858.531182","166025.531293","166792.654208","167559.008825","168308.792326","169075.142305","172975.674796","173725.29227","174491.806112","175258.331703","176025.083299","176791.87076","177558.524967","178325.026133","179101.9981","Mapping"
"Mixed","Both","done","46","m160dime.wav","space","0.0225696712732","171","172208.923199","179092.097416","179858.531182","180625.33843","166792.654208","167559.008825","168308.792326","169075.142305","172975.674796","173725.29227","174491.806112","175258.331703","176025.083299","176791.87076","177558.524967","178325.026133","179868.436812","Mapping"
"Mixed","Both","done","46","m160ball.wav","d","420.604540501","171","172208.923199","179092.097416","179858.531182","180625.33843","181392.392708","167559.008825","168308.792326","169075.142305","172975.674796","173725.29227","174491.806112","175258.331703","176025.083299","176791.87076","177558.524967","178325.026133","180635.549834","Mapping"
"Mixed","Both","done","46","m160lash.wav","o","237.950014416","171","172208.923199","179092.097416","179858.531182","180625.33843","181392.392708","182158.434441","168308.792326","169075.142305","172975.674796","173725.29227","174491.806112","175258.331703","176025.083299","176791.87076","177558.524967","178325.026133","181402.208678","Mapping"
"Mixed","Both","done","46","m150done.wav","w","0.0315359793603","171","172208.923199","179092.097416","179858.531182","180625.33843","181392.392708","182158.434441","182925.016301","169075.142305","172975.674796","173725.29227","174491.806112","175258.331703","176025.083299","176791.87076","177558.524967","178325.026133","182167.556315","Mapping"
"Mixed","Both","done","46","m160reek.wav","b","0.0262795947492","171","172208.923199","179092.097416","179858.531182","180625.33843","181392.392708","182158.434441","182925.016301","183674.757136","172975.674796","173725.29227","174491.806112","175258.331703","176025.083299","176791.87076","177558.524967","178325.026133","182934.262773","Mapping"
"Mixed","Both","ball","12","m150jaw.wav","l","0.0337001401931","171","186808.883687","179092.097416","179858.531182","180625.33843","181392.392708","182158.434441","182925.016301","183674.757136","172975.674796","173725.29227","174491.806112","175258.331703","176025.083299","176791.87076","177558.524967","178325.026133","183684.63896","Mapping"
"Mixed","Both","ball","12","m160ball.wav","space","0.0389558263123","171","186808.883687","179092.097416","179858.531182","180625.33843","181392.392708","182158.434441","182925.016301","183674.757136","187574.802368","173725.29227","174491.806112","175258.331703","176025.083299","176791.87076","177558.524967","178325.026133","186818.674305","Mapping"
"Mixed","Both","ball","12","m160cling.wav","b","0.0250430312008","171","186808.883687","179092.097416","179858.531182","180625.33843","181392.392708","182158.434441","182925.016301","183674.757136","187574.802368","188325.232043","174491.806112","175258.331703","176025.083299","176791.87076","177558.524967","178325.026133","187584.012666","Mapping"
"Mixed","Both","ball","12","m150ball.wav","l","0.0346275046468","171","186808.883687","179092.097416","179858.531182","180625.33843","181392.392708","182158.434441","182925.016301","183674.757136","187574.802368","188325.232043","189091.586351","175258.331703","176025.083299","176791.87076","177558.524967","178325.026133","188335.340492","Mapping"
"Mixed","Both","ball","12","m160dime.wav","j","0.0349367037416","171","186808.883687","179092.097416","179858.531182","180625.33843","181392.392708","182158.434441","182925.016301","183674.757136","187574.802368","188325.232043","189091.586351","189858.050107","176025.083299","176791.87076","177558.524967","178325.026133","189101.8296","Mapping"
"Mixed","Both","ball","12","m150tile.wav","space","0.0340091064572","171","186808.883687","179092.097416","179858.531182","180625.33843","181392.392708","182158.434441","182925.016301","183674.757136","187574.802368","188325.232043","189091.586351","189858.050107","190624.829838","176791.87076","177558.524967","178325.026133","189867.837015","Mapping"
"Mixed","Both","ball","12","m150ball.wav","l","0.0349367037416","171","186808.883687","179092.097416","179858.531182","180625.33843","181392.392708","182158.434441","182925.016301","183674.757136","187574.802368","188325.232043","189091.586351","189858.050107","190624.829838","191391.655637","177558.524967","178325.026133","190634.576863","Mapping"
"Mixed","Both","ball","12","m150lash.wav","m","0.0355551019311","171","186808.883687","179092.097416","179858.531182","180625.33843","181392.392708","182158.434441","182925.016301","183674.757136","187574.802368","188325.232043","189091.586351","189858.050107","190624.829838","191391.655637","192158.272434","178325.026133","191401.811389","Mapping"
"Mixed","Both","ball","12","m150tile.wav","space","0.0401926226914","171","186808.883687","179092.097416","179858.531182","180625.33843","181392.392708","182158.434441","182925.016301","183674.757136","187574.802368","188325.232043","189091.586351","189858.050107","190624.829838","191391.655637","192158.272434","192924.800189","192167.701627","Mapping"
"Mixed","Both","ball","12","m160ball.wav","a","0.0346275046468","171","186808.883687","193691.791704","179858.531182","180625.33843","181392.392708","182158.434441","182925.016301","183674.757136","187574.802368","188325.232043","189091.586351","189858.050107","190624.829838","191391.655637","192158.272434","192924.800189","192934.586169","Mapping"
"Mixed","Both","ball","12","m160romp.wav","l","0.0340093392879","171","186808.883687","193691.791704","194458.927914","180625.33843","181392.392708","182158.434441","182925.016301","183674.757136","187574.802368","188325.232043","189091.586351","189858.050107","190624.829838","191391.655637","192158.272434","192924.800189","193701.275622","Mapping"
"Mixed","Both","ball","12","m160gnash.wav","a","0.0340091064572","171","186808.883687","193691.791704","194458.927914","195225.167209","181392.392708","182158.434441","182925.016301","183674.757136","187574.802368","188325.232043","189091.586351","189858.050107","190624.829838","191391.655637","192158.272434","192924.800189","194468.587751","Mapping"
"Mixed","Both","ball","12","m160done.wav","space","0.0401926226914","171","186808.883687","193691.791704","194458.927914","195225.167209","195991.902111","182158.434441","182925.016301","183674.757136","187574.802368","188325.232043","189091.586351","189858.050107","190624.829838","191391.655637","192158.272434","192924.800189","195235.642648","Mapping"
"Mixed","Both","ball","12","m160lash.wav","l","0.0392650254071","171","186808.883687","193691.791704","194458.927914","195225.167209","195991.902111","196758.374832","182925.016301","183674.757136","187574.802368","188325.232043","189091.586351","189858.050107","190624.829838","191391.655637","192158.272434","192924.800189","196002.017671","Mapping"
"Mixed","Both","ball","12","m150reek.wav","n","0.0389560591429","171","186808.883687","193691.791704","194458.927914","195225.167209","195991.902111","196758.374832","197508.55995","183674.757136","187574.802368","188325.232043","189091.586351","189858.050107","190624.829838","191391.655637","192158.272434","192924.800189","196768.691665","Mapping"
"Mixed","Both","ball","12","m150done.wav","d","0.034318305552","171","186808.883687","193691.791704","194458.927914","195225.167209","195991.902111","196758.374832","197508.55995","198274.690107","187574.802368","188325.232043","189091.586351","189858.050107","190624.829838","191391.655637","192158.272434","192924.800189","197518.30141","Mapping"
"Mixed","Both","tile","35","m150greet.wav","f","0.066781649366","171","201408.214696","193691.791704","194458.927914","195225.167209","195991.902111","196758.374832","197508.55995","198274.690107","187574.802368","188325.232043","189091.586351","189858.050107","190624.829838","191391.655637","192158.272434","192924.800189","198284.584607","Mapping"
"Mixed","Both","tile","35","m160tile.wav","t","309.120359365","171","201408.214696","193691.791704","194458.927914","195225.167209","195991.902111","196758.374832","197508.55995","198274.690107","202175.13201","188325.232043","189091.586351","189858.050107","190624.829838","191391.655637","192158.272434","192924.800189","201418.750423","Mapping"
"Mixed","Both","tile","35","m150ball.wav","i","0.0333907082677","171","201408.214696","193691.791704","194458.927914","195225.167209","195991.902111","196758.374832","197508.55995","198274.690107","202175.13201","202924.791532","189091.586351","189858.050107","190624.829838","191391.655637","192158.272434","192924.800189","202185.131629","Mapping"
"Mixed","Both","tile","35","m150tile.wav","c","313.862163341","171","201408.214696","193691.791704","194458.927914","195225.167209","195991.902111","196758.374832","197508.55995","198274.690107","202175.13201","202924.791532","203691.35515","189858.050107","190624.829838","191391.655637","192158.272434","192924.800189","202933.978951","Mapping"
"Mixed","Both","tile","35","m150cave.wav","a","0.0340091064572","171","201408.214696","193691.791704","194458.927914","195225.167209","195991.902111","196758.374832","197508.55995","198274.690107","202175.13201","202924.791532","203691.35515","204457.79139","190624.829838","191391.655637","192158.272434","192924.800189","203701.315814","Mapping"
"Mixed","Both","tile","35","m160lash.wav","r","0.0188595149666","171","201408.214696","193691.791704","194458.927914","195225.167209","195991.902111","196758.374832","197508.55995","198274.690107","202175.13201","202924.791532","203691.35515","204457.79139","205224.608531","191391.655637","192158.272434","192924.800189","204466.82484","Mapping"
"Mixed","Both","tile","35","m160greet.wav","e","0.0336999073625","171","201408.214696","193691.791704","194458.927914","195225.167209","195991.902111","196758.374832","197508.55995","198274.690107","202175.13201","202924.791532","203691.35515","204457.79139","205224.608531","205991.354254","192158.272434","192924.800189","205233.809863","Mapping"
"Mixed","Both","tile","35","m150cad.wav","k","0.0346275046468","171","201408.214696","193691.791704","194458.927914","195225.167209","195991.902111","196758.374832","197508.55995","198274.690107","202175.13201","202924.791532","203691.35515","204457.79139","205224.608531","205991.354254","206757.815536","192924.800189","206001.301314","Mapping"
"Mixed","Both","tile","35","m150reek.wav","v","0.0336999073625","171","201408.214696","193691.791704","194458.927914","195225.167209","195991.902111","196758.374832","197508.55995","198274.690107","202175.13201","202924.791532","203691.35515","204457.79139","205224.608531","205991.354254","206757.815536","207524.594649","206768.560884","Mapping"
"Mixed","Both","tile","35","m160tile.wav","g","0.0337001401931","171","201408.214696","208291.343155","194458.927914","195225.167209","195991.902111","196758.374832","197508.55995","198274.690107","202175.13201","202924.791532","203691.35515","204457.79139","205224.608531","205991.354254","206757.815536","207524.594649","207534.312921","Mapping"
"Mixed","Both","tile","35","m160priest.wav","p","0.0340093392879","171","201408.214696","208291.343155","209057.827316","195225.167209","195991.902111","196758.374832","197508.55995","198274.690107","202175.13201","202924.791532","203691.35515","204457.79139","205224.608531","205991.354254","206757.815536","207524.594649","208301.262389","Mapping"
"Mixed","Both","tile","35","m160greet.wav","b","0.0346275046468","171","201408.214696","208291.343155","209057.827316","209824.817595","195991.902111","196758.374832","197508.55995","198274.690107","202175.13201","202924.791532","203691.35515","204457.79139","205224.608531","205991.354254","206757.815536","207524.594649","209067.634011","Mapping"
"Mixed","Both","tile","35","m160reek.wav","r","0.0340091064572","171","201408.214696","208291.343155","209057.827316","209824.817595","210591.772628","196758.374832","197508.55995","198274.690107","202175.13201","202924.791532","203691.35515","204457.79139","205224.608531","205991.354254","206757.815536","207524.594649","209834.483616","Mapping"
"Mixed","Both","tile","35","m150cad.wav","p","0.034318305552","171","201408.214696","208291.343155","209057.827316","209824.817595","210591.772628","211357.726865","197508.55995","198274.690107","202175.13201","202924.791532","203691.35515","204457.79139","205224.608531","205991.354254","206757.815536","207524.594649","210602.036901","Mapping"
"Mixed","Both","tile","35","m150tile.wav","r","0.0364824663848","171","201408.214696","208291.343155","209057.827316","209824.817595","210591.772628","211357.726865","212124.689319","198274.690107","202175.13201","202924.791532","203691.35515","204457.79139","205224.608531","205991.354254","206757.815536","207524.594649","211367.040737","Mapping"
"Mixed","Both","tile","35","m160reek.wav","space","0.0383376609534","171","201408.214696","208291.343155","209057.827316","209824.817595","210591.772628","211357.726865","212124.689319","212891.867267","202175.13201","202924.791532","203691.35515","204457.79139","205224.608531","205991.354254","206757.815536","207524.594649","212135.200931","Mapping"
"Mixed","Both","done","41","m160park.wav","c","0.034318305552","171","216008.096962","208291.343155","209057.827316","209824.817595","210591.772628","211357.726865","212124.689319","212891.867267","202175.13201","202924.791532","203691.35515","204457.79139","205224.608531","205991.354254","206757.815536","207524.594649","212902.87634","Mapping"
"Mixed","Both","done","41","m160knife.wav","d","0.0392652582377","171","216008.096962","208291.343155","209057.827316","209824.817595","210591.772628","211357.726865","212124.689319","212891.867267","216774.82568","202924.791532","203691.35515","204457.79139","205224.608531","205991.354254","206757.815536","207524.594649","216018.082669","Mapping"
"Mixed","Both","done","41","m160done.wav","o","0.0346275046468","171","216008.096962","208291.343155","209057.827316","209824.817595","210591.772628","211357.726865","212124.689319","212891.867267","216774.82568","217541.790607","203691.35515","204457.79139","205224.608531","205991.354254","206757.815536","207524.594649","216785.228772","Mapping"
"Mixed","Both","done","41","m150jolt.wav","p","0.0340091064572","171","216008.096962","208291.343155","209057.827316","209824.817595","210591.772628","211357.726865","212124.689319","212891.867267","216774.82568","217541.790607","218290.925151","204457.79139","205224.608531","205991.354254","206757.815536","207524.594649","217552.41414","Mapping"
"Mixed","Both","done","41","m160jolt.wav","e","0.0346275046468","171","216008.096962","208291.343155","209057.827316","209824.817595","210591.772628","211357.726865","212124.689319","212891.867267","216774.82568","217541.790607","218290.925151","219057.879566","205224.608531","205991.354254","206757.815536","207524.594649","218300.80512","Mapping"
"Mixed","Both","done","41","m150gnash.wav","k","0.0340091064572","171","216008.096962","208291.343155","209057.827316","209824.817595","210591.772628","211357.726865","212124.689319","212891.867267","216774.82568","217541.790607","218290.925151","219057.879566","219824.485233","205991.354254","206757.815536","207524.594649","219062.885405","Mapping"
"Mixed","Both","done","41","m150depth.wav","equal","0.034318305552","171","216008.096962","208291.343155","209057.827316","209824.817595","210591.772628","211357.726865","212124.689319","212891.867267","216774.82568","217541.790607","218290.925151","219057.879566","219824.485233","220591.182415","206757.815536","207524.594649","219834.183717","Mapping"
"Mixed","Both","done","41","m150done.wav","h","0.034318305552","171","216008.096962","208291.343155","209057.827316","209824.817595","210591.772628","211357.726865","212124.689319","212891.867267","216774.82568","217541.790607","218290.925151","219057.879566","219824.485233","220591.182415","221357.841569","207524.594649","220600.959738","Mapping"
"Mixed","Both","done","41","m160priest.wav","j","56.0344147962","171","216008.096962","208291.343155","209057.827316","209824.817595","210591.772628","211357.726865","212124.689319","212891.867267","216774.82568","217541.790607","218290.925151","219057.879566","219824.485233","220591.182415","221357.841569","222124.399932","221367.561077","Mapping"
"Mixed","Both","done","41","m160knife.wav","t","0.0343185383826","171","216008.096962","222891.154002","209057.827316","209824.817595","210591.772628","211357.726865","212124.689319","212891.867267","216774.82568","217541.790607","218290.925151","219057.879566","219824.485233","220591.182415","221357.841569","222124.399932","222134.503743","Mapping"
"Mixed","Both","done","41","m160done.wav","space","0.0473035033792","171","216008.096962","222891.154002","223657.859222","209824.817595","210591.772628","211357.726865","212124.689319","212891.867267","216774.82568","217541.790607","218290.925151","219057.879566","219824.485233","220591.182415","221357.841569","222124.399932","222901.330778","Mapping"
"Mixed","Both","done","41","m150jaw.wav","n","0.0386468600482","171","216008.096962","222891.154002","223657.859222","224425.272761","210591.772628","211357.726865","212124.689319","212891.867267","216774.82568","217541.790607","218290.925151","219057.879566","219824.485233","220591.182415","221357.841569","222124.399932","223667.28316","Mapping"
"Mixed","Both","done","41","m150priest.wav","k","0.034318305552","171","216008.096962","222891.154002","223657.859222","224425.272761","225191.553795","211357.726865","212124.689319","212891.867267","216774.82568","217541.790607","218290.925151","219057.879566","219824.485233","220591.182415","221357.841569","222124.399932","224435.405326","Mapping"
"Mixed","Both","done","41","m150done.wav","f","0.0349367037416","171","216008.096962","222891.154002","223657.859222","224425.272761","225191.553795","225958.241702","212124.689319","212891.867267","216774.82568","217541.790607","218290.925151","219057.879566","219824.485233","220591.182415","221357.841569","222124.399932","225202.097252","Mapping"
"Mixed","Both","done","41","m160bluff.wav","y","0.0340091064572","171","216008.096962","222891.154002","223657.859222","224425.272761","225191.553795","225958.241702","226707.684493","212891.867267","216774.82568","217541.790607","218290.925151","219057.879566","219824.485233","220591.182415","221357.841569","222124.399932","225968.458053","Mapping"
"Mixed","Both","done","41","m150park.wav","space","0.0337001401931","171","216008.096962","222891.154002","223657.859222","224425.272761","225191.553795","225958.241702","226707.684493","227474.044984","216774.82568","217541.790607","218290.925151","219057.879566","219824.485233","220591.182415","221357.841569","222124.399932","226717.391324","Mapping"
"Mixed","Both","ball","3","m150knife.wav","p","0.0507044605911","171","230608.228423","222891.154002","223657.859222","224425.272761","225191.553795","225958.241702","226707.684493","227474.044984","216774.82568","217541.790607","218290.925151","219057.879566","219824.485233","220591.182415","221357.841569","222124.399932","227483.434913","Mapping"
"Mixed","Both","ball","3","m160ball.wav","p","0.0340091064572","171","230608.228423","222891.154002","223657.859222","224425.272761","225191.553795","225958.241702","226707.684493","227474.044984","231374.623851","217541.790607","218290.925151","219057.879566","219824.485233","220591.182415","221357.841569","222124.399932","230618.38263","Mapping"
"Mixed","Both","ball","3","m160depth.wav","space","0.0383376609534","171","230608.228423","222891.154002","223657.859222","224425.272761","225191.553795","225958.241702","226707.684493","227474.044984","231374.623851","232141.631444","218290.925151","219057.879566","219824.485233","220591.182415","221357.841569","222124.399932","231384.678195","Mapping"
"Mixed","Both","ball","3","m160lash.wav","n","0.0609073322266","171","230608.228423","222891.154002","223657.859222","224425.272761","225191.553795","225958.241702","226707.684493","227474.044984","231374.623851","232141.631444","232890.896769","219057.879566","219824.485233","220591.182415","221357.841569","222124.399932","232152.106883","Mapping"
"Mixed","Both","ball","3","m160reek.wav","b","0.0330817420036","171","230608.228423","222891.154002","223657.859222","224425.272761","225191.553795","225958.241702","226707.684493","227474.044984","231374.623851","232141.631444","232890.896769","233657.632289","219824.485233","220591.182415","221357.841569","222124.399932","232901.318411","Mapping"
"Mixed","Both","ball","3","m150ball.wav","l","0.0352456700057","171","230608.228423","222891.154002","223657.859222","224425.272761","225191.553795","225958.241702","226707.684493","227474.044984","231374.623851","232141.631444","232890.896769","233657.632289","234424.342765","220591.182415","221357.841569","222124.399932","233667.166292","Mapping"
"Mixed","Both","ball","3","m150jaw.wav","e","0.0389558263123","171","230608.228423","222891.154002","223657.859222","224425.272761","225191.553795","225958.241702","226707.684493","227474.044984","231374.623851","232141.631444","232890.896769","233657.632289","234424.342765","235190.926171","221357.841569","222124.399932","234433.994255","Mapping"
"Mixed","Both","ball","3","m150greet.wav","h","0.0942980404943","171","230608.228423","222891.154002","223657.859222","224425.272761","225191.553795","225958.241702","226707.684493","227474.044984","231374.623851","232141.631444","232890.896769","233657.632289","234424.342765","235190.926171","235957.678386","222124.399932","235201.035548","Mapping"
"Mixed","Both","ball","3","m150gnash.wav","b","0.0380284618586","171","230608.228423","222891.154002","223657.859222","224425.272761","225191.553795","225958.241702","226707.684493","227474.044984","231374.623851","232141.631444","232890.896769","233657.632289","234424.342765","235190.926171","235957.678386","236724.175533","235967.556501","Mapping"
"Mixed","Both","ball","3","m150cad.wav","space","0.0330817420036","171","230608.228423","237490.950627","223657.859222","224425.272761","225191.553795","225958.241702","226707.684493","227474.044984","231374.623851","232141.631444","232890.896769","233657.632289","234424.342765","235190.926171","235957.678386","236724.175533","236733.953784","Mapping"
"Mixed","Both","ball","3","m160cad.wav","o","0.0337001401931","171","230608.228423","237490.950627","238257.49415","224425.272761","225191.553795","225958.241702","226707.684493","227474.044984","231374.623851","232141.631444","232890.896769","233657.632289","234424.342765","235190.926171","235957.678386","236724.175533","237500.743409","Mapping"
"Mixed","Both","ball","3","m160dime.wav","c","292.232957901","171","230608.228423","237490.950627","238257.49415","239024.617065","225191.553795","225958.241702","226707.684493","227474.044984","231374.623851","232141.631444","232890.896769","233657.632289","234424.342765","235190.926171","235957.678386","236724.175533","238267.101737","Mapping"
"Mixed","Both","ball","3","m150ball.wav","a","0.0408110208809","171","230608.228423","237490.950627","238257.49415","239024.617065","239790.767627","225958.241702","226707.684493","227474.044984","231374.623851","232141.631444","232890.896769","233657.632289","234424.342765","235190.926171","235957.678386","236724.175533","239034.993877","Mapping"
"Mixed","Both","ball","3","m150done.wav","c","0.0275166239589","171","230608.228423","237490.950627","238257.49415","239024.617065","239790.767627","240558.009265","226707.684493","227474.044984","231374.623851","232141.631444","232890.896769","233657.632289","234424.342765","235190.926171","235957.678386","236724.175533","239800.157555","Mapping"
"Mixed","Both","ball","3","m160ball.wav","d","0.034318305552","171","230608.228423","237490.950627","238257.49415","239024.617065","239790.767627","240558.009265","241324.457562","227474.044984","231374.623851","232141.631444","232890.896769","233657.632289","234424.342765","235190.926171","235957.678386","236724.175533","240568.447603","Mapping"
"Mixed","Both","ball","3","m160dime.wav","a","0.0336999073625","171","230608.228423","237490.950627","238257.49415","239024.617065","239790.767627","240558.009265","241324.457562","242073.752876","231374.623851","232141.631444","232890.896769","233657.632289","234424.342765","235190.926171","235957.678386","236724.175533","241334.731728","Mapping"
"Mixed","Both","cave","14","m160depth.wav","d","0.034318305552","171","245224.514852","237490.950627","238257.49415","239024.617065","239790.767627","240558.009265","241324.457562","242073.752876","231374.623851","232141.631444","232890.896769","233657.632289","234424.342765","235190.926171","235957.678386","236724.175533","242083.61986","Mapping"
"Mixed","Both","cave","14","m150depth.wav","l","0.034318305552","171","245224.514852","237490.950627","238257.49415","239024.617065","239790.767627","240558.009265","241324.457562","242073.752876","245991.261193","232141.631444","232890.896769","233657.632289","234424.342765","235190.926171","235957.678386","236724.175533","245234.755318","Mapping"
"Mixed","Both","cave","14","m160dime.wav","c","0.0346275046468","171","245224.514852","237490.950627","238257.49415","239024.617065","239790.767627","240558.009265","241324.457562","242073.752876","245991.261193","246757.915709","232890.896769","233657.632289","234424.342765","235190.926171","235957.678386","236724.175533","246002.012724","Mapping"
"Mixed","Both","cave","14","m150cave.wav","d","0.034318305552","171","245224.514852","237490.950627","238257.49415","239024.617065","239790.767627","240558.009265","241324.457562","242073.752876","245991.261193","246757.915709","247507.20484","233657.632289","234424.342765","235190.926171","235957.678386","236724.175533","246768.32653","Mapping"
"Mixed","Both","cave","14","m150greet.wav","a","0.0503952614963","171","245224.514852","237490.950627","238257.49415","239024.617065","239790.767627","240558.009265","241324.457562","242073.752876","245991.261193","246757.915709","247507.20484","248273.634277","234424.342765","235190.926171","235957.678386","236724.175533","247516.903324","Mapping"
"Mixed","Both","cave","14","m160jaw.wav","d","0.0185505487025","171","245224.514852","237490.950627","238257.49415","239024.617065","239790.767627","240558.009265","241324.457562","242073.752876","245991.261193","246757.915709","247507.20484","248273.634277","249040.736168","235190.926171","235957.678386","236724.175533","248283.155914","Mapping"
"Mixed","Both","cave","14","m150cave.wav","backspace","0.0340091064572","171","245224.514852","237490.950627","238257.49415","239024.617065","239790.767627","240558.009265","241324.457562","242073.752876","245991.261193","246757.915709","247507.20484","248273.634277","249040.736168","249807.472925","235957.678386","236724.175533","249050.677354","Mapping"
"Mixed","Both","cave","14","m160knife.wav","e","0.0340091064572","171","245224.514852","237490.950627","238257.49415","239024.617065","239790.767627","240558.009265","241324.457562","242073.752876","245991.261193","246757.915709","247507.20484","248273.634277","249040.736168","249807.472925","250573.99295","236724.175533","249818.042043","Mapping"
"Mixed","Both","cave","14","m150reek.wav","b","0.0330817420036","171","245224.514852","237490.950627","238257.49415","239024.617065","239790.767627","240558.009265","241324.457562","242073.752876","245991.261193","246757.915709","247507.20484","248273.634277","249040.736168","249807.472925","250573.99295","251340.442793","250583.019599","Mapping"
"Mixed","Both","cave","14","m150cling.wav","r","0.0497770961374","171","245224.514852","252107.061754","238257.49415","239024.617065","239790.767627","240558.009265","241324.457562","242073.752876","245991.261193","246757.915709","247507.20484","248273.634277","249040.736168","249807.472925","250573.99295","251340.442793","251349.917126","Mapping"
"Mixed","Both","cave","14","m160cave.wav","a","0.0234970357269","171","245224.514852","252107.061754","252874.297518","239024.617065","239790.767627","240558.009265","241324.457562","242073.752876","245991.261193","246757.915709","247507.20484","248273.634277","249040.736168","249807.472925","250573.99295","251340.442793","252116.417055","Mapping"
"Mixed","Both","cave","14","m160greet.wav","a","594.438637141","171","245224.514852","252107.061754","252874.297518","253640.50806","239790.767627","240558.009265","241324.457562","242073.752876","245991.261193","246757.915709","247507.20484","248273.634277","249040.736168","249807.472925","250573.99295","251340.442793","252884.648978","Mapping"
"Mixed","Both","cave","14","m160cave.wav","v","37.1614967007","171","245224.514852","252107.061754","252874.297518","253640.50806","254407.552444","240558.009265","241324.457562","242073.752876","245991.261193","246757.915709","247507.20484","248273.634277","249040.736168","249807.472925","250573.99295","251340.442793","253649.934471","Mapping"
"Mixed","Both","cave","14","m160knife.wav","e","0.0386466272175","171","245224.514852","252107.061754","252874.297518","253640.50806","254407.552444","255174.338669","241324.457562","242073.752876","245991.261193","246757.915709","247507.20484","248273.634277","249040.736168","249807.472925","250573.99295","251340.442793","254417.66584","Mapping"
"Mixed","Both","cave","14","m150greet.wav","g","0.0482311006635","171","245224.514852","252107.061754","252874.297518","253640.50806","254407.552444","255174.338669","255923.8637","242073.752876","245991.261193","246757.915709","247507.20484","248273.634277","249040.736168","249807.472925","250573.99295","251340.442793","255184.223585","Mapping"
"Mixed","Both","cave","14","m150priest.wav","e","0.061834929511","171","245224.514852","252107.061754","252874.297518","253640.50806","254407.552444","255174.338669","255923.8637","256690.850269","245991.261193","246757.915709","247507.20484","248273.634277","249040.736168","249807.472925","250573.99295","251340.442793","255933.782316","Mapping"
"Mixed","Both","tile","25","m160bluff.wav","k","0.0528688542545","171","259824.22058","252107.061754","252874.297518","253640.50806","254407.552444","255174.338669","255923.8637","256690.850269","245991.261193","246757.915709","247507.20484","248273.634277","249040.736168","249807.472925","250573.99295","251340.442793","256700.889772","Mapping"
"Mixed","Both","tile","25","m150gnash.wav","p","0.0336999073625","171","259824.22058","252107.061754","252874.297518","253640.50806","254407.552444","255174.338669","255923.8637","256690.850269","260591.137276","246757.915709","247507.20484","248273.634277","249040.736168","249807.472925","250573.99295","251340.442793","259834.405086","Mapping"
"Mixed","Both","tile","25","m150park.wav","e","0.0340091064572","171","259824.22058","252107.061754","252874.297518","253640.50806","254407.552444","255174.338669","255923.8637","256690.850269","260591.137276","261357.644934","247507.20484","248273.634277","249040.736168","249807.472925","250573.99295","251340.442793","260601.184817","Mapping"
"Mixed","Both","tile","25","m160tile.wav","l","0.034318305552","171","259824.22058","252107.061754","252874.297518","253640.50806","254407.552444","255174.338669","255923.8637","256690.850269","260591.137276","261357.644934","262106.975495","248273.634277","249040.736168","249807.472925","250573.99295","251340.442793","261367.766677","Mapping"
"Mixed","Both","tile","25","m160depth.wav","space","0.0346275046468","171","259824.22058","252107.061754","252874.297518","253640.50806","254407.552444","255174.338669","255923.8637","256690.850269","260591.137276","261357.644934","262106.975495","262873.756154","249040.736168","249807.472925","250573.99295","251340.442793","262116.84928","Mapping"
"Mixed","Both","tile","25","m160tile.wav","a","0.0336999073625","171","259824.22058","252107.061754","252874.297518","253640.50806","254407.552444","255174.338669","255923.8637","256690.850269","260591.137276","261357.644934","262106.975495","262873.756154","263640.525992","249807.472925","250573.99295","251340.442793","262883.162777","Mapping"
"Mixed","Both","tile","25","m160cave.wav","e","0.0340091064572","171","259824.22058","252107.061754","252874.297518","253640.50806","254407.552444","255174.338669","255923.8637","256690.850269","260591.137276","261357.644934","262106.975495","262873.756154","263640.525992","264407.611497","250573.99295","251340.442793","263650.555911","Mapping"
"Mixed","Both","tile","25","m150done.wav","d","0.0333907082677","171","259824.22058","252107.061754","252874.297518","253640.50806","254407.552444","255174.338669","255923.8637","256690.850269","260591.137276","261357.644934","262106.975495","262873.756154","263640.525992","264407.611497","265173.743818","251340.442793","264417.670169","Mapping"
"Mixed","Both","tile","25","m150jolt.wav","l","0.0497770961374","171","259824.22058","252107.061754","252874.297518","253640.50806","254407.552444","255174.338669","255923.8637","256690.850269","260591.137276","261357.644934","262106.975495","262873.756154","263640.525992","264407.611497","265173.743818","265940.522622","265183.657796","Mapping"
"Mixed","Both","tile","25","m160priest.wav","c","0.0732741318643","171","259824.22058","266707.098917","252874.297518","253640.50806","254407.552444","255174.338669","255923.8637","256690.850269","260591.137276","261357.644934","262106.975495","262873.756154","263640.525992","264407.611497","265173.743818","265940.522622","265950.651167","Mapping"
"Mixed","Both","tile","25","m150tile.wav","d","0.0395742245018","171","259824.22058","266707.098917","267473.708603","253640.50806","254407.552444","255174.338669","255923.8637","256690.850269","260591.137276","261357.644934","262106.975495","262873.756154","263640.525992","264407.611497","265173.743818","265940.522622","266716.739276","Mapping"
"Mixed","Both","tile","25","m160dime.wav","o","0.0386466272175","171","259824.22058","266707.098917","267473.708603","268241.093079","254407.552444","255174.338669","255923.8637","256690.850269","260591.137276","261357.644934","262106.975495","262873.756154","263640.525992","264407.611497","265173.743818","265940.522622","267483.023093","Mapping"
"Mixed","Both","tile","25","m160dime.wav","p","0.034318305552","171","259824.22058","266707.098917","267473.708603","268241.093079","269007.31166","255174.338669","255923.8637","256690.850269","260591.137276","261357.644934","262106.975495","262873.756154","263640.525992","264407.611497","265173.743818","265940.522622","268251.754641","Mapping"
"Mixed","Both","tile","25","m150romp.wav","d","0.034318305552","171","259824.22058","266707.098917","267473.708603","268241.093079","269007.31166","269774.270403","255923.8637","256690.850269","260591.137276","261357.644934","262106.975495","262873.756154","263640.525992","264407.611497","265173.743818","265940.522622","269017.87243","Mapping"
"Mixed","Both","tile","25","m150tile.wav","i","0.0333909410983","171","259824.22058","266707.098917","267473.708603","268241.093079","269007.31166","269774.270403","270540.93203","256690.850269","260591.137276","261357.644934","262106.975495","262873.756154","263640.525992","264407.611497","265173.743818","265940.522622","269784.705958","Mapping"
"Mixed","Both","tile","25","m150knife.wav","t","111.878069118","171","259824.22058","266707.098917","267473.708603","268241.093079","269007.31166","269774.270403","270540.93203","271290.190862","260591.137276","261357.644934","262106.975495","262873.756154","263640.525992","264407.611497","265173.743818","265940.522622","270550.951128","Mapping"
"Mixed","Both","cave","16","m150cling.wav","i","0.0340091064572","171","274424.015968","266707.098917","267473.708603","268241.093079","269007.31166","269774.270403","270540.93203","271290.190862","260591.137276","261357.644934","262106.975495","262873.756154","263640.525992","264407.611497","265173.743818","265940.522622","271300.082271","Mapping"
"Mixed","Both","cave","16","m150cave.wav","o","0.0392652582377","171","274424.015968","266707.098917","267473.708603","268241.093079","269007.31166","269774.270403","270540.93203","271290.190862","275190.255263","261357.644934","262106.975495","262873.756154","263640.525992","264407.611497","265173.743818","265940.522622","274433.744133","Mapping"
"Mixed","Both","cave","16","m160jaw.wav","e","0.0268982257694","171","274424.015968","266707.098917","267473.708603","268241.093079","269007.31166","269774.270403","270540.93203","271290.190862","275190.255263","275956.813626","262106.975495","262873.756154","263640.525992","264407.611497","265173.743818","265940.522622","275199.861614","Mapping"
"Mixed","Both","cave","16","m160greet.wav","p","0.0398834235966","171","274424.015968","266707.098917","267473.708603","268241.093079","269007.31166","269774.270403","270540.93203","271290.190862","275190.255263","275956.813626","276706.643194","262873.756154","263640.525992","264407.611497","265173.743818","265940.522622","275966.913728","Mapping"
"Mixed","Both","cave","16","m150reek.wav","m","0.0340093392879","171","274424.015968","266707.098917","267473.708603","268241.093079","269007.31166","269774.270403","270540.93203","271290.190862","275190.255263","275956.813626","276706.643194","277473.173731","263640.525992","264407.611497","265173.743818","265940.522622","276716.158647","Mapping"
"Mixed","Both","cave","16","m160cave.wav","h","0.0185503158718","171","274424.015968","266707.098917","267473.708603","268241.093079","269007.31166","269774.270403","270540.93203","271290.190862","275190.255263","275956.813626","276706.643194","277473.173731","278240.331274","264407.611497","265173.743818","265940.522622","277482.24892","Mapping"
"Mixed","Both","cave","16","m150knife.wav","space","0.034318305552","171","274424.015968","266707.098917","267473.708603","268241.093079","269007.31166","269774.270403","270540.93203","271290.190862","275190.255263","275956.813626","276706.643194","277473.173731","278240.331274","279007.038041","265173.743818","265940.522622","278250.217427","Mapping"
"Mixed","Both","cave","16","m160cave.wav","b","126.052158186","171","274424.015968","266707.098917","267473.708603","268241.093079","269007.31166","269774.270403","270540.93203","271290.190862","275190.255263","275956.813626","276706.643194","277473.173731","278240.331274","279007.038041","279773.580636","265940.522622","279016.656139","Mapping"
"Mixed","Both","cave","16","m160done.wav","r","0.0336999073625","171","274424.015968","266707.098917","267473.708603","268241.093079","269007.31166","269774.270403","270540.93203","271290.190862","275190.255263","275956.813626","276706.643194","277473.173731","278240.331274","279007.038041","279773.580636","280540.262977","279783.616738","Mapping"
"Mixed","Both","cave","16","m150romp.wav","backspace","0.0346275046468","171","274424.015968","281306.935735","267473.708603","268241.093079","269007.31166","269774.270403","270540.93203","271290.190862","275190.255263","275956.813626","276706.643194","277473.173731","278240.331274","279007.038041","279773.580636","280540.262977","280550.009074","Mapping"
"Mixed","Both","cave","16","m160gnash.wav","space","0.0355551019311","171","274424.015968","281306.935735","282073.528107","268241.093079","269007.31166","269774.270403","270540.93203","271290.190862","275190.255263","275956.813626","276706.643194","277473.173731","278240.331274","279007.038041","279773.580636","280540.262977","281317.486921","Mapping"
"Mixed","Both","cave","16","m150reek.wav","d","0.0340091064572","171","274424.015968","281306.935735","282073.528107","282840.844874","269007.31166","269774.270403","270540.93203","271290.190862","275190.255263","275956.813626","276706.643194","277473.173731","278240.331274","279007.038041","279773.580636","280540.262977","282083.259363","Mapping"
"Mixed","Both","cave","16","m160done.wav","r","35.0198475644","171","274424.015968","281306.935735","282073.528107","282840.844874","283607.406019","269774.270403","270540.93203","271290.190862","275190.255263","275956.813626","276706.643194","277473.173731","278240.331274","279007.038041","279773.580636","280540.262977","282851.657003","Mapping"
"Mixed","Both","cave","16","m150cave.wav","u","0.034318305552","171","274424.015968","281306.935735","282073.528107","282840.844874","283607.406019","284373.790936","270540.93203","271290.190862","275190.255263","275956.813626","276706.643194","277473.173731","278240.331274","279007.038041","279773.580636","280540.262977","283617.537657","Mapping"
"Mixed","Both","cave","16","m150greet.wav","o","0.047612702474","171","274424.015968","281306.935735","282073.528107","282840.844874","283607.406019","284373.790936","285123.485085","271290.190862","275190.255263","275956.813626","276706.643194","277473.173731","278240.331274","279007.038041","279773.580636","280540.262977","284384.378605","Mapping"
"Mixed","Both","cave","16","m160knife.wav","d","0.034318305552","171","274424.015968","281306.935735","282073.528107","282840.844874","283607.406019","284373.790936","285123.485085","285890.146712","275190.255263","275956.813626","276706.643194","277473.173731","278240.331274","279007.038041","279773.580636","280540.262977","285133.117097","Mapping"
"Mixed","Both","cave","15","m160bluff.wav","f","482.339817565","171","289023.745194","281306.935735","282073.528107","282840.844874","283607.406019","284373.790936","285123.485085","285890.146712","275190.255263","275956.813626","276706.643194","277473.173731","278240.331274","279007.038041","279773.580636","280540.262977","285900.31205","Mapping"
"Mixed","Both","cave","15","m160bluff.wav","a","0.0358640681952","171","289023.745194","281306.935735","282073.528107","282840.844874","283607.406019","284373.790936","285123.485085","285890.146712","289790.684459","275956.813626","276706.643194","277473.173731","278240.331274","279007.038041","279773.580636","280540.262977","289034.378002","Mapping"
"Mixed","Both","cave","15","m160cave.wav","e","0.0346275046468","171","289023.745194","281306.935735","282073.528107","282840.844874","283607.406019","284373.790936","285123.485085","285890.146712","289790.684459","290556.753709","276706.643194","277473.173731","278240.331274","279007.038041","279773.580636","280540.262977","289801.431971","Mapping"
"Mixed","Both","cave","15","m150tile.wav","l","0.026588793844","171","289023.745194","281306.935735","282073.528107","282840.844874","283607.406019","284373.790936","285123.485085","285890.146712","289790.684459","290556.753709","291306.493307","277473.173731","278240.331274","279007.038041","279773.580636","280540.262977","290566.103444","Mapping"
"Mixed","Both","cave","15","m160lash.wav","space","0.0346275046468","171","289023.745194","281306.935735","282073.528107","282840.844874","283607.406019","284373.790936","285123.485085","285890.146712","289790.684459","290556.753709","291306.493307","292073.309521","278240.331274","279007.038041","279773.580636","280540.262977","291316.313605","Mapping"
"Mixed","Both","cave","15","m150cave.wav","v","0.0609073322266","171","289023.745194","281306.935735","282073.528107","282840.844874","283607.406019","284373.790936","285123.485085","285890.146712","289790.684459","290556.753709","291306.493307","292073.309521","292840.135938","279007.038041","279773.580636","280540.262977","292082.999348","Mapping"
"Mixed","Both","cave","15","m160dime.wav","g","0.0330817420036","171","289023.745194","281306.935735","282073.528107","282840.844874","283607.406019","284373.790936","285123.485085","285890.146712","289790.684459","290556.753709","291306.493307","292073.309521","292840.135938","293606.817043","279773.580636","280540.262977","292850.938483","Mapping"
"Mixed","Both","cave","15","m150cling.wav","equal","0.034318305552","171","289023.745194","281306.935735","282073.528107","282840.844874","283607.406019","284373.790936","285123.485085","285890.146712","289790.684459","290556.753709","291306.493307","292073.309521","292840.135938","293606.817043","294373.297185","280540.262977","293616.692065","Mapping"
"Mixed","Both","cave","15","m150greet.wav","c","0.0336999073625","171","289023.745194","281306.935735","282073.528107","282840.844874","283607.406019","284373.790936","285123.485085","285890.146712","289790.684459","290556.753709","291306.493307","292073.309521","292840.135938","293606.817043","294373.297185","295139.804843","294382.980828","Mapping"
"Mixed","Both","cave","15","m160cave.wav","e","0.0231880694628","171","289023.745194","295906.704844","282073.528107","282840.844874","283607.406019","284373.790936","285123.485085","285890.146712","289790.684459","290556.753709","291306.493307","292073.309521","292840.135938","293606.817043","294373.297185","295139.804843","295149.05286","Mapping"
"Mixed","Both","cave","15","m150tile.wav","space","0.0346275046468","171","289023.745194","295906.704844","296673.334626","282840.844874","283607.406019","284373.790936","285123.485085","285890.146712","289790.684459","290556.753709","291306.493307","292073.309521","292840.135938","293606.817043","294373.297185","295139.804843","295916.524524","Mapping"
"Mixed","Both","cave","15","m160romp.wav","g","0.034318305552","171","289023.745194","295906.704844","296673.334626","297440.455376","283607.406019","284373.790936","285123.485085","285890.146712","289790.684459","290556.753709","291306.493307","292073.309521","292840.135938","293606.817043","294373.297185","295139.804843","296683.355578","Mapping"
"Mixed","Both","cave","15","m150park.wav","e","0.034318305552","171","289023.745194","295906.704844","296673.334626","297440.455376","298206.918514","284373.790936","285123.485085","285890.146712","289790.684459","290556.753709","291306.493307","292073.309521","292840.135938","293606.817043","294373.297185","295139.804843","297450.442938","Mapping"
"Mixed","Both","cave","15","m150cave.wav","t","0.0367916654795","171","289023.745194","295906.704844","296673.334626","297440.455376","298206.918514","298973.660835","285123.485085","285890.146712","289790.684459","290556.753709","291306.493307","292073.309521","292840.135938","293606.817043","294373.297185","295139.804843","298216.704803","Mapping"
"Mixed","Both","cave","15","m150reek.wav","e","0.0333907082677","171","289023.745194","295906.704844","296673.334626","297440.455376","298206.918514","298973.660835","299723.2746","285890.146712","289790.684459","290556.753709","291306.493307","292073.309521","292840.135938","293606.817043","294373.297185","295139.804843","298984.364445","Mapping"
"Mixed","Both","cave","15","m160cad.wav","b","0.0337001401931","171","289023.745194","295906.704844","296673.334626","297440.455376","298206.918514","298973.660835","299723.2746","300489.866353","289790.684459","290556.753709","291306.493307","292073.309521","292840.135938","293606.817043","294373.297185","295139.804843","299733.003692","Mapping"
"Mixed","Both","ball","10","m150tile.wav","p","0.0346275046468","171","303623.488022","295906.704844","296673.334626","297440.455376","298206.918514","298973.660835","299723.2746","300489.866353","289790.684459","290556.753709","291306.493307","292073.309521","292840.135938","293606.817043","294373.297185","295139.804843","300499.65388","Mapping"
"Mixed","Both","ball","10","m160ball.wav","b","0.0352459028363","171","303623.488022","295906.704844","296673.334626","297440.455376","298206.918514","298973.660835","299723.2746","300489.866353","304390.546938","290556.753709","291306.493307","292073.309521","292840.135938","293606.817043","294373.297185","295139.804843","303633.545767","Mapping"
"Mixed","Both","ball","10","m160jolt.wav","l","0.0392650254071","171","303623.488022","295906.704844","296673.334626","297440.455376","298206.918514","298973.660835","299723.2746","300489.866353","304390.546938","305157.178885","291306.493307","292073.309521","292840.135938","293606.817043","294373.297185","295139.804843","304400.150197","Mapping"
"Mixed","Both","ball","10","m150park.wav","None","718.491056934","171","303623.488022","295906.704844","296673.334626","297440.455376","298206.918514","298973.660835","299723.2746","300489.866353","304390.546938","305157.178885","305923.450643","292073.309521","292840.135938","293606.817043","294373.297185","295139.804843","305167.219625","Mapping"
"Mixed","Both","ball","10","m160greet.wav","j","208.368540509","171","303623.488022","295906.704844","296673.334626","297440.455376","298206.918514","298973.660835","299723.2746","300489.866353","304390.546938","305157.178885","305923.450643","306689.664586","292840.135938","293606.817043","294373.297185","295139.804843","305933.972458","Mapping"
"Mixed","Both","ball","10","m160ball.wav","o","0.0612165313214","171","303623.488022","295906.704844","296673.334626","297440.455376","298206.918514","298973.660835","299723.2746","300489.866353","304390.546938","305157.178885","305923.450643","306689.664586","307456.896021","293606.817043","294373.297185","295139.804843","306698.909821","Mapping"
"Mixed","Both","ball","10","m150romp.wav","t","0.0383376609534","171","303623.488022","295906.704844","296673.334626","297440.455376","298206.918514","298973.660835","299723.2746","300489.866353","304390.546938","305157.178885","305923.450643","306689.664586","307456.896021","308206.284707","294373.297185","295139.804843","307467.23295","Mapping"
"Mixed","Both","ball","10","m150lash.wav","p","0.0340091064572","171","303623.488022","295906.704844","296673.334626","297440.455376","298206.918514","298973.660835","299723.2746","300489.866353","304390.546938","305157.178885","305923.450643","306689.664586","307456.896021","308206.284707","308973.059801","295139.804843","308215.487585","Mapping"
"Mixed","Both","ball","10","m160lash.wav","r","0.0850229989737","171","303623.488022","295906.704844","296673.334626","297440.455376","298206.918514","298973.660835","299723.2746","300489.866353","304390.546938","305157.178885","305923.450643","306689.664586","307456.896021","308206.284707","308973.059801","309739.810779","308982.940698","Mapping"
"Mixed","Both","ball","10","m150ball.wav","r","0.0791486818343","171","303623.488022","310506.271752","296673.334626","297440.455376","298206.918514","298973.660835","299723.2746","300489.866353","304390.546938","305157.178885","305923.450643","306689.664586","307456.896021","308206.284707","308973.059801","309739.810779","309749.898823","Mapping"
"Mixed","Both","ball","10","m160greet.wav","m","0.0207144767046","171","303623.488022","310506.271752","311273.040354","297440.455376","298206.918514","298973.660835","299723.2746","300489.866353","304390.546938","305157.178885","305923.450643","306689.664586","307456.896021","308206.284707","308973.059801","309739.810779","310515.068685","Mapping"
"Mixed","Both","ball","10","m150depth.wav","f","0.0349367037416","171","303623.488022","310506.271752","311273.040354","312039.746502","298206.918514","298973.660835","299723.2746","300489.866353","304390.546938","305157.178885","305923.450643","306689.664586","307456.896021","308206.284707","308973.059801","309739.810779","311282.792016","Mapping"
"Mixed","Both","ball","10","m160cad.wav","d","0.034318305552","171","303623.488022","310506.271752","311273.040354","312039.746502","312806.480785","298973.660835","299723.2746","300489.866353","304390.546938","305157.178885","305923.450643","306689.664586","307456.896021","308206.284707","308973.059801","309739.810779","312049.292872","Mapping"
"Mixed","Both","ball","10","m150ball.wav","g","0.0340091064572","171","303623.488022","310506.271752","311273.040354","312039.746502","312806.480785","313573.43149","299723.2746","300489.866353","304390.546938","305157.178885","305923.450643","306689.664586","307456.896021","308206.284707","308973.059801","309739.810779","312816.116198","Mapping"
"Mixed","Both","ball","10","m150jolt.wav","r","0.0346275046468","171","303623.488022","310506.271752","311273.040354","312039.746502","312806.480785","313573.43149","314340.184942","300489.866353","304390.546938","305157.178885","305923.450643","306689.664586","307456.896021","308206.284707","308973.059801","309739.810779","313584.132935","Mapping"
"Mixed","Both","ball","10","m160gnash.wav","t","0.0346275046468","171","303623.488022","310506.271752","311273.040354","312039.746502","312806.480785","313573.43149","314340.184942","315106.57295","304390.546938","305157.178885","305923.450643","306689.664586","307456.896021","308206.284707","308973.059801","309739.810779","314350.087481","Mapping"
"Mixed","Both","tile","27","m160dime.wav","i","0.0649264547974","171","318240.044051","310506.271752","311273.040354","312039.746502","312806.480785","313573.43149","314340.184942","315106.57295","304390.546938","305157.178885","305923.450643","306689.664586","307456.896021","308206.284707","308973.059801","309739.810779","315116.824237","Mapping"
"Mixed","Both","tile","27","m150reek.wav","o","0.0386466272175","171","318240.044051","310506.271752","311273.040354","312039.746502","312806.480785","313573.43149","314340.184942","315106.57295","319006.692384","305157.178885","305923.450643","306689.664586","307456.896021","308206.284707","308973.059801","309739.810779","318250.367376","Mapping"
"Mixed","Both","tile","27","m160depth.wav","e","0.022878870368","171","318240.044051","310506.271752","311273.040354","312039.746502","312806.480785","313573.43149","314340.184942","315106.57295","319006.692384","319773.416155","305923.450643","306689.664586","307456.896021","308206.284707","308973.059801","309739.810779","319016.31883","Mapping"
"Mixed","Both","tile","27","m160jolt.wav","t","0.0398836564273","171","318240.044051","310506.271752","311273.040354","312039.746502","312806.480785","313573.43149","314340.184942","315106.57295","319006.692384","319773.416155","320522.638195","306689.664586","307456.896021","308206.284707","308973.059801","309739.810779","319839.666302","Mapping"
"Mixed","Both","tile","27","m150tile.wav","space","0.0219515059143","171","318240.044051","310506.271752","311273.040354","312039.746502","312806.480785","313573.43149","314340.184942","315106.57295","319006.692384","319773.416155","320522.638195","321289.634658","307456.896021","308206.284707","308973.059801","309739.810779","320531.854368","Mapping"
"Mixed","Both","tile","27","m150dime.wav","f","0.034318305552","171","318240.044051","310506.271752","311273.040354","312039.746502","312806.480785","313573.43149","314340.184942","315106.57295","319006.692384","319773.416155","320522.638195","321289.634658","322056.231359","308206.284707","308973.059801","309739.810779","321299.368697","Mapping"
"Mixed","Both","tile","27","m150knife.wav","r","0.0346275046468","171","318240.044051","310506.271752","311273.040354","312039.746502","312806.480785","313573.43149","314340.184942","315106.57295","319006.692384","319773.416155","320522.638195","321289.634658","322056.231359","322822.694187","308973.059801","309739.810779","322065.81112","Mapping"
"Mixed","Both","tile","27","m160tile.wav","p","0.0225696712732","171","318240.044051","310506.271752","311273.040354","312039.746502","312806.480785","313573.43149","314340.184942","315106.57295","319006.692384","319773.416155","320522.638195","321289.634658","322056.231359","322822.694187","323589.733006","309739.810779","322831.972194","Mapping"
"Mixed","Both","tile","27","m160done.wav","t","0.0336999073625","171","318240.044051","310506.271752","311273.040354","312039.746502","312806.480785","313573.43149","314340.184942","315106.57295","319006.692384","319773.416155","320522.638195","321289.634658","322056.231359","322822.694187","323589.733006","324356.193052","323599.642347","Mapping"
"Mixed","Both","tile","27","m150tile.wav","e","0.0333909410983","171","318240.044051","325123.2362","311273.040354","312039.746502","312806.480785","313573.43149","314340.184942","315106.57295","319006.692384","319773.416155","320522.638195","321289.634658","322056.231359","322822.694187","323589.733006","324356.193052","324365.8263","Mapping"
"Mixed","Both","tile","27","m150lash.wav","f","0.034318305552","171","318240.044051","325123.2362","325889.576904","312039.746502","312806.480785","313573.43149","314340.184942","315106.57295","319006.692384","319773.416155","320522.638195","321289.634658","322056.231359","322822.694187","323589.733006","324356.193052","325139.621194","Mapping"
"Mixed","Both","tile","27","m160tile.wav","space","0.0340091064572","171","318240.044051","325123.2362","325889.576904","326656.308405","312806.480785","313573.43149","314340.184942","315106.57295","319006.692384","319773.416155","320522.638195","321289.634658","322056.231359","322822.694187","323589.733006","324356.193052","325899.224066","Mapping"
"Mixed","Both","tile","27","m150reek.wav","t","0.0346275046468","171","318240.044051","325123.2362","325889.576904","326656.308405","327423.060002","313573.43149","314340.184942","315106.57295","319006.692384","319773.416155","320522.638195","321289.634658","322056.231359","322822.694187","323589.733006","324356.193052","326665.997923","Mapping"
"Mixed","Both","tile","27","m160lash.wav","g","0.0222604721785","171","318240.044051","325123.2362","325889.576904","326656.308405","327423.060002","328190.019673","314340.184942","315106.57295","319006.692384","319773.416155","320522.638195","321289.634658","322056.231359","322822.694187","323589.733006","324356.193052","327433.051892","Mapping"
"Mixed","Both","tile","27","m150jaw.wav","backspace","0.034318305552","171","318240.044051","325123.2362","325889.576904","326656.308405","327423.060002","328190.019673","328956.751792","315106.57295","319006.692384","319773.416155","320522.638195","321289.634658","322056.231359","322822.694187","323589.733006","324356.193052","328199.865015","Mapping"
"Mixed","Both","tile","27","m160lash.wav","backspace","0.0340091064572","171","318240.044051","325123.2362","325889.576904","326656.308405","327423.060002","328190.019673","328956.751792","329723.214929","319006.692384","319773.416155","320522.638195","321289.634658","322056.231359","322822.694187","323589.733006","324356.193052","328966.543646","Mapping"
"Mixed","Both","ball","6","m150jolt.wav","h","0.0340091064572","171","332839.896019","325123.2362","325889.576904","326656.308405","327423.060002","328190.019673","328956.751792","329723.214929","319006.692384","319773.416155","320522.638195","321289.634658","322056.231359","322822.694187","323589.733006","324356.193052","329733.402836","Mapping"
"Mixed","Both","ball","6","m150ball.wav","f","0.0343185383826","171","332839.896019","325123.2362","325889.576904","326656.308405","327423.060002","328190.019673","328956.751792","329723.214929","333606.701412","319773.416155","320522.638195","321289.634658","322056.231359","322822.694187","323589.733006","324356.193052","332849.852045","Mapping"
"Mixed","Both","ball","6","m150depth.wav","l","0.0340091064572","171","332839.896019","325123.2362","325889.576904","326656.308405","327423.060002","328190.019673","328956.751792","329723.214929","333606.701412","334373.717971","320522.638195","321289.634658","322056.231359","322822.694187","323589.733006","324356.193052","333616.466059","Mapping"
"Mixed","Both","ball","6","m160reek.wav","j","0.0340091064572","171","332839.896019","325123.2362","325889.576904","326656.308405","327423.060002","328190.019673","328956.751792","329723.214929","333606.701412","334373.717971","335122.398647","321289.634658","322056.231359","322822.694187","323589.733006","324356.193052","334383.488802","Mapping"
"Mixed","Both","ball","6","m160ball.wav","space","0.0200965441763","171","332839.896019","325123.2362","325889.576904","326656.308405","327423.060002","328190.019673","328956.751792","329723.214929","333606.701412","334373.717971","335122.398647","335889.43252","322056.231359","322822.694187","323589.733006","324356.193052","335131.548038","Mapping"
"Mixed","Both","ball","6","m160bluff.wav","d","0.0352459028363","171","332839.896019","325123.2362","325889.576904","326656.308405","327423.060002","328190.019673","328956.751792","329723.214929","333606.701412","334373.717971","335122.398647","335889.43252","336656.08178","322822.694187","323589.733006","324356.193052","335899.12142","Mapping"
"Mixed","Both","ball","6","m160cad.wav","t","0.0340091064572","171","332839.896019","325123.2362","325889.576904","326656.308405","327423.060002","328190.019673","328956.751792","329723.214929","333606.701412","334373.717971","335122.398647","335889.43252","336656.08178","337422.630559","323589.733006","324356.193052","336665.852302","Mapping"
"Mixed","Both","ball","6","m150bluff.wav","b","0.0349367037416","171","332839.896019","325123.2362","325889.576904","326656.308405","327423.060002","328190.019673","328956.751792","329723.214929","333606.701412","334373.717971","335122.398647","335889.43252","336656.08178","337422.630559","338189.453266","324356.193052","337432.275865","Mapping"
"Mixed","Both","ball","6","m160depth.wav","l","0.034318305552","171","332839.896019","325123.2362","325889.576904","326656.308405","327423.060002","328190.019673","328956.751792","329723.214929","333606.701412","334373.717971","335122.398647","335889.43252","336656.08178","337422.630559","338189.453266","338955.789023","338199.1703","Mapping"
"Mixed","Both","ball","6","m160ball.wav","c","0.0182413496077","171","332839.896019","339722.659961","325889.576904","326656.308405","327423.060002","328190.019673","328956.751792","329723.214929","333606.701412","334373.717971","335122.398647","335889.43252","336656.08178","337422.630559","338189.453266","338955.789023","338964.718282","Mapping"
"Mixed","Both","ball","6","m160jaw.wav","equal","0.034318305552","171","332839.896019","339722.659961","340489.186479","326656.308405","327423.060002","328190.019673","328956.751792","329723.214929","333606.701412","334373.717971","335122.398647","335889.43252","336656.08178","337422.630559","338189.453266","338955.789023","339732.257345","Mapping"
"Mixed","Both","ball","6","m160park.wav","b","0.0222604721785","171","332839.896019","339722.659961","340489.186479","341255.764939","327423.060002","328190.019673","328956.751792","329723.214929","333606.701412","334373.717971","335122.398647","335889.43252","336656.08178","337422.630559","338189.453266","338955.789023","340498.378845","Mapping"
"Mixed","Both","ball","6","m150ball.wav","l","0.0386468600482","171","332839.896019","339722.659961","340489.186479","341255.764939","342023.018634","328190.019673","328956.751792","329723.214929","333606.701412","334373.717971","335122.398647","335889.43252","336656.08178","337422.630559","338189.453266","338955.789023","341265.205571","Mapping"
"Mixed","Both","ball","6","m150tile.wav","p","372.531978646","171","332839.896019","339722.659961","340489.186479","341255.764939","342023.018634","342790.001493","328956.751792","329723.214929","333606.701412","334373.717971","335122.398647","335889.43252","336656.08178","337422.630559","338189.453266","338955.789023","342033.27796","Mapping"
"Mixed","Both","ball","6","m150cad.wav","a","0.0352459028363","171","332839.896019","339722.659961","340489.186479","341255.764939","342023.018634","342790.001493","343556.389811","329723.214929","333606.701412","334373.717971","335122.398647","335889.43252","336656.08178","337422.630559","338189.453266","338955.789023","342799.821483","Mapping"
"Mixed","Both","ball","6","m150greet.wav","y","0.0473035033792","171","332839.896019","339722.659961","340489.186479","341255.764939","342023.018634","342790.001493","343556.389811","344322.982492","333606.701412","334373.717971","335122.398647","335889.43252","336656.08178","337422.630559","338189.453266","338955.789023","343566.443536","Mapping"
"Mixed","Both","cave","23","m150greet.wav","space","0.0383376609534","171","347439.794053","339722.659961","340489.186479","341255.764939","342023.018634","342790.001493","343556.389811","344322.982492","333606.701412","334373.717971","335122.398647","335889.43252","336656.08178","337422.630559","338189.453266","338955.789023","344333.184311","Mapping"
"Mixed","Both","cave","23","m160cling.wav","s","0.034318305552","171","347439.794053","339722.659961","340489.186479","341255.764939","342023.018634","342790.001493","343556.389811","344322.982492","348206.417652","334373.717971","335122.398647","335889.43252","336656.08178","337422.630559","338189.453266","338955.789023","347449.597038","Mapping"
"Mixed","Both","cave","23","m160cave.wav","c","0.0488497316837","171","347439.794053","339722.659961","340489.186479","341255.764939","342023.018634","342790.001493","343556.389811","344322.982492","348206.417652","348972.900576","335122.398647","335889.43252","336656.08178","337422.630559","338189.453266","338955.789023","348216.40645","Mapping"
"Mixed","Both","cave","23","m150done.wav","None","719.086217228","171","347439.794053","339722.659961","340489.186479","341255.764939","342023.018634","342790.001493","343556.389811","344322.982492","348206.417652","348972.900576","349739.572097","335889.43252","336656.08178","337422.630559","338189.453266","338955.789023","348982.73386","Mapping"
"Mixed","Both","cave","23","m150cave.wav","g","272.009257926","171","347439.794053","339722.659961","340489.186479","341255.764939","342023.018634","342790.001493","343556.389811","344322.982492","348206.417652","348972.900576","349739.572097","350489.061573","336656.08178","337422.630559","338189.453266","338955.789023","349749.678073","Mapping"
"Mixed","Both","cave","23","m160ball.wav","r","0.034318305552","171","347439.794053","339722.659961","340489.186479","341255.764939","342023.018634","342790.001493","343556.389811","344322.982492","348206.417652","348972.900576","349739.572097","350489.061573","351255.684863","337422.630559","338189.453266","338955.789023","350498.77397","Mapping"
"Mixed","Both","cave","23","m150lash.wav","p","0.0349367037416","171","347439.794053","339722.659961","340489.186479","341255.764939","342023.018634","342790.001493","343556.389811","344322.982492","348206.417652","348972.900576","349739.572097","350489.061573","351255.684863","352022.457174","338189.453266","338955.789023","351265.383965","Mapping"
"Mixed","Both","cave","23","m160gnash.wav","b","0.034318305552","171","347439.794053","339722.659961","340489.186479","341255.764939","342023.018634","342790.001493","343556.389811","344322.982492","348206.417652","348972.900576","349739.572097","350489.061573","351255.684863","352022.457174","352789.217737","338955.789023","352031.912956","Mapping"
"Mixed","Both","cave","23","m160cave.wav","a","0.0340093392879","171","347439.794053","339722.659961","340489.186479","341255.764939","342023.018634","342790.001493","343556.389811","344322.982492","348206.417652","348972.900576","349739.572097","350489.061573","351255.684863","352022.457174","352789.217737","353555.754148","352798.678775","Mapping"
"Mixed","Both","cave","23","m160tile.wav","m","712.342819665","171","347439.794053","354322.457205","340489.186479","341255.764939","342023.018634","342790.001493","343556.389811","344322.982492","348206.417652","348972.900576","349739.572097","350489.061573","351255.684863","352022.457174","352789.217737","353555.754148","353565.257544","Mapping"
"Mixed","Both","cave","23","m160priest.wav","o","89.7915950045","171","347439.794053","354322.457205","355089.072147","341255.764939","342023.018634","342790.001493","343556.389811","344322.982492","348206.417652","348972.900576","349739.572097","350489.061573","351255.684863","352022.457174","352789.217737","353555.754148","354331.817143","Mapping"
"Mixed","Both","cave","23","m150reek.wav","r","0.0333909410983","171","347439.794053","354322.457205","355089.072147","355855.901965","342023.018634","342790.001493","343556.389811","344322.982492","348206.417652","348972.900576","349739.572097","350489.061573","351255.684863","352022.457174","352789.217737","353555.754148","355098.802167","Mapping"
"Mixed","Both","cave","23","m150cave.wav","k","0.0346275046468","171","347439.794053","354322.457205","355089.072147","355855.901965","356622.891935","342790.001493","343556.389811","344322.982492","348206.417652","348972.900576","349739.572097","350489.061573","351255.684863","352022.457174","352789.217737","353555.754148","355865.894473","Mapping"
"Mixed","Both","cave","23","m160park.wav","space","0.0395742245018","171","347439.794053","354322.457205","355089.072147","355855.901965","356622.891935","357389.425564","343556.389811","344322.982492","348206.417652","348972.900576","349739.572097","350489.061573","351255.684863","352022.457174","352789.217737","353555.754148","356632.609588","Mapping"
"Mixed","Both","cave","23","m150dime.wav","r","0.0330817420036","171","347439.794053","354322.457205","355089.072147","355855.901965","356622.891935","357389.425564","358156.447069","344322.982492","348206.417652","348972.900576","349739.572097","350489.061573","351255.684863","352022.457174","352789.217737","353555.754148","357399.375716","Mapping"
"Mixed","Both","cave","23","m150greet.wav","i","0.087805557996","171","347439.794053","354322.457205","355089.072147","355855.901965","356622.891935","357389.425564","358156.447069","358906.157605","348206.417652","348972.900576","349739.572097","350489.061573","351255.684863","352022.457174","352789.217737","353555.754148","358166.209553","Mapping"
"Mixed","Both","cave","21","m150dime.wav","t","103.034142405","171","362039.667972","354322.457205","355089.072147","355855.901965","356622.891935","357389.425564","358156.447069","358906.157605","348206.417652","348972.900576","349739.572097","350489.061573","351255.684863","352022.457174","352789.217737","353555.754148","358910.529019","Mapping"
"Mixed","Both","cave","21","m150cave.wav","d","0.0340091064572","171","362039.667972","354322.457205","355089.072147","355855.901965","356622.891935","357389.425564","358156.447069","358906.157605","362805.900156","348972.900576","349739.572097","350489.061573","351255.684863","352022.457174","352789.217737","353555.754148","362049.378204","Mapping"
"Mixed","Both","cave","21","m160reek.wav","v","0.022878870368","171","362039.667972","354322.457205","355089.072147","355855.901965","356622.891935","357389.425564","358156.447069","358906.157605","362805.900156","363572.618671","349739.572097","350489.061573","351255.684863","352022.457174","352789.217737","353555.754148","362815.645634","Mapping"
"Mixed","Both","cave","21","m150dime.wav","None","718.963475199","171","362039.667972","354322.457205","355089.072147","355855.901965","356622.891935","357389.425564","358156.447069","358906.157605","362805.900156","363572.618671","364339.192802","350489.061573","351255.684863","352022.457174","352789.217737","353555.754148","363582.77597","Mapping"
"Mixed","Both","cave","21","m160cling.wav","p","120.135183213","171","362039.667972","354322.457205","355089.072147","355855.901965","356622.891935","357389.425564","358156.447069","358906.157605","362805.900156","363572.618671","364339.192802","365088.798837","351255.684863","352022.457174","352789.217737","353555.754148","364349.355047","Mapping"
"Mixed","Both","cave","21","m150tile.wav","b","0.0336999073625","171","362039.667972","354322.457205","355089.072147","355855.901965","356622.891935","357389.425564","358156.447069","358906.157605","362805.900156","363572.618671","364339.192802","365088.798837","365855.680905","352022.457174","352789.217737","353555.754148","365098.330676","Mapping"
"Mixed","Both","cave","21","m160ball.wav","r","0.0349367037416","171","362039.667972","354322.457205","355089.072147","355855.901965","356622.891935","357389.425564","358156.447069","358906.157605","362805.900156","363572.618671","364339.192802","365088.798837","365855.680905","366622.255964","352789.217737","353555.754148","365865.440606","Mapping"
"Mixed","Both","cave","21","m160cave.wav","c","0.0333907082677","171","362039.667972","354322.457205","355089.072147","355855.901965","356622.891935","357389.425564","358156.447069","358906.157605","362805.900156","363572.618671","364339.192802","365088.798837","365855.680905","366622.255964","367388.634078","353555.754148","366631.221705","Mapping"
"Mixed","Both","cave","21","m150dime.wav","l","0.0185503158718","171","362039.667972","354322.457205","355089.072147","355855.901965","356622.891935","357389.425564","358156.447069","358906.157605","362805.900156","363572.618671","364339.192802","365088.798837","365855.680905","366622.255964","367388.634078","368155.718037","367397.318471","Mapping"
"Mixed","Both","cave","21","m150park.wav","n","0.0346275046468","171","362039.667972","368922.235898","355089.072147","355855.901965","356622.891935","357389.425564","358156.447069","358906.157605","362805.900156","363572.618671","364339.192802","365088.798837","365855.680905","366622.255964","367388.634078","368155.718037","368164.934519","Mapping"
"Mixed","Both","cave","21","m160cave.wav","d","0.0340091064572","171","362039.667972","368922.235898","369688.955341","355855.901965","356622.891935","357389.425564","358156.447069","358906.157605","362805.900156","363572.618671","364339.192802","365088.798837","365855.680905","366622.255964","367388.634078","368155.718037","368931.85276","Mapping"
"Mixed","Both","cave","21","m150greet.wav","backspace","0.0336999073625","171","362039.667972","368922.235898","369688.955341","370455.325726","356622.891935","357389.425564","358156.447069","358906.157605","362805.900156","363572.618671","364339.192802","365088.798837","365855.680905","366622.255964","367388.634078","368155.718037","369698.274777","Mapping"
"Mixed","Both","cave","21","m150cave.wav","None","727.159681963","171","362039.667972","368922.235898","369688.955341","370455.325726","371222.205939","357389.425564","358156.447069","358906.157605","362805.900156","363572.618671","364339.192802","365088.798837","365855.680905","366622.255964","367388.634078","368155.718037","370464.491194","Mapping"
"Mixed","Both","cave","21","m160knife.wav","p","254.01408528","171","362039.667972","368922.235898","369688.955341","370455.325726","371222.205939","371988.766775","358156.447069","358906.157605","362805.900156","363572.618671","364339.192802","365088.798837","365855.680905","366622.255964","367388.634078","368155.718037","371231.371407","Mapping"
"Mixed","Both","cave","21","m160jaw.wav","backspace","0.0346275046468","171","362039.667972","368922.235898","369688.955341","370455.325726","371222.205939","371988.766775","372756.242458","358906.157605","362805.900156","363572.618671","364339.192802","365088.798837","365855.680905","366622.255964","367388.634078","368155.718037","371998.834413","Mapping"
