Condition,Talker,Target,Trial,current_stimulus,response_response,response_time_response,subject_nr,time_Audio1,time_Audio10,time_Audio11,time_Audio12,time_Audio13,time_Audio14,time_Audio15,time_Audio16,time_Audio2,time_Audio3,time_Audio4,time_Audio5,time_Audio6,time_Audio7,time_Audio8,time_Audio9,time_response,title
Mixed,Both,cave,22,m160dime.wav,NA,NA,271,206900.1389,NA,NA,NA,NA,NA,NA,NA,NA,NA,NA,NA,NA,NA,NA,NA,NA,Mapping
Mixed,Both,cave,22,m150bluff.wav,None,717.8931138,271,206900.1389,NA,NA,NA,NA,NA,NA,NA,207666.9712,NA,NA,NA,NA,NA,NA,NA,206915.2891,Mapping
Mixed,Both,cave,22,m150greet.wav,None,722.5038284,271,206900.1389,NA,NA,NA,NA,NA,NA,NA,207666.9712,208432.4376,NA,NA,NA,NA,NA,NA,207677.4006,Mapping
Mixed,Both,cave,22,m160bluff.wav,None,724.9629996,271,206900.1389,NA,NA,NA,NA,NA,NA,NA,207666.9712,208432.4376,209199.4721,NA,NA,NA,NA,NA,208441.7589,Mapping
Mixed,Both,cave,22,m160cave.wav,None,723.6660142,271,206900.1389,NA,NA,NA,NA,NA,NA,NA,207666.9712,208432.4376,209199.4721,209966.271,NA,NA,NA,NA,209211.2652,Mapping
Mixed,Both,cave,22,m160bluff.wav,space,458.535572,271,206900.1389,NA,NA,NA,NA,NA,NA,NA,207666.9712,208432.4376,209199.4721,209966.271,210733.7964,NA,NA,NA,209975.9246,Mapping
Mixed,Both,cave,22,m160romp.wav,None,720.5776735,271,206900.1389,NA,NA,NA,NA,NA,NA,NA,207666.9712,208432.4376,209199.4721,209966.271,210733.7964,211500.0471,NA,NA,210744.6565,Mapping
Mixed,Both,cave,22,m150cave.wav,None,721.4050237,271,206900.1389,NA,NA,NA,NA,NA,NA,NA,207666.9712,208432.4376,209199.4721,209966.271,210733.7964,211500.0471,212266.5564,NA,211510.4332,Mapping
Mixed,Both,cave,22,m150tile.wav,space,453.5365351,271,206900.1389,NA,NA,NA,NA,NA,NA,NA,207666.9712,208432.4376,209199.4721,209966.271,210733.7964,211500.0471,212266.5564,213033.3846,212276.8933,Mapping
Mixed,Both,cave,22,m160greet.wav,None,720.1405009,271,206900.1389,213800.0871,NA,NA,NA,NA,NA,NA,207666.9712,208432.4376,209199.4721,209966.271,210733.7964,211500.0471,212266.5564,213033.3846,213045.2742,Mapping
Mixed,Both,cave,22,m160cave.wav,None,721.8205533,271,206900.1389,213800.0871,214549.8801,NA,NA,NA,NA,NA,207666.9712,208432.4376,209199.4721,209966.271,210733.7964,211500.0471,212266.5564,213033.3846,213810.1912,Mapping
Mixed,Both,cave,22,m150bluff.wav,space,475.1546104,271,206900.1389,213800.0871,214549.8801,215316.1909,NA,NA,NA,NA,207666.9712,208432.4376,209199.4721,209966.271,210733.7964,211500.0471,212266.5564,213033.3846,214559.1909,Mapping
Mixed,Both,cave,22,m160lash.wav,None,732.2267373,271,206900.1389,213800.0871,214549.8801,215316.1909,216082.7029,NA,NA,NA,207666.9712,208432.4376,209199.4721,209966.271,210733.7964,211500.0471,212266.5564,213033.3846,215325.7988,Mapping
Mixed,Both,cave,22,m150cave.wav,None,733.2405192,271,206900.1389,213800.0871,214549.8801,215316.1909,216082.7029,216849.8112,NA,NA,207666.9712,208432.4376,209199.4721,209966.271,210733.7964,211500.0471,212266.5564,213033.3846,216091.6429,Mapping
Mixed,Both,cave,22,m150cling.wav,space,430.62673,271,206900.1389,213800.0871,214549.8801,215316.1909,216082.7029,216849.8112,217615.9627,NA,207666.9712,208432.4376,209199.4721,209966.271,210733.7964,211500.0471,212266.5564,213033.3846,216859.7339,Mapping
Mixed,Both,cave,22,m150jaw.wav,None,721.7080141,271,206900.1389,213800.0871,214549.8801,215316.1909,216082.7029,216849.8112,217615.9627,218382.7159,207666.9712,208432.4376,209199.4721,209966.271,210733.7964,211500.0471,212266.5564,213033.3846,217632.6102,Mapping
Mixed,Both,done,45,m150jolt.wav,None,729.056465,271,221550.0412,213800.0871,214549.8801,215316.1909,216082.7029,216849.8112,217615.9627,218382.7159,207666.9712,208432.4376,209199.4721,209966.271,210733.7964,211500.0471,212266.5564,213033.3846,218391.9497,Mapping
Mixed,Both,done,45,m160dime.wav,None,722.6645988,271,221550.0412,213800.0871,214549.8801,215316.1909,216082.7029,216849.8112,217615.9627,218382.7159,222316.6769,208432.4376,209199.4721,209966.271,210733.7964,211500.0471,212266.5564,213033.3846,221560.0337,Mapping
Mixed,Both,done,45,m160gnash.wav,space,395.3443933,271,221550.0412,213800.0871,214549.8801,215316.1909,216082.7029,216849.8112,217615.9627,218382.7159,222316.6769,223083.2807,209199.4721,209966.271,210733.7964,211500.0471,212266.5564,213033.3846,222326.9127,Mapping
Mixed,Both,done,45,m160done.wav,None,719.252862,271,221550.0412,213800.0871,214549.8801,215316.1909,216082.7029,216849.8112,217615.9627,218382.7159,222316.6769,223083.2807,223849.8783,209966.271,210733.7964,211500.0471,212266.5564,213033.3846,223093.5051,Mapping
Mixed,Both,done,45,m160tile.wav,space,535.1888114,271,221550.0412,213800.0871,214549.8801,215316.1909,216082.7029,216849.8112,217615.9627,218382.7159,222316.6769,223083.2807,223849.8783,224616.2753,210733.7964,211500.0471,212266.5564,213033.3846,223859.0469,Mapping
Mixed,Both,done,45,m150cling.wav,None,719.3054217,271,221550.0412,213800.0871,214549.8801,215316.1909,216082.7029,216849.8112,217615.9627,218382.7159,222316.6769,223083.2807,223849.8783,224616.2753,225365.7793,211500.0471,212266.5564,213033.3846,224626.8475,Mapping
Mixed,Both,done,45,m150done.wav,None,734.1278493,271,221550.0412,213800.0871,214549.8801,215316.1909,216082.7029,216849.8112,217615.9627,218382.7159,222316.6769,223083.2807,223849.8783,224616.2753,225365.7793,226132.7551,212266.5564,213033.3846,225375.176,Mapping
Mixed,Both,done,45,m150gnash.wav,space,419.452867,271,221550.0412,213800.0871,214549.8801,215316.1909,216082.7029,216849.8112,217615.9627,218382.7159,222316.6769,223083.2807,223849.8783,224616.2753,225365.7793,226132.7551,226899.6238,213033.3846,226142.755,Mapping
Mixed,Both,done,45,m150done.wav,None,733.306373,271,221550.0412,213800.0871,214549.8801,215316.1909,216082.7029,216849.8112,217615.9627,218382.7159,222316.6769,223083.2807,223849.8783,224616.2753,225365.7793,226132.7551,226899.6238,227666.1386,226909.556,Mapping
Mixed,Both,done,45,m150cling.wav,space,462.7421955,271,221550.0412,228433.0312,214549.8801,215316.1909,216082.7029,216849.8112,217615.9627,218382.7159,222316.6769,223083.2807,223849.8783,224616.2753,225365.7793,226132.7551,226899.6238,227666.1386,227675.4472,Mapping
Mixed,Both,done,45,m150romp.wav,None,726.0794276,271,221550.0412,228433.0312,229199.157,215316.1909,216082.7029,216849.8112,217615.9627,218382.7159,222316.6769,223083.2807,223849.8783,224616.2753,225365.7793,226132.7551,226899.6238,227666.1386,228442.9448,Mapping
Mixed,Both,done,45,m160park.wav,None,728.0912236,271,221550.0412,228433.0312,229199.157,229965.963,216082.7029,216849.8112,217615.9627,218382.7159,222316.6769,223083.2807,223849.8783,224616.2753,225365.7793,226132.7551,226899.6238,227666.1386,229208.0043,Mapping
Mixed,Both,done,45,m160done.wav,None,727.4688561,271,221550.0412,228433.0312,229199.157,229965.963,230733.3923,216849.8112,217615.9627,218382.7159,222316.6769,223083.2807,223849.8783,224616.2753,225365.7793,226132.7551,226899.6238,227666.1386,229975.6256,Mapping
Mixed,Both,done,45,m160dime.wav,space,355.1294929,271,221550.0412,228433.0312,229199.157,229965.963,230733.3923,231499.8177,217615.9627,218382.7159,222316.6769,223083.2807,223849.8783,224616.2753,225365.7793,226132.7551,226899.6238,227666.1386,230743.0209,Mapping
Mixed,Both,done,45,m150gnash.wav,None,719.1415592,271,221550.0412,228433.0312,229199.157,229965.963,230733.3923,231499.8177,232249.4371,218382.7159,222316.6769,223083.2807,223849.8783,224616.2753,225365.7793,226132.7551,226899.6238,227666.1386,231510.0208,Mapping
Mixed,Both,done,45,m160tile.wav,None,732.7906708,271,221550.0412,228433.0312,229199.157,229965.963,230733.3923,231499.8177,232249.4371,233016.0792,222316.6769,223083.2807,223849.8783,224616.2753,225365.7793,226132.7551,226899.6238,227666.1386,232259.5304,Mapping
Mixed,Both,ball,2,m150romp.wav,None,729.8733033,271,236149.8307,228433.0312,229199.157,229965.963,230733.3923,231499.8177,232249.4371,233016.0792,222316.6769,223083.2807,223849.8783,224616.2753,225365.7793,226132.7551,226899.6238,227666.1386,233025.6547,Mapping
Mixed,Both,ball,2,m150jolt.wav,None,718.5306316,271,236149.8307,228433.0312,229199.157,229965.963,230733.3923,231499.8177,232249.4371,233016.0792,236899.434,223083.2807,223849.8783,224616.2753,225365.7793,226132.7551,226899.6238,227666.1386,236160.1058,Mapping
Mixed,Both,ball,2,m150ball.wav,None,732.7733571,271,236149.8307,228433.0312,229199.157,229965.963,230733.3923,231499.8177,232249.4371,233016.0792,236899.434,237666.1411,223849.8783,224616.2753,225365.7793,226132.7551,226899.6238,227666.1386,236909.3368,Mapping
Mixed,Both,ball,2,m160jolt.wav,space,342.1865357,271,236149.8307,228433.0312,229199.157,229965.963,230733.3923,231499.8177,232249.4371,233016.0792,236899.434,237666.1411,238432.679,224616.2753,225365.7793,226132.7551,226899.6238,227666.1386,237675.8485,Mapping
Mixed,Both,ball,2,m160dime.wav,None,733.144057,271,236149.8307,228433.0312,229199.157,229965.963,230733.3923,231499.8177,232249.4371,233016.0792,236899.434,237666.1411,238432.679,239199.4257,225365.7793,226132.7551,226899.6238,227666.1386,238442.4381,Mapping
Mixed,Both,ball,2,m150ball.wav,None,729.8794873,271,236149.8307,228433.0312,229199.157,229965.963,230733.3923,231499.8177,232249.4371,233016.0792,236899.434,237666.1411,238432.679,239199.4257,239965.9216,226132.7551,226899.6238,227666.1386,239209.0314,Mapping
Mixed,Both,ball,2,m150cad.wav,space,346.1977611,271,236149.8307,228433.0312,229199.157,229965.963,230733.3923,231499.8177,232249.4371,233016.0792,236899.434,237666.1411,238432.679,239199.4257,239965.9216,240732.739,226899.6238,227666.1386,239975.8192,Mapping
Mixed,Both,ball,2,m160lash.wav,None,725.9010337,271,236149.8307,228433.0312,229199.157,229965.963,230733.3923,231499.8177,232249.4371,233016.0792,236899.434,237666.1411,238432.679,239199.4257,239965.9216,240732.739,241499.793,227666.1386,240743.0546,Mapping
Mixed,Both,ball,2,m160ball.wav,None,722.4973356,271,236149.8307,228433.0312,229199.157,229965.963,230733.3923,231499.8177,232249.4371,233016.0792,236899.434,237666.1411,238432.679,239199.4257,239965.9216,240732.739,241499.793,242266.1526,241509.7302,Mapping
Mixed,Both,ball,2,m160tile.wav,space,309.6543029,271,236149.8307,243033.2232,229199.157,229965.963,230733.3923,231499.8177,232249.4371,233016.0792,236899.434,237666.1411,238432.679,239199.4257,239965.9216,240732.739,241499.793,242266.1526,242276.3219,Mapping
Mixed,Both,ball,2,m150done.wav,None,718.5309404,271,236149.8307,243033.2232,243782.6682,229965.963,230733.3923,231499.8177,232249.4371,233016.0792,236899.434,237666.1411,238432.679,239199.4257,239965.9216,240732.739,241499.793,242266.1526,243043.6254,Mapping
Mixed,Both,ball,2,m160ball.wav,None,732.9919431,271,236149.8307,243033.2232,243782.6682,244548.9743,230733.3923,231499.8177,232249.4371,233016.0792,236899.434,237666.1411,238432.679,239199.4257,239965.9216,240732.739,241499.793,242266.1526,243792.3892,Mapping
Mixed,Both,ball,2,m150priest.wav,space,339.6194624,271,236149.8307,243033.2232,243782.6682,244548.9743,245315.4829,231499.8177,232249.4371,233016.0792,236899.434,237666.1411,238432.679,239199.4257,239965.9216,240732.739,241499.793,242266.1526,244558.3388,Mapping
Mixed,Both,ball,2,m160greet.wav,None,730.8156663,271,236149.8307,243033.2232,243782.6682,244548.9743,245315.4829,246082.765,232249.4371,233016.0792,236899.434,237666.1411,238432.679,239199.4257,239965.9216,240732.739,241499.793,242266.1526,245324.6118,Mapping
Mixed,Both,ball,2,m150jolt.wav,None,725.8521845,271,236149.8307,243033.2232,243782.6682,244548.9743,245315.4829,246082.765,246849.6634,233016.0792,236899.434,237666.1411,238432.679,239199.4257,239965.9216,240732.739,241499.793,242266.1526,246093.1536,Mapping
Mixed,Both,ball,2,m160reek.wav,None,722.7289071,271,236149.8307,243033.2232,243782.6682,244548.9743,245315.4829,246082.765,246849.6634,247615.7506,236899.434,237666.1411,238432.679,239199.4257,239965.9216,240732.739,241499.793,242266.1526,246859.8863,Mapping
Mixed,Both,cave,16,m150cling.wav,None,724.4624468,271,250732.7372,243033.2232,243782.6682,244548.9743,245315.4829,246082.765,246849.6634,247615.7506,236899.434,237666.1411,238432.679,239199.4257,239965.9216,240732.739,241499.793,242266.1526,247625.3672,Mapping
Mixed,Both,cave,16,m150cave.wav,None,718.66574,271,250732.7372,243033.2232,243782.6682,244548.9743,245315.4829,246082.765,246849.6634,247615.7506,251482.5748,237666.1411,238432.679,239199.4257,239965.9216,240732.739,241499.793,242266.1526,250743.084,Mapping
Mixed,Both,cave,16,m160jaw.wav,space,437.2235793,271,250732.7372,243033.2232,243782.6682,244548.9743,245315.4829,246082.765,246849.6634,247615.7506,251482.5748,252248.9192,238432.679,239199.4257,239965.9216,240732.739,241499.793,242266.1526,251492.6063,Mapping
Mixed,Both,cave,16,m160greet.wav,None,732.8472501,271,250732.7372,243033.2232,243782.6682,244548.9743,245315.4829,246082.765,246849.6634,247615.7506,251482.5748,252248.9192,253015.6727,239199.4257,239965.9216,240732.739,241499.793,242266.1526,252258.5218,Mapping
Mixed,Both,cave,16,m150reek.wav,None,729.3739873,271,250732.7372,243033.2232,243782.6682,244548.9743,245315.4829,246082.765,246849.6634,247615.7506,251482.5748,252248.9192,253015.6727,253782.6552,239965.9216,240732.739,241499.793,242266.1526,253025.318,Mapping
Mixed,Both,cave,16,m160cave.wav,None,729.1192282,271,250732.7372,243033.2232,243782.6682,244548.9743,245315.4829,246082.765,246849.6634,247615.7506,251482.5748,252248.9192,253015.6727,253782.6552,254549.1595,240732.739,241499.793,242266.1526,253792.495,Mapping
Mixed,Both,cave,16,m150knife.wav,space,546.6746306,271,250732.7372,243033.2232,243782.6682,244548.9743,245315.4829,246082.765,246849.6634,247615.7506,251482.5748,252248.9192,253015.6727,253782.6552,254549.1595,255315.681,241499.793,242266.1526,254559.109,Mapping
Mixed,Both,cave,16,m160cave.wav,None,725.7217132,271,250732.7372,243033.2232,243782.6682,244548.9743,245315.4829,246082.765,246849.6634,247615.7506,251482.5748,252248.9192,253015.6727,253782.6552,254549.1595,255315.681,256083.55,242266.1526,255325.6491,Mapping
Mixed,Both,cave,16,m160done.wav,space,508.2031633,271,250732.7372,243033.2232,243782.6682,244548.9743,245315.4829,246082.765,246849.6634,247615.7506,251482.5748,252248.9192,253015.6727,253782.6552,254549.1595,255315.681,256083.55,256832.2906,256093.5416,Mapping
Mixed,Both,cave,16,m150romp.wav,None,735.6440392,271,250732.7372,257599.1257,243782.6682,244548.9743,245315.4829,246082.765,246849.6634,247615.7506,251482.5748,252248.9192,253015.6727,253782.6552,254549.1595,255315.681,256083.55,256832.2906,256842.1072,Mapping
Mixed,Both,cave,16,m160gnash.wav,None,731.9763061,271,250732.7372,257599.1257,258365.6986,244548.9743,245315.4829,246082.765,246849.6634,247615.7506,251482.5748,252248.9192,253015.6727,253782.6552,254549.1595,255315.681,256083.55,256832.2906,257609.1754,Mapping
Mixed,Both,cave,16,m150reek.wav,None,728.4424454,271,250732.7372,257599.1257,258365.6986,259132.1404,245315.4829,246082.765,246849.6634,247615.7506,251482.5748,252248.9192,253015.6727,253782.6552,254549.1595,255315.681,256083.55,256832.2906,258375.9787,Mapping
Mixed,Both,cave,16,m160done.wav,None,723.2851111,271,250732.7372,257599.1257,258365.6986,259132.1404,259899.4154,246082.765,246849.6634,247615.7506,251482.5748,252248.9192,253015.6727,253782.6552,254549.1595,255315.681,256083.55,256832.2906,259144.495,Mapping
Mixed,Both,cave,16,m150cave.wav,None,721.5725961,271,250732.7372,257599.1257,258365.6986,259132.1404,259899.4154,260666.0947,246849.6634,247615.7506,251482.5748,252248.9192,253015.6727,253782.6552,254549.1595,255315.681,256083.55,256832.2906,259909.9734,Mapping
Mixed,Both,cave,16,m150greet.wav,space,461.4467556,271,250732.7372,257599.1257,258365.6986,259132.1404,259899.4154,260666.0947,261415.5579,247615.7506,251482.5748,252248.9192,253015.6727,253782.6552,254549.1595,255315.681,256083.55,256832.2906,260676.2721,Mapping
Mixed,Both,cave,16,m160knife.wav,None,732.9127947,271,250732.7372,257599.1257,258365.6986,259132.1404,259899.4154,260666.0947,261415.5579,262198.8262,251482.5748,252248.9192,253015.6727,253782.6552,254549.1595,255315.681,256083.55,256832.2906,261425.3123,Mapping
Mixed,Both,ball,12,m150jaw.wav,None,720.1120569,271,265315.8223,257599.1257,258365.6986,259132.1404,259899.4154,260666.0947,261415.5579,262198.8262,251482.5748,252248.9192,253015.6727,253782.6552,254549.1595,255315.681,256083.55,256832.2906,262207.9011,Mapping
Mixed,Both,ball,12,m160ball.wav,None,719.1780419,271,265315.8223,257599.1257,258365.6986,259132.1404,259899.4154,260666.0947,261415.5579,262198.8262,266065.4568,252248.9192,253015.6727,253782.6552,254549.1595,255315.681,256083.55,256832.2906,265326.115,Mapping
Mixed,Both,ball,12,m160cling.wav,space,437.3568334,271,265315.8223,257599.1257,258365.6986,259132.1404,259899.4154,260666.0947,261415.5579,262198.8262,266065.4568,266832.3874,253015.6727,253782.6552,254549.1595,255315.681,256083.55,256832.2906,266076.2841,Mapping
Mixed,Both,ball,12,m150ball.wav,None,731.5014144,271,265315.8223,257599.1257,258365.6986,259132.1404,259899.4154,260666.0947,261415.5579,262198.8262,266065.4568,266832.3874,267598.9906,253782.6552,254549.1595,255315.681,256083.55,256832.2906,266844.0968,Mapping
Mixed,Both,ball,12,m160dime.wav,space,336.6551003,271,265315.8223,257599.1257,258365.6986,259132.1404,259899.4154,260666.0947,261415.5579,262198.8262,266065.4568,266832.3874,267598.9906,268365.5094,254549.1595,255315.681,256083.55,256832.2906,267608.9541,Mapping
Mixed,Both,ball,12,m150tile.wav,None,727.0335387,271,265315.8223,257599.1257,258365.6986,259132.1404,259899.4154,260666.0947,261415.5579,262198.8262,266065.4568,266832.3874,267598.9906,268365.5094,269132.5862,255315.681,256083.55,256832.2906,268374.8947,Mapping
Mixed,Both,ball,12,m150ball.wav,None,722.8414463,271,265315.8223,257599.1257,258365.6986,259132.1404,259899.4154,260666.0947,261415.5579,262198.8262,266065.4568,266832.3874,267598.9906,268365.5094,269132.5862,269899.3069,256083.55,256832.2906,269142.8249,Mapping
Mixed,Both,ball,12,m150lash.wav,space,316.2854705,271,265315.8223,257599.1257,258365.6986,259132.1404,259899.4154,260666.0947,261415.5579,262198.8262,266065.4568,266832.3874,267598.9906,268365.5094,269132.5862,269899.3069,270665.9621,256832.2906,269909.2605,Mapping
Mixed,Both,ball,12,m150tile.wav,None,720.6497109,271,265315.8223,257599.1257,258365.6986,259132.1404,259899.4154,260666.0947,261415.5579,262198.8262,266065.4568,266832.3874,267598.9906,268365.5094,269132.5862,269899.3069,270665.9621,271415.1909,270675.8825,Mapping
Mixed,Both,ball,12,m160ball.wav,None,736.023705,271,265315.8223,272182.3293,258365.6986,259132.1404,259899.4154,260666.0947,261415.5579,262198.8262,266065.4568,266832.3874,267598.9906,268365.5094,269132.5862,269899.3069,270665.9621,271415.1909,271424.5348,Mapping
Mixed,Both,ball,12,m160romp.wav,space,337.7860594,271,265315.8223,272182.3293,272948.9229,259132.1404,259899.4154,260666.0947,261415.5579,262198.8262,266065.4568,266832.3874,267598.9906,268365.5094,269132.5862,269899.3069,270665.9621,271415.1909,272191.7223,Mapping
Mixed,Both,ball,12,m160gnash.wav,None,728.5797191,271,265315.8223,272182.3293,272948.9229,273715.4126,259899.4154,260666.0947,261415.5579,262198.8262,266065.4568,266832.3874,267598.9906,268365.5094,269132.5862,269899.3069,270665.9621,271415.1909,272958.5008,Mapping
Mixed,Both,ball,12,m160done.wav,None,725.9582314,271,265315.8223,272182.3293,272948.9229,273715.4126,274482.8107,260666.0947,261415.5579,262198.8262,266065.4568,266832.3874,267598.9906,268365.5094,269132.5862,269899.3069,270665.9621,271415.1909,273724.7342,Mapping
Mixed,Both,ball,12,m160lash.wav,None,721.7729404,271,265315.8223,272182.3293,272948.9229,273715.4126,274482.8107,275248.9421,261415.5579,262198.8262,266065.4568,266832.3874,267598.9906,268365.5094,269132.5862,269899.3069,270665.9621,271415.1909,274492.9974,Mapping
Mixed,Both,ball,12,m150reek.wav,None,720.3120929,271,265315.8223,272182.3293,272948.9229,273715.4126,274482.8107,275248.9421,275998.8285,262198.8262,266065.4568,266832.3874,267598.9906,268365.5094,269132.5862,269899.3069,270665.9621,271415.1909,275258.004,Mapping
Mixed,Both,ball,12,m150done.wav,None,733.3839759,271,265315.8223,272182.3293,272948.9229,273715.4126,274482.8107,275248.9421,275998.8285,276765.2997,266065.4568,266832.3874,267598.9906,268365.5094,269132.5862,269899.3069,270665.9621,271415.1909,276008.4102,Mapping
Mixed,Both,cave,20,m150done.wav,None,731.4912118,271,279899.2955,272182.3293,272948.9229,273715.4126,274482.8107,275248.9421,275998.8285,276765.2997,266065.4568,266832.3874,267598.9906,268365.5094,269132.5862,269899.3069,270665.9621,271415.1909,276774.3557,Mapping
Mixed,Both,cave,20,m160cave.wav,None,718.7705506,271,279899.2955,272182.3293,272948.9229,273715.4126,274482.8107,275248.9421,275998.8285,276765.2997,280648.7278,266832.3874,267598.9906,268365.5094,269132.5862,269899.3069,270665.9621,271415.1909,279909.3811,Mapping
Mixed,Both,cave,20,m160gnash.wav,space,471.0614537,271,279899.2955,272182.3293,272948.9229,273715.4126,274482.8107,275248.9421,275998.8285,276765.2997,280648.7278,281415.5251,267598.9906,268365.5094,269132.5862,269899.3069,270665.9621,271415.1909,280658.3378,Mapping
Mixed,Both,cave,20,m150gnash.wav,None,730.587496,271,279899.2955,272182.3293,272948.9229,273715.4126,274482.8107,275248.9421,275998.8285,276765.2997,280648.7278,281415.5251,282182.2279,268365.5094,269132.5862,269899.3069,270665.9621,271415.1909,281424.7948,Mapping
Mixed,Both,cave,20,m160cad.wav,None,727.0616735,271,279899.2955,272182.3293,272948.9229,273715.4126,274482.8107,275248.9421,275998.8285,276765.2997,280648.7278,281415.5251,282182.2279,282948.7358,269132.5862,269899.3069,270665.9621,271415.1909,282191.7514,Mapping
Mixed,Both,cave,20,m150tile.wav,None,727.6395201,271,279899.2955,272182.3293,272948.9229,273715.4126,274482.8107,275248.9421,275998.8285,276765.2997,280648.7278,281415.5251,282182.2279,282948.7358,283715.3356,269899.3069,270665.9621,271415.1909,282958.2794,Mapping
Mixed,Both,cave,20,m150cave.wav,None,724.9153866,271,279899.2955,272182.3293,272948.9229,273715.4126,274482.8107,275248.9421,275998.8285,276765.2997,280648.7278,281415.5251,282182.2279,282948.7358,283715.3356,284482.5405,270665.9621,271415.1909,283724.541,Mapping
Mixed,Both,cave,20,m150bluff.wav,space,404.7649303,271,279899.2955,272182.3293,272948.9229,273715.4126,274482.8107,275248.9421,275998.8285,276765.2997,280648.7278,281415.5251,282182.2279,282948.7358,283715.3356,284482.5405,285231.8862,271415.1909,284492.592,Mapping
Mixed,Both,cave,20,m150cave.wav,None,734.2280219,271,279899.2955,272182.3293,272948.9229,273715.4126,274482.8107,275248.9421,275998.8285,276765.2997,280648.7278,281415.5251,282182.2279,282948.7358,283715.3356,284482.5405,285231.8862,285998.7426,285241.5726,Mapping
Mixed,Both,cave,20,m160cad.wav,space,449.1085429,271,279899.2955,286765.2765,272948.9229,273715.4126,274482.8107,275248.9421,275998.8285,276765.2997,280648.7278,281415.5251,282182.2279,282948.7358,283715.3356,284482.5405,285231.8862,285998.7426,286008.1944,Mapping
Mixed,Both,cave,20,m160knife.wav,None,727.7403111,271,279899.2955,286765.2765,287532.0569,273715.4126,274482.8107,275248.9421,275998.8285,276765.2997,280648.7278,281415.5251,282182.2279,282948.7358,283715.3356,284482.5405,285231.8862,285998.7426,286774.7957,Mapping
Mixed,Both,cave,20,m150jaw.wav,None,724.5134604,271,279899.2955,286765.2765,287532.0569,288299.0456,274482.8107,275248.9421,275998.8285,276765.2997,280648.7278,281415.5251,282182.2279,282948.7358,283715.3356,284482.5405,285231.8862,285998.7426,287541.4082,Mapping
Mixed,Both,cave,20,m160lash.wav,None,719.9772568,271,279899.2955,286765.2765,287532.0569,288299.0456,289048.3737,275248.9421,275998.8285,276765.2997,280648.7278,281415.5251,282182.2279,282948.7358,283715.3356,284482.5405,285231.8862,285998.7426,288309.5523,Mapping
Mixed,Both,cave,20,m160cave.wav,None,735.2433498,271,279899.2955,286765.2765,287532.0569,288299.0456,289048.3737,289815.1188,275998.8285,276765.2997,280648.7278,281415.5251,282182.2279,282948.7358,283715.3356,284482.5405,285231.8862,285998.7426,289057.6845,Mapping
Mixed,Both,cave,20,m160cling.wav,space,392.7293983,271,279899.2955,286765.2765,287532.0569,288299.0456,289048.3737,289815.1188,290582.0442,276765.2997,280648.7278,281415.5251,282182.2279,282948.7358,283715.3356,284482.5405,285231.8862,285998.7426,289824.5165,Mapping
Mixed,Both,cave,20,m150tile.wav,None,726.0843744,271,279899.2955,286765.2765,287532.0569,288299.0456,289048.3737,289815.1188,290582.0442,291348.5932,280648.7278,281415.5251,282182.2279,282948.7358,283715.3356,284482.5405,285231.8862,285998.7426,290593.3902,Mapping
Mixed,Both,tile,35,m150greet.wav,None,724.7991376,271,294465.5857,286765.2765,287532.0569,288299.0456,289048.3737,289815.1188,290582.0442,291348.5932,280648.7278,281415.5251,282182.2279,282948.7358,283715.3356,284482.5405,285231.8862,285998.7426,291358.2095,Mapping
Mixed,Both,tile,35,m160tile.wav,None,719.3477787,271,294465.5857,286765.2765,287532.0569,288299.0456,289048.3737,289815.1188,290582.0442,291348.5932,295215.0288,281415.5251,282182.2279,282948.7358,283715.3356,284482.5405,285231.8862,285998.7426,294475.6753,Mapping
Mixed,Both,tile,35,m150ball.wav,space,488.8884355,271,294465.5857,286765.2765,287532.0569,288299.0456,289048.3737,289815.1188,290582.0442,291348.5932,295215.0288,295981.9751,282182.2279,282948.7358,283715.3356,284482.5405,285231.8862,285998.7426,295224.2786,Mapping
Mixed,Both,tile,35,m150tile.wav,None,730.4103393,271,294465.5857,286765.2765,287532.0569,288299.0456,289048.3737,289815.1188,290582.0442,291348.5932,295215.0288,295981.9751,296748.5329,282948.7358,283715.3356,284482.5405,285231.8862,285998.7426,295991.2918,Mapping
Mixed,Both,tile,35,m150cave.wav,space,363.0910367,271,294465.5857,286765.2765,287532.0569,288299.0456,289048.3737,289815.1188,290582.0442,291348.5932,295215.0288,295981.9751,296748.5329,297515.8722,283715.3356,284482.5405,285231.8862,285998.7426,296758.0598,Mapping
Mixed,Both,tile,35,m160lash.wav,None,722.3436763,271,294465.5857,286765.2765,287532.0569,288299.0456,289048.3737,289815.1188,290582.0442,291348.5932,295215.0288,295981.9751,296748.5329,297515.8722,298281.5896,284482.5405,285231.8862,285998.7426,297526.0227,Mapping
Mixed,Both,tile,35,m160greet.wav,None,721.2764071,271,294465.5857,286765.2765,287532.0569,288299.0456,289048.3737,289815.1188,290582.0442,291348.5932,295215.0288,295981.9751,296748.5329,297515.8722,298281.5896,299031.7222,285231.8862,285998.7426,298290.7242,Mapping
Mixed,Both,tile,35,m150cad.wav,None,734.375807,271,294465.5857,286765.2765,287532.0569,288299.0456,289048.3737,289815.1188,290582.0442,291348.5932,295215.0288,295981.9751,296748.5329,297515.8722,298281.5896,299031.7222,299798.5143,285998.7426,299041.255,Mapping
Mixed,Both,tile,35,m150reek.wav,None,731.2423266,271,294465.5857,286765.2765,287532.0569,288299.0456,289048.3737,289815.1188,290582.0442,291348.5932,295215.0288,295981.9751,296748.5329,297515.8722,298281.5896,299031.7222,299798.5143,300564.932,299808.091,Mapping
Mixed,Both,tile,35,m160tile.wav,None,729.4587013,271,294465.5857,301331.8827,287532.0569,288299.0456,289048.3737,289815.1188,290582.0442,291348.5932,295215.0288,295981.9751,296748.5329,297515.8722,298281.5896,299031.7222,299798.5143,300564.932,300573.732,Mapping
Mixed,Both,tile,35,m160priest.wav,space,379.8995987,271,294465.5857,301331.8827,302098.425,288299.0456,289048.3737,289815.1188,290582.0442,291348.5932,295215.0288,295981.9751,296748.5329,297515.8722,298281.5896,299031.7222,299798.5143,300564.932,301341.2089,Mapping
Mixed,Both,tile,35,m160greet.wav,None,725.6357628,271,294465.5857,301331.8827,302098.425,302865.4626,289048.3737,289815.1188,290582.0442,291348.5932,295215.0288,295981.9751,296748.5329,297515.8722,298281.5896,299031.7222,299798.5143,300564.932,302107.9948,Mapping
Mixed,Both,tile,35,m160reek.wav,None,721.4399599,271,294465.5857,301331.8827,302098.425,302865.4626,303632.2278,289815.1188,290582.0442,291348.5932,295215.0288,295981.9751,296748.5329,297515.8722,298281.5896,299031.7222,299798.5143,300564.932,302875.9055,Mapping
Mixed,Both,tile,35,m150cad.wav,None,718.879689,271,294465.5857,301331.8827,302098.425,302865.4626,303632.2278,304381.7287,290582.0442,291348.5932,295215.0288,295981.9751,296748.5329,297515.8722,298281.5896,299031.7222,299798.5143,300564.932,303642.0966,Mapping
Mixed,Both,tile,35,m150tile.wav,None,738.8220401,271,294465.5857,301331.8827,302098.425,302865.4626,303632.2278,304381.7287,305148.4543,291348.5932,295215.0288,295981.9751,296748.5329,297515.8722,298281.5896,299031.7222,299798.5143,300564.932,304385.8472,Mapping
Mixed,Both,tile,35,m160reek.wav,space,394.5890809,271,294465.5857,301331.8827,302098.425,302865.4626,303632.2278,304381.7287,305148.4543,305914.9725,295215.0288,295981.9751,296748.5329,297515.8722,298281.5896,299031.7222,299798.5143,300564.932,305158.436,Mapping
Mixed,Both,cave,13,m160park.wav,None,726.8486531,271,309032.2326,301331.8827,302098.425,302865.4626,303632.2278,304381.7287,305148.4543,305914.9725,295215.0288,295981.9751,296748.5329,297515.8722,298281.5896,299031.7222,299798.5143,300564.932,305924.5618,Mapping
Mixed,Both,cave,13,m150cave.wav,None,719.635929,271,309032.2326,301331.8827,302098.425,302865.4626,303632.2278,304381.7287,305148.4543,305914.9725,309781.5208,295981.9751,296748.5329,297515.8722,298281.5896,299031.7222,299798.5143,300564.932,309041.9846,Mapping
Mixed,Both,cave,13,m150jaw.wav,space,538.0956666,271,309032.2326,301331.8827,302098.425,302865.4626,303632.2278,304381.7287,305148.4543,305914.9725,309781.5208,310548.0084,296748.5329,297515.8722,298281.5896,299031.7222,299798.5143,300564.932,309790.857,Mapping
Mixed,Both,cave,13,m150tile.wav,None,731.4828644,271,309032.2326,301331.8827,302098.425,302865.4626,303632.2278,304381.7287,305148.4543,305914.9725,309781.5208,310548.0084,311314.4975,297515.8722,298281.5896,299031.7222,299798.5143,300564.932,310556.7429,Mapping
Mixed,Both,cave,13,m150cave.wav,None,728.474909,271,309032.2326,301331.8827,302098.425,302865.4626,303632.2278,304381.7287,305148.4543,305914.9725,309781.5208,310548.0084,311314.4975,312082.2131,298281.5896,299031.7222,299798.5143,300564.932,311323.4611,Mapping
Mixed,Both,cave,13,m160done.wav,space,444.6341745,271,309032.2326,301331.8827,302098.425,302865.4626,303632.2278,304381.7287,305148.4543,305914.9725,309781.5208,310548.0084,311314.4975,312082.2131,312848.0168,299031.7222,299798.5143,300564.932,312092.3206,Mapping
Mixed,Both,cave,13,m160reek.wav,None,727.8914973,271,309032.2326,301331.8827,302098.425,302865.4626,303632.2278,304381.7287,305148.4543,305914.9725,309781.5208,310548.0084,311314.4975,312082.2131,312848.0168,313598.5108,299798.5143,300564.932,312851.4953,Mapping
Mixed,Both,cave,13,m160done.wav,None,741.8386526,271,309032.2326,301331.8827,302098.425,302865.4626,303632.2278,304381.7287,305148.4543,305914.9725,309781.5208,310548.0084,311314.4975,312082.2131,312848.0168,313598.5108,314364.3636,300564.932,313602.2623,Mapping
Mixed,Both,cave,13,m150romp.wav,None,740.1592182,271,309032.2326,301331.8827,302098.425,302865.4626,303632.2278,304381.7287,305148.4543,305914.9725,309781.5208,310548.0084,311314.4975,312082.2131,312848.0168,313598.5108,314364.3636,315131.5474,314368.3445,Mapping
Mixed,Both,cave,13,m160cave.wav,None,738.4460843,271,309032.2326,315897.8244,302098.425,302865.4626,303632.2278,304381.7287,305148.4543,305914.9725,309781.5208,310548.0084,311314.4975,312082.2131,312848.0168,313598.5108,314364.3636,315131.5474,315134.8009,Mapping
Mixed,Both,cave,13,m150bluff.wav,space,358.1776409,271,309032.2326,315897.8244,316664.465,302865.4626,303632.2278,304381.7287,305148.4543,305914.9725,309781.5208,310548.0084,311314.4975,312082.2131,312848.0168,313598.5108,314364.3636,315131.5474,315906.7073,Mapping
Mixed,Both,cave,13,m150cling.wav,None,732.7458407,271,309032.2326,315897.8244,316664.465,317431.7667,303632.2278,304381.7287,305148.4543,305914.9725,309781.5208,310548.0084,311314.4975,312082.2131,312848.0168,313598.5108,314364.3636,315131.5474,316668.2122,Mapping
Mixed,Both,cave,13,m150lash.wav,None,730.3478858,271,309032.2326,315897.8244,316664.465,317431.7667,318198.0594,304381.7287,305148.4543,305914.9725,309781.5208,310548.0084,311314.4975,312082.2131,312848.0168,313598.5108,314364.3636,315131.5474,317435.3902,Mapping
Mixed,Both,cave,13,m160cave.wav,None,728.933414,271,309032.2326,315897.8244,316664.465,317431.7667,318198.0594,318964.8185,305148.4543,305914.9725,309781.5208,310548.0084,311314.4975,312082.2131,312848.0168,313598.5108,314364.3636,315131.5474,318201.3549,Mapping
Mixed,Both,cave,13,m160knife.wav,space,352.0358964,271,309032.2326,315897.8244,316664.465,317431.7667,318198.0594,318964.8185,319714.7717,305914.9725,309781.5208,310548.0084,311314.4975,312082.2131,312848.0168,313598.5108,314364.3636,315131.5474,318968.8151,Mapping
Mixed,Both,cave,13,m160depth.wav,None,740.6319459,271,309032.2326,315897.8244,316664.465,317431.7667,318198.0594,318964.8185,319714.7717,320498.1365,309781.5208,310548.0084,311314.4975,312082.2131,312848.0168,313598.5108,314364.3636,315131.5474,319718.2082,Mapping
Mixed,Both,tile,26,m150bluff.wav,None,726.2377245,271,323614.8342,315897.8244,316664.465,317431.7667,318198.0594,318964.8185,319714.7717,320498.1365,309781.5208,310548.0084,311314.4975,312082.2131,312848.0168,313598.5108,314364.3636,315131.5474,320501.815,Mapping
Mixed,Both,tile,26,m150tile.wav,None,726.2105173,271,323614.8342,315897.8244,316664.465,317431.7667,318198.0594,318964.8185,319714.7717,320498.1365,324364.3825,310548.0084,311314.4975,312082.2131,312848.0168,313598.5108,314364.3636,315131.5474,323618.9549,Mapping
Mixed,Both,tile,26,m160park.wav,space,496.672513,271,323614.8342,315897.8244,316664.465,317431.7667,318198.0594,318964.8185,319714.7717,320498.1365,324364.3825,325130.9853,311314.4975,312082.2131,312848.0168,313598.5108,314364.3636,315131.5474,324368.0845,Mapping
Mixed,Both,tile,26,m160jaw.wav,None,733.7707528,271,323614.8342,315897.8244,316664.465,317431.7667,318198.0594,318964.8185,319714.7717,320498.1365,324364.3825,325130.9853,325897.8563,312082.2131,312848.0168,313598.5108,314364.3636,315131.5474,325139.7668,Mapping
Mixed,Both,tile,26,m160tile.wav,None,738.4062009,271,323614.8342,315897.8244,316664.465,317431.7667,318198.0594,318964.8185,319714.7717,320498.1365,324364.3825,325130.9853,325897.8563,326664.3299,312848.0168,313598.5108,314364.3636,315131.5474,325901.4609,Mapping
Mixed,Both,tile,26,m150jolt.wav,space,343.4235412,271,323614.8342,315897.8244,316664.465,317431.7667,318198.0594,318964.8185,319714.7717,320498.1365,324364.3825,325130.9853,325897.8563,326664.3299,327431.5252,313598.5108,314364.3636,315131.5474,326673.2882,Mapping
Mixed,Both,tile,26,m150knife.wav,None,734.0487009,271,323614.8342,315897.8244,316664.465,317431.7667,318198.0594,318964.8185,319714.7717,320498.1365,324364.3825,325130.9853,325897.8563,326664.3299,327431.5252,328197.7521,314364.3636,315131.5474,327434.6466,Mapping
Mixed,Both,tile,26,m160jaw.wav,None,731.9608475,271,323614.8342,315897.8244,316664.465,317431.7667,318198.0594,318964.8185,319714.7717,320498.1365,324364.3825,325130.9853,325897.8563,326664.3299,327431.5252,328197.7521,328964.6803,315131.5474,328201.3682,Mapping
Mixed,Both,tile,26,m150tile.wav,None,727.6982637,271,323614.8342,315897.8244,316664.465,317431.7667,318198.0594,318964.8185,319714.7717,320498.1365,324364.3825,325130.9853,325897.8563,326664.3299,327431.5252,328197.7521,328964.6803,329731.4084,328970.2881,Mapping
Mixed,Both,tile,26,m160dime.wav,space,401.7758346,271,323614.8342,330480.9578,316664.465,317431.7667,318198.0594,318964.8185,319714.7717,320498.1365,324364.3825,325130.9853,325897.8563,326664.3299,327431.5252,328197.7521,328964.6803,329731.4084,329734.924,Mapping
Mixed,Both,tile,26,m160tile.wav,None,736.0771922,271,323614.8342,330480.9578,331247.8049,317431.7667,318198.0594,318964.8185,319714.7717,320498.1365,324364.3825,325130.9853,325897.8563,326664.3299,327431.5252,328197.7521,328964.6803,329731.4084,330490.0259,Mapping
Mixed,Both,tile,26,m160cling.wav,space,421.4931075,271,323614.8342,330480.9578,331247.8049,332014.2613,318198.0594,318964.8185,319714.7717,320498.1365,324364.3825,325130.9853,325897.8563,326664.3299,327431.5252,328197.7521,328964.6803,329731.4084,331251.196,Mapping
Mixed,Both,tile,26,m160dime.wav,None,733.460342,271,323614.8342,330480.9578,331247.8049,332014.2613,332780.8756,318964.8185,319714.7717,320498.1365,324364.3825,325130.9853,325897.8563,326664.3299,327431.5252,328197.7521,328964.6803,329731.4084,332021.6474,Mapping
Mixed,Both,tile,26,m150cling.wav,None,736.5632136,271,323614.8342,330480.9578,331247.8049,332014.2613,332780.8756,333547.7221,319714.7717,320498.1365,324364.3825,325130.9853,325897.8563,326664.3299,327431.5252,328197.7521,328964.6803,329731.4084,332784.3195,Mapping
Mixed,Both,tile,26,m150romp.wav,None,729.1006772,271,323614.8342,330480.9578,331247.8049,332014.2613,332780.8756,333547.7221,334314.1828,320498.1365,324364.3825,325130.9853,325897.8563,326664.3299,327431.5252,328197.7521,328964.6803,329731.4084,333556.2263,Mapping
Mixed,Both,tile,26,m150gnash.wav,None,726.4903197,271,323614.8342,330480.9578,331247.8049,332014.2613,332780.8756,333547.7221,334314.1828,335081.579,324364.3825,325130.9853,325897.8563,326664.3299,327431.5252,328197.7521,328964.6803,329731.4084,334323.2685,Mapping
Mixed,Both,cave,21,m150dime.wav,None,723.0130383,271,338197.4565,330480.9578,331247.8049,332014.2613,332780.8756,333547.7221,334314.1828,335081.579,324364.3825,325130.9853,325897.8563,326664.3299,327431.5252,328197.7521,328964.6803,329731.4084,335091.1748,Mapping
Mixed,Both,cave,21,m150cave.wav,None,730.8632792,271,338197.4565,330480.9578,331247.8049,332014.2613,332780.8756,333547.7221,334314.1828,335081.579,338964.5192,325130.9853,325897.8563,326664.3299,327431.5252,328197.7521,328964.6803,329731.4084,338200.8083,Mapping
Mixed,Both,cave,21,m160reek.wav,space,416.3895692,271,338197.4565,330480.9578,331247.8049,332014.2613,332780.8756,333547.7221,334314.1828,335081.579,338964.5192,339714.507,325897.8563,326664.3299,327431.5252,328197.7521,328964.6803,329731.4084,338968.1084,Mapping
Mixed,Both,cave,21,m150dime.wav,None,736.4030615,271,338197.4565,330480.9578,331247.8049,332014.2613,332780.8756,333547.7221,334314.1828,335081.579,338964.5192,339714.507,340480.8481,326664.3299,327431.5252,328197.7521,328964.6803,329731.4084,339723.2916,Mapping
Mixed,Both,cave,21,m160cling.wav,None,734.1869012,271,338197.4565,330480.9578,331247.8049,332014.2613,332780.8756,333547.7221,334314.1828,335081.579,338964.5192,339714.507,340480.8481,341247.4698,327431.5252,328197.7521,328964.6803,329731.4084,340489.9254,Mapping
Mixed,Both,cave,21,m150tile.wav,None,739.2653958,271,338197.4565,330480.9578,331247.8049,332014.2613,332780.8756,333547.7221,334314.1828,335081.579,338964.5192,339714.507,340480.8481,341247.4698,342014.3243,328197.7521,328964.6803,329731.4084,341250.5547,Mapping
Mixed,Both,cave,21,m160ball.wav,None,736.5125092,271,338197.4565,330480.9578,331247.8049,332014.2613,332780.8756,333547.7221,334314.1828,335081.579,338964.5192,339714.507,340480.8481,341247.4698,342014.3243,342780.8502,328964.6803,329731.4084,342017.8962,Mapping
Mixed,Both,cave,21,m160cave.wav,None,735.1450319,271,338197.4565,330480.9578,331247.8049,332014.2613,332780.8756,333547.7221,334314.1828,335081.579,338964.5192,339714.507,340480.8481,341247.4698,342014.3243,342780.8502,343547.5283,329731.4084,342784.2181,Mapping
Mixed,Both,cave,21,m150dime.wav,space,353.8250872,271,338197.4565,330480.9578,331247.8049,332014.2613,332780.8756,333547.7221,334314.1828,335081.579,338964.5192,339714.507,340480.8481,341247.4698,342014.3243,342780.8502,343547.5283,344314.3222,343550.6701,Mapping
Mixed,Both,cave,21,m150park.wav,None,723.5129727,271,338197.4565,345081.0352,331247.8049,332014.2613,332780.8756,333547.7221,334314.1828,335081.579,338964.5192,339714.507,340480.8481,341247.4698,342014.3243,342780.8502,343547.5283,344314.3222,344323.3238,Mapping
Mixed,Both,cave,21,m160cave.wav,None,724.0385688,271,338197.4565,345081.0352,345848.411,332014.2613,332780.8756,333547.7221,334314.1828,335081.579,338964.5192,339714.507,340480.8481,341247.4698,342014.3243,342780.8502,343547.5283,344314.3222,345090.3138,Mapping
Mixed,Both,cave,21,m150greet.wav,space,438.1013243,271,338197.4565,345081.0352,345848.411,346597.7793,332780.8756,333547.7221,334314.1828,335081.579,338964.5192,339714.507,340480.8481,341247.4698,342014.3243,342780.8502,343547.5283,344314.3222,345858.3451,Mapping
Mixed,Both,cave,21,m150cave.wav,None,736.9382423,271,338197.4565,345081.0352,345848.411,346597.7793,347363.9849,333547.7221,334314.1828,335081.579,338964.5192,339714.507,340480.8481,341247.4698,342014.3243,342780.8502,343547.5283,344314.3222,346604.2429,Mapping
Mixed,Both,cave,21,m160knife.wav,space,515.309222,271,338197.4565,345081.0352,345848.411,346597.7793,347363.9849,348131.2741,334314.1828,335081.579,338964.5192,339714.507,340480.8481,341247.4698,342014.3243,342780.8502,343547.5283,344314.3222,347373.0758,Mapping
Mixed,Both,cave,21,m160jaw.wav,None,727.5415119,271,338197.4565,345081.0352,345848.411,346597.7793,347363.9849,348131.2741,348897.4324,335081.579,338964.5192,339714.507,340480.8481,341247.4698,342014.3243,342780.8502,343547.5283,344314.3222,348140.4754,Mapping
Mixed,Both,cave,21,m160greet.wav,None,725.8098274,271,338197.4565,345081.0352,345848.411,346597.7793,347363.9849,348131.2741,348897.4324,349664.6051,338964.5192,339714.507,340480.8481,341247.4698,342014.3243,342780.8502,343547.5283,344314.3222,348906.191,Mapping
Mixed,Both,tile,27,m160dime.wav,None,720.9789814,271,352781.4995,345081.0352,345848.411,346597.7793,347363.9849,348131.2741,348897.4324,349664.6051,338964.5192,339714.507,340480.8481,341247.4698,342014.3243,342780.8502,343547.5283,344314.3222,349674.9377,Mapping
Mixed,Both,tile,27,m150reek.wav,None,719.0030492,271,352781.4995,345081.0352,345848.411,346597.7793,347363.9849,348131.2741,348897.4324,349664.6051,353531.0329,339714.507,340480.8481,341247.4698,342014.3243,342780.8502,343547.5283,344314.3222,352791.2218,Mapping
Mixed,Both,tile,27,m160depth.wav,None,733.9556389,271,352781.4995,345081.0352,345848.411,346597.7793,347363.9849,348131.2741,348897.4324,349664.6051,353531.0329,354297.7115,340480.8481,341247.4698,342014.3243,342780.8502,343547.5283,344314.3222,353540.3721,Mapping
Mixed,Both,tile,27,m160jolt.wav,None,731.0741358,271,352781.4995,345081.0352,345848.411,346597.7793,347363.9849,348131.2741,348897.4324,349664.6051,353531.0329,354297.7115,355064.3246,341247.4698,342014.3243,342780.8502,343547.5283,344314.3222,354307.2032,Mapping
Mixed,Both,tile,27,m150tile.wav,None,728.3224859,271,352781.4995,345081.0352,345848.411,346597.7793,347363.9849,348131.2741,348897.4324,349664.6051,353531.0329,354297.7115,355064.3246,355831.0765,342014.3243,342780.8502,343547.5283,344314.3222,355074.1344,Mapping
Mixed,Both,tile,27,m150dime.wav,space,375.6521642,271,352781.4995,345081.0352,345848.411,346597.7793,347363.9849,348131.2741,348897.4324,349664.6051,353531.0329,354297.7115,355064.3246,355831.0765,356598.269,342780.8502,343547.5283,344314.3222,355840.6554,Mapping
Mixed,Both,tile,27,m150knife.wav,None,725.9297869,271,352781.4995,345081.0352,345848.411,346597.7793,347363.9849,348131.2741,348897.4324,349664.6051,353531.0329,354297.7115,355064.3246,355831.0765,356598.269,357364.1837,343547.5283,344314.3222,356604.1594,Mapping
Mixed,Both,tile,27,m160tile.wav,None,721.0269035,271,352781.4995,345081.0352,345848.411,346597.7793,347363.9849,348131.2741,348897.4324,349664.6051,353531.0329,354297.7115,355064.3246,355831.0765,356598.269,357364.1837,358113.8206,344314.3222,357373.2851,Mapping
Mixed,Both,tile,27,m160done.wav,space,381.6189165,271,352781.4995,345081.0352,345848.411,346597.7793,347363.9849,348131.2741,348897.4324,349664.6051,353531.0329,354297.7115,355064.3246,355831.0765,356598.269,357364.1837,358113.8206,358881.0913,358122.6166,Mapping
Mixed,Both,tile,27,m150tile.wav,None,731.2120278,271,352781.4995,359647.3445,345848.411,346597.7793,347363.9849,348131.2741,348897.4324,349664.6051,353531.0329,354297.7115,355064.3246,355831.0765,356598.269,357364.1837,358113.8206,358881.0913,358890.3758,Mapping
Mixed,Both,tile,27,m150lash.wav,space,447.7756927,271,352781.4995,359647.3445,360414.0479,346597.7793,347363.9849,348131.2741,348897.4324,349664.6051,353531.0329,354297.7115,355064.3246,355831.0765,356598.269,357364.1837,358113.8206,358881.0913,359656.4556,Mapping
Mixed,Both,tile,27,m160tile.wav,None,725.9511203,271,352781.4995,359647.3445,360414.0479,361181.5251,347363.9849,348131.2741,348897.4324,349664.6051,353531.0329,354297.7115,355064.3246,355831.0765,356598.269,357364.1837,358113.8206,358881.0913,360423.0325,Mapping
Mixed,Both,tile,27,m150reek.wav,space,344.7254733,271,352781.4995,359647.3445,360414.0479,361181.5251,361930.5561,348131.2741,348897.4324,349664.6051,353531.0329,354297.7115,355064.3246,355831.0765,356598.269,357364.1837,358113.8206,358881.0913,361191.5232,Mapping
Mixed,Both,tile,27,m160lash.wav,None,736.6278316,271,352781.4995,359647.3445,360414.0479,361181.5251,361930.5561,362697.5454,348897.4324,349664.6051,353531.0329,354297.7115,355064.3246,355831.0765,356598.269,357364.1837,358113.8206,358881.0913,361939.5311,Mapping
Mixed,Both,tile,27,m150jaw.wav,None,732.9910155,271,352781.4995,359647.3445,360414.0479,361181.5251,361930.5561,362697.5454,363463.9217,349664.6051,353531.0329,354297.7115,355064.3246,355831.0765,356598.269,357364.1837,358113.8206,358881.0913,362707.1162,Mapping
Mixed,Both,tile,27,m160lash.wav,None,731.4262856,271,352781.4995,359647.3445,360414.0479,361181.5251,361930.5561,362697.5454,363463.9217,364230.8897,353531.0329,354297.7115,355064.3246,355831.0765,356598.269,357364.1837,358113.8206,358881.0913,363472.7879,Mapping
Mixed,Both,ball,11,m150jaw.wav,None,727.663327,271,367364.3855,359647.3445,360414.0479,361181.5251,361930.5561,362697.5454,363463.9217,364230.8897,353531.0329,354297.7115,355064.3246,355831.0765,356598.269,357364.1837,358113.8206,358881.0913,364240.621,Mapping
Mixed,Both,ball,11,m150ball.wav,None,719.4760861,271,367364.3855,359647.3445,360414.0479,361181.5251,361930.5561,362697.5454,363463.9217,364230.8897,368113.9195,354297.7115,355064.3246,355831.0765,356598.269,357364.1837,358113.8206,358881.0913,367374.408,Mapping
Mixed,Both,ball,11,m150greet.wav,space,413.0062768,271,367364.3855,359647.3445,360414.0479,361181.5251,361930.5561,362697.5454,363463.9217,364230.8897,368113.9195,368881.1541,355064.3246,355831.0765,356598.269,357364.1837,358113.8206,358881.0913,368123.1141,Mapping
Mixed,Both,ball,11,m160cad.wav,None,730.3546877,271,367364.3855,359647.3445,360414.0479,361181.5251,361930.5561,362697.5454,363463.9217,364230.8897,368113.9195,368881.1541,369647.4691,355831.0765,356598.269,357364.1837,358113.8206,358881.0913,368890.5752,Mapping
Mixed,Both,ball,11,m150ball.wav,None,727.5427487,271,367364.3855,359647.3445,360414.0479,361181.5251,361930.5561,362697.5454,363463.9217,364230.8897,368113.9195,368881.1541,369647.4691,370413.982,356598.269,357364.1837,358113.8206,358881.0913,369657.3624,Mapping
Mixed,Both,ball,11,m150romp.wav,space,336.8291655,271,367364.3855,359647.3445,360414.0479,361181.5251,361930.5561,362697.5454,363463.9217,364230.8897,368113.9195,368881.1541,369647.4691,370413.982,371181.0301,357364.1837,358113.8206,358881.0913,370423.2529,Mapping
Mixed,Both,ball,11,m160cling.wav,None,721.1972587,271,367364.3855,359647.3445,360414.0479,361181.5251,361930.5561,362697.5454,363463.9217,364230.8897,368113.9195,368881.1541,369647.4691,370413.982,371181.0301,371947.9793,358113.8206,358881.0913,371191.4654,Mapping
Mixed,Both,ball,11,m160reek.wav,None,718.9433789,271,367364.3855,359647.3445,360414.0479,361181.5251,361930.5561,362697.5454,363463.9217,364230.8897,368113.9195,368881.1541,369647.4691,370413.982,371181.0301,371947.9793,372697.338,358881.0913,371957.9205,Mapping
Mixed,Both,ball,11,m160cling.wav,None,734.4101248,271,367364.3855,359647.3445,360414.0479,361181.5251,361930.5561,362697.5454,363463.9217,364230.8897,368113.9195,368881.1541,369647.4691,370413.982,371181.0301,371947.9793,372697.338,373463.883,372706.8306,Mapping
Mixed,Both,ball,11,m160ball.wav,None,732.3231995,271,367364.3855,374230.7762,360414.0479,361181.5251,361930.5561,362697.5454,363463.9217,364230.8897,368113.9195,368881.1541,369647.4691,370413.982,371181.0301,371947.9793,372697.338,373463.883,373472.9425,Mapping
Mixed,Both,ball,11,m150done.wav,space,311.6905242,271,367364.3855,374230.7762,374997.3692,361181.5251,361930.5561,362697.5454,363463.9217,364230.8897,368113.9195,368881.1541,369647.4691,370413.982,371181.0301,371947.9793,372697.338,373463.883,374240.3109,Mapping
Mixed,Both,ball,11,m160tile.wav,None,725.5080733,271,367364.3855,374230.7762,374997.3692,375764.6242,361930.5561,362697.5454,363463.9217,364230.8897,368113.9195,368881.1541,369647.4691,370413.982,371181.0301,371947.9793,372697.338,373463.883,375006.8869,Mapping
Mixed,Both,ball,11,m160park.wav,None,722.1544613,271,367364.3855,374230.7762,374997.3692,375764.6242,376531.1652,362697.5454,363463.9217,364230.8897,368113.9195,368881.1541,369647.4691,370413.982,371181.0301,371947.9793,372697.338,373463.883,375774.4643,Mapping
Mixed,Both,ball,11,m160ball.wav,None,719.7648548,271,367364.3855,374230.7762,374997.3692,375764.6242,376531.1652,377280.4859,363463.9217,364230.8897,368113.9195,368881.1541,369647.4691,370413.982,371181.0301,371947.9793,372697.338,373463.883,376541.0461,Mapping
Mixed,Both,ball,11,m150bluff.wav,space,390.0216515,271,367364.3855,374230.7762,374997.3692,375764.6242,376531.1652,377280.4859,378047.3537,364230.8897,368113.9195,368881.1541,369647.4691,370413.982,371181.0301,371947.9793,372697.338,373463.883,377290.0156,Mapping
Mixed,Both,ball,11,m150romp.wav,None,730.9362441,271,367364.3855,374230.7762,374997.3692,375764.6242,376531.1652,377280.4859,378047.3537,378813.837,368113.9195,368881.1541,369647.4691,370413.982,371181.0301,371947.9793,372697.338,373463.883,378057.0473,Mapping
Mixed,Both,ball,7,m160priest.wav,None,728.8078894,271,381947.7193,374230.7762,374997.3692,375764.6242,376531.1652,377280.4859,378047.3537,378813.837,368113.9195,368881.1541,369647.4691,370413.982,371181.0301,371947.9793,372697.338,373463.883,378823.2921,Mapping
Mixed,Both,ball,7,m160priest.wav,None,719.2809973,271,381947.7193,374230.7762,374997.3692,375764.6242,376531.1652,377280.4859,378047.3537,378813.837,382697.2267,368881.1541,369647.4691,370413.982,371181.0301,371947.9793,372697.338,373463.883,381957.3572,Mapping
Mixed,Both,ball,7,m150ball.wav,None,734.0595215,271,381947.7193,374230.7762,374997.3692,375764.6242,376531.1652,377280.4859,378047.3537,378813.837,382697.2267,383463.4412,369647.4691,370413.982,371181.0301,371947.9793,372697.338,373463.883,382706.6886,Mapping
Mixed,Both,ball,7,m160greet.wav,space,439.4616908,271,381947.7193,374230.7762,374997.3692,375764.6242,376531.1652,377280.4859,378047.3537,378813.837,382697.2267,383463.4412,384230.5904,370413.982,371181.0301,371947.9793,372697.338,373463.883,383472.4428,Mapping
Mixed,Both,ball,7,m150cave.wav,None,727.5779946,271,381947.7193,374230.7762,374997.3692,375764.6242,376531.1652,377280.4859,378047.3537,378813.837,382697.2267,383463.4412,384230.5904,384997.1946,371181.0301,371947.9793,372697.338,373463.883,384240.352,Mapping
Mixed,Both,ball,7,m150bluff.wav,None,725.5000351,271,381947.7193,374230.7762,374997.3692,375764.6242,376531.1652,377280.4859,378047.3537,378813.837,382697.2267,383463.4412,384230.5904,384997.1946,385763.9876,371947.9793,372697.338,373463.883,385006.6921,Mapping
Mixed,Both,ball,7,m150ball.wav,None,722.3143042,271,381947.7193,374230.7762,374997.3692,375764.6242,376531.1652,377280.4859,378047.3537,378813.837,382697.2267,383463.4412,384230.5904,384997.1946,385763.9876,386531.0066,372697.338,373463.883,385774.062,Mapping
Mixed,Both,ball,7,m160lash.wav,space,346.8250753,271,381947.7193,374230.7762,374997.3692,375764.6242,376531.1652,377280.4859,378047.3537,378813.837,382697.2267,383463.4412,384230.5904,384997.1946,385763.9876,386531.0066,387280.4386,373463.883,386541.0059,Mapping
Mixed,Both,ball,7,m160ball.wav,None,733.7348885,271,381947.7193,374230.7762,374997.3692,375764.6242,376531.1652,377280.4859,378047.3537,378813.837,382697.2267,383463.4412,384230.5904,384997.1946,385763.9876,386531.0066,387280.4386,388047.1862,387290.0217,Mapping
Mixed,Both,ball,7,m160tile.wav,space,471.0456859,271,381947.7193,388813.6119,374997.3692,375764.6242,376531.1652,377280.4859,378047.3537,378813.837,382697.2267,383463.4412,384230.5904,384997.1946,385763.9876,386531.0066,387280.4386,388047.1862,388056.744,Mapping
Mixed,Both,ball,7,m150romp.wav,None,727.4778225,271,381947.7193,388813.6119,389579.9476,375764.6242,376531.1652,377280.4859,378047.3537,378813.837,382697.2267,383463.4412,384230.5904,384997.1946,385763.9876,386531.0066,387280.4386,388047.1862,388823.3515,Mapping
Mixed,Both,ball,7,m150gnash.wav,None,729.9827514,271,381947.7193,388813.6119,389579.9476,390347.2514,376531.1652,377280.4859,378047.3537,378813.837,382697.2267,383463.4412,384230.5904,384997.1946,385763.9876,386531.0066,387280.4386,388047.1862,389588.8172,Mapping
Mixed,Both,ball,7,m150priest.wav,None,725.8759909,271,381947.7193,388813.6119,389579.9476,390347.2514,391114.0377,377280.4859,378047.3537,378813.837,382697.2267,383463.4412,384230.5904,384997.1946,385763.9876,386531.0066,387280.4386,388047.1862,390357.1639,Mapping
Mixed,Both,ball,7,m160ball.wav,None,723.5225574,271,381947.7193,388813.6119,389579.9476,390347.2514,391114.0377,391880.9333,378047.3537,378813.837,382697.2267,383463.4412,384230.5904,384997.1946,385763.9876,386531.0066,387280.4386,388047.1862,391123.8311,Mapping
Mixed,Both,ball,7,m150dime.wav,space,332.7103476,271,381947.7193,388813.6119,389579.9476,390347.2514,391114.0377,391880.9333,392630.3393,378813.837,382697.2267,383463.4412,384230.5904,384997.1946,385763.9876,386531.0066,387280.4386,388047.1862,391891.0408,Mapping
Mixed,Both,ball,7,m160lash.wav,None,734.8649204,271,381947.7193,388813.6119,389579.9476,390347.2514,391114.0377,391880.9333,392630.3393,393397.0127,382697.2267,383463.4412,384230.5904,384997.1946,385763.9876,386531.0066,387280.4386,388047.1862,392639.8909,Mapping
Mixed,Both,tile,31,m150depth.wav,None,732.261674,271,396530.7321,388813.6119,389579.9476,390347.2514,391114.0377,391880.9333,392630.3393,393397.0127,382697.2267,383463.4412,384230.5904,384997.1946,385763.9876,386531.0066,387280.4386,388047.1862,393406.7297,Mapping
Mixed,Both,tile,31,m160dime.wav,None,722.5712282,271,396530.7321,388813.6119,389579.9476,390347.2514,391114.0377,391880.9333,392630.3393,393397.0127,397297.1992,383463.4412,384230.5904,384997.1946,385763.9876,386531.0066,387280.4386,388047.1862,396540.9642,Mapping
Mixed,Both,tile,31,m150bluff.wav,None,721.0701876,271,396530.7321,388813.6119,389579.9476,390347.2514,391114.0377,391880.9333,392630.3393,393397.0127,397297.1992,398064.2906,384230.5904,384997.1946,385763.9876,386531.0066,387280.4386,388047.1862,397306.694,Mapping
Mixed,Both,tile,31,m150tile.wav,None,718.6635761,271,396530.7321,388813.6119,389579.9476,390347.2514,391114.0377,391880.9333,392630.3393,393397.0127,397297.1992,398064.2906,398813.5052,384997.1946,385763.9876,386531.0066,387280.4386,388047.1862,398074.0475,Mapping
Mixed,Both,tile,31,m150cave.wav,space,368.1834443,271,396530.7321,388813.6119,389579.9476,390347.2514,391114.0377,391880.9333,392630.3393,393397.0127,397297.1992,398064.2906,398813.5052,399580.297,385763.9876,386531.0066,387280.4386,388047.1862,398823.4455,Mapping
Mixed,Both,tile,31,m160lash.wav,None,730.5831672,271,396530.7321,388813.6119,389579.9476,390347.2514,391114.0377,391880.9333,392630.3393,393397.0127,397297.1992,398064.2906,398813.5052,399580.297,400346.9871,386531.0066,387280.4386,388047.1862,399589.392,Mapping
Mixed,Both,tile,31,m150depth.wav,None,728.7574937,271,396530.7321,388813.6119,389579.9476,390347.2514,391114.0377,391880.9333,392630.3393,393397.0127,397297.1992,398064.2906,398813.5052,399580.297,400346.9871,401113.6901,387280.4386,388047.1862,400356.3597,Mapping
Mixed,Both,tile,31,m150lash.wav,None,725.6787377,271,396530.7321,388813.6119,389579.9476,390347.2514,391114.0377,391880.9333,392630.3393,393397.0127,397297.1992,398064.2906,398813.5052,399580.297,400346.9871,401113.6901,401880.7395,388047.1862,401123.6607,Mapping
Mixed,Both,tile,31,m160tile.wav,None,723.0161298,271,396530.7321,388813.6119,389579.9476,390347.2514,391114.0377,391880.9333,392630.3393,393397.0127,397297.1992,398064.2906,398813.5052,399580.297,400346.9871,401113.6901,401880.7395,402646.7463,401890.595,Mapping
Mixed,Both,tile,31,m160cling.wav,space,303.999817,271,396530.7321,403396.9125,389579.9476,390347.2514,391114.0377,391880.9333,392630.3393,393397.0127,397297.1992,398064.2906,398813.5052,399580.297,400346.9871,401113.6901,401880.7395,402646.7463,402655.6239,Mapping
Mixed,Both,tile,31,m150romp.wav,None,740.9615256,271,396530.7321,403396.9125,404163.4607,390347.2514,391114.0377,391880.9333,392630.3393,393397.0127,397297.1992,398064.2906,398813.5052,399580.297,400346.9871,401113.6901,401880.7395,402646.7463,403400.4198,Mapping
Mixed,Both,tile,31,m160bluff.wav,None,733.0435752,271,396530.7321,403396.9125,404163.4607,404930.369,391114.0377,391880.9333,392630.3393,393397.0127,397297.1992,398064.2906,398813.5052,399580.297,400346.9871,401113.6901,401880.7395,402646.7463,404172.6645,Mapping
Mixed,Both,tile,31,m160tile.wav,None,730.3497409,271,396530.7321,403396.9125,404163.4607,404930.369,405696.9147,391880.9333,392630.3393,393397.0127,397297.1992,398064.2906,398813.5052,399580.297,400346.9871,401113.6901,401880.7395,402646.7463,404939.6588,Mapping
Mixed,Both,tile,31,m160done.wav,space,429.1572249,271,396530.7321,403396.9125,404163.4607,404930.369,405696.9147,406463.3976,392630.3393,393397.0127,397297.1992,398064.2906,398813.5052,399580.297,400346.9871,401113.6901,401880.7395,402646.7463,405706.3925,Mapping
Mixed,Both,tile,31,m150tile.wav,None,724.7002013,271,396530.7321,403396.9125,404163.4607,404930.369,405696.9147,406463.3976,407230.8396,393397.0127,397297.1992,398064.2906,398813.5052,399580.297,400346.9871,401113.6901,401880.7395,402646.7463,406472.624,Mapping
Mixed,Both,tile,31,m160depth.wav,space,470.6224264,271,396530.7321,403396.9125,404163.4607,404930.369,405696.9147,406463.3976,407230.8396,407979.818,397297.1992,398064.2906,398813.5052,399580.297,400346.9871,401113.6901,401880.7395,402646.7463,407240.9116,Mapping
Mixed,Both,ball,5,m150jolt.wav,None,735.787496,271,411113.7931,403396.9125,404163.4607,404930.369,405696.9147,406463.3976,407230.8396,407979.818,397297.1992,398064.2906,398813.5052,399580.297,400346.9871,401113.6901,401880.7395,402646.7463,407989.1285,Mapping
Mixed,Both,ball,5,m160greet.wav,None,719.8065929,271,411113.7931,403396.9125,404163.4607,404930.369,405696.9147,406463.3976,407230.8396,407979.818,411863.2748,398064.2906,398813.5052,399580.297,400346.9871,401113.6901,401880.7395,402646.7463,411123.4498,Mapping
Mixed,Both,ball,5,m160ball.wav,None,735.2220165,271,411113.7931,403396.9125,404163.4607,404930.369,405696.9147,406463.3976,407230.8396,407979.818,411863.2748,412630.2667,398813.5052,399580.297,400346.9871,401113.6901,401880.7395,402646.7463,411872.3037,Mapping
Mixed,Both,ball,5,m160romp.wav,space,336.1044615,271,411113.7931,403396.9125,404163.4607,404930.369,405696.9147,406463.3976,407230.8396,407979.818,411863.2748,412630.2667,413396.8297,399580.297,400346.9871,401113.6901,401880.7395,402646.7463,412639.3697,Mapping
Mixed,Both,ball,5,m150dime.wav,None,728.7618225,271,411113.7931,403396.9125,404163.4607,404930.369,405696.9147,406463.3976,407230.8396,407979.818,411863.2748,412630.2667,413396.8297,414163.341,400346.9871,401113.6901,401880.7395,402646.7463,413406.2725,Mapping
Mixed,Both,ball,5,m150ball.wav,None,726.431577,271,411113.7931,403396.9125,404163.4607,404930.369,405696.9147,406463.3976,407230.8396,407979.818,411863.2748,412630.2667,413396.8297,414163.341,414930.5558,401113.6901,401880.7395,402646.7463,414172.884,Mapping
Mixed,Both,ball,5,m160depth.wav,space,490.9886555,271,411113.7931,403396.9125,404163.4607,404930.369,405696.9147,406463.3976,407230.8396,407979.818,411863.2748,412630.2667,413396.8297,414163.341,414930.5558,415697.0894,401880.7395,402646.7463,414940.4085,Mapping
Mixed,Both,ball,5,m150cling.wav,None,719.7685647,271,411113.7931,403396.9125,404163.4607,404930.369,405696.9147,406463.3976,407230.8396,407979.818,411863.2748,412630.2667,413396.8297,414163.341,414930.5558,415697.0894,416446.185,402646.7463,415706.9991,Mapping
Mixed,Both,ball,5,m160jolt.wav,None,736.1251139,271,411113.7931,403396.9125,404163.4607,404930.369,405696.9147,406463.3976,407230.8396,407979.818,411863.2748,412630.2667,413396.8297,414163.341,414930.5558,415697.0894,416446.185,417212.9224,416455.1504,Mapping
Mixed,Both,ball,5,m160ball.wav,None,733.9791367,271,411113.7931,417979.7655,404163.4607,404930.369,405696.9147,406463.3976,407230.8396,407979.818,411863.2748,412630.2667,413396.8297,414163.341,414930.5558,415697.0894,416446.185,417212.9224,417221.8355,Mapping
Mixed,Both,ball,5,m150park.wav,space,298.4210784,271,411113.7931,417979.7655,418746.7245,404930.369,405696.9147,406463.3976,407230.8396,407979.818,411863.2748,412630.2667,413396.8297,414163.341,414930.5558,415697.0894,416446.185,417212.9224,417988.973,Mapping
Mixed,Both,ball,5,m160reek.wav,None,726.6037865,271,411113.7931,417979.7655,418746.7245,419513.2442,405696.9147,406463.3976,407230.8396,407979.818,411863.2748,412630.2667,413396.8297,414163.341,414930.5558,415697.0894,416446.185,417212.9224,418756.5294,Mapping
Mixed,Both,ball,5,m150ball.wav,None,724.8770492,271,411113.7931,417979.7655,418746.7245,419513.2442,420280.4887,406463.3976,407230.8396,407979.818,411863.2748,412630.2667,413396.8297,414163.341,414930.5558,415697.0894,416446.185,417212.9224,419522.5937,Mapping
Mixed,Both,ball,5,m150depth.wav,space,356.7331792,271,411113.7931,417979.7655,418746.7245,419513.2442,420280.4887,421029.6146,407230.8396,407979.818,411863.2748,412630.2667,413396.8297,414163.341,414930.5558,415697.0894,416446.185,417212.9224,420290.598,Mapping
Mixed,Both,ball,5,m150park.wav,None,735.9328079,271,411113.7931,417979.7655,418746.7245,419513.2442,420280.4887,421029.6146,421796.6537,407979.818,411863.2748,412630.2667,413396.8297,414163.341,414930.5558,415697.0894,416446.185,417212.9224,421038.9411,Mapping
Mixed,Both,ball,5,m160park.wav,None,732.8818771,271,411113.7931,417979.7655,418746.7245,419513.2442,420280.4887,421029.6146,421796.6537,422562.8546,411863.2748,412630.2667,413396.8297,414163.341,414930.5558,415697.0894,416446.185,417212.9224,421806.4155,Mapping
Mixed,Both,tile,34,m150reek.wav,None,731.8411972,271,425697.0869,417979.7655,418746.7245,419513.2442,420280.4887,421029.6146,421796.6537,422562.8546,411863.2748,412630.2667,413396.8297,414163.341,414930.5558,415697.0894,416446.185,417212.9224,422571.8275,Mapping
Mixed,Both,tile,34,m150gnash.wav,None,718.8738142,271,425697.0869,417979.7655,418746.7245,419513.2442,420280.4887,421029.6146,421796.6537,422562.8546,426446.4923,412630.2667,413396.8297,414163.341,414930.5558,415697.0894,416446.185,417212.9224,425707.1716,Mapping
Mixed,Both,tile,34,m150tile.wav,None,734.4258926,271,425697.0869,417979.7655,418746.7245,419513.2442,420280.4887,421029.6146,421796.6537,422562.8546,426446.4923,427213.0164,413396.8297,414163.341,414930.5558,415697.0894,416446.185,417212.9224,426455.9821,Mapping
Mixed,Both,tile,34,m150greet.wav,space,289.1749162,271,425697.0869,417979.7655,418746.7245,419513.2442,420280.4887,421029.6146,421796.6537,422562.8546,426446.4923,427213.0164,427979.9955,414163.341,414930.5558,415697.0894,416446.185,417212.9224,427222.0127,Mapping
Mixed,Both,tile,34,m160jolt.wav,None,728.8023243,271,425697.0869,417979.7655,418746.7245,419513.2442,420280.4887,421029.6146,421796.6537,422562.8546,426446.4923,427213.0164,427979.9955,428746.6275,414930.5558,415697.0894,416446.185,417212.9224,427989.2015,Mapping
Mixed,Both,tile,34,m160jolt.wav,None,726.1440451,271,425697.0869,417979.7655,418746.7245,419513.2442,420280.4887,421029.6146,421796.6537,422562.8546,426446.4923,427213.0164,427979.9955,428746.6275,429513.4638,415697.0894,416446.185,417212.9224,428756.3584,Mapping
Mixed,Both,tile,34,m150knife.wav,None,723.8954213,271,425697.0869,417979.7655,418746.7245,419513.2442,420280.4887,421029.6146,421796.6537,422562.8546,426446.4923,427213.0164,427979.9955,428746.6275,429513.4638,430279.9006,416446.185,417212.9224,429523.0769,Mapping
Mixed,Both,tile,34,m160gnash.wav,None,722.3968543,271,425697.0869,417979.7655,418746.7245,419513.2442,420280.4887,421029.6146,421796.6537,422562.8546,426446.4923,427213.0164,427979.9955,428746.6275,429513.4638,430279.9006,431047.0297,417212.9224,430289.0448,Mapping
Mixed,Both,tile,34,m150priest.wav,None,718.8840173,271,425697.0869,417979.7655,418746.7245,419513.2442,420280.4887,421029.6146,421796.6537,422562.8546,426446.4923,427213.0164,427979.9955,428746.6275,429513.4638,430279.9006,431047.0297,431796.4434,431057.0776,Mapping
Mixed,Both,tile,34,m160tile.wav,None,734.4234195,271,425697.0869,432562.9245,418746.7245,419513.2442,420280.4887,421029.6146,421796.6537,422562.8546,426446.4923,427213.0164,427979.9955,428746.6275,429513.4638,430279.9006,431047.0297,431796.4434,431806.0467,Mapping
Mixed,Both,tile,34,m150knife.wav,space,362.9948837,271,425697.0869,432562.9245,433330.0041,419513.2442,420280.4887,421029.6146,421796.6537,422562.8546,426446.4923,427213.0164,427979.9955,428746.6275,429513.4638,430279.9006,431047.0297,431796.4434,432572.1571,Mapping
Mixed,Both,tile,34,m160jolt.wav,None,728.1490397,271,425697.0869,432562.9245,433330.0041,434096.4812,420280.4887,421029.6146,421796.6537,422562.8546,426446.4923,427213.0164,427979.9955,428746.6275,429513.4638,430279.9006,431047.0297,431796.4434,433339.7462,Mapping
Mixed,Both,tile,34,m150tile.wav,None,726.3280037,271,425697.0869,432562.9245,433330.0041,434096.4812,434862.7023,421029.6146,421796.6537,422562.8546,426446.4923,427213.0164,427979.9955,428746.6275,429513.4638,430279.9006,431047.0297,431796.4434,434106.0158,Mapping
Mixed,Both,tile,34,m160lash.wav,space,535.4918018,271,425697.0869,432562.9245,433330.0041,434096.4812,434862.7023,435630.2478,421796.6537,422562.8546,426446.4923,427213.0164,427979.9955,428746.6275,429513.4638,430279.9006,431047.0297,431796.4434,434871.5589,Mapping
Mixed,Both,tile,34,m160tile.wav,None,719.4012655,271,425697.0869,432562.9245,433330.0041,434096.4812,434862.7023,435630.2478,436379.4859,422562.8546,426446.4923,427213.0164,427979.9955,428746.6275,429513.4638,430279.9006,431047.0297,431796.4434,435640.4923,Mapping
Mixed,Both,tile,34,m160dime.wav,space,466.0797305,271,425697.0869,432562.9245,433330.0041,434096.4812,434862.7023,435630.2478,436379.4859,437146.1698,426446.4923,427213.0164,427979.9955,428746.6275,429513.4638,430279.9006,431047.0297,431796.4434,436389.0088,Mapping
Mixed,Both,done,47,m150reek.wav,None,732.0894636,271,440280.0428,432562.9245,433330.0041,434096.4812,434862.7023,435630.2478,436379.4859,437146.1698,426446.4923,427213.0164,427979.9955,428746.6275,429513.4638,430279.9006,431047.0297,431796.4434,437155.3696,Mapping
Mixed,Both,done,47,m150done.wav,None,718.6793438,271,440280.0428,432562.9245,433330.0041,434096.4812,434862.7023,435630.2478,436379.4859,437146.1698,441029.758,427213.0164,427979.9955,428746.6275,429513.4638,430279.9006,431047.0297,431796.4434,440290.1096,Mapping
Mixed,Both,done,47,m150knife.wav,space,384.0530445,271,440280.0428,432562.9245,433330.0041,434096.4812,434862.7023,435630.2478,436379.4859,437146.1698,441029.758,441796.3541,427979.9955,428746.6275,429513.4638,430279.9006,431047.0297,431796.4434,441038.9924,Mapping
Mixed,Both,done,47,m150dime.wav,None,730.2619354,271,440280.0428,432562.9245,433330.0041,434096.4812,434862.7023,435630.2478,436379.4859,437146.1698,441029.758,441796.3541,442562.9069,428746.6275,429513.4638,430279.9006,431047.0297,431796.4434,441805.8934,Mapping
Mixed,Both,done,47,m150done.wav,space,346.2085817,271,440280.0428,432562.9245,433330.0041,434096.4812,434862.7023,435630.2478,436379.4859,437146.1698,441029.758,441796.3541,442562.9069,443330.1897,429513.4638,430279.9006,431047.0297,431796.4434,442572.7934,Mapping
Mixed,Both,done,47,m150lash.wav,None,723.5423443,271,440280.0428,432562.9245,433330.0041,434096.4812,434862.7023,435630.2478,436379.4859,437146.1698,441029.758,441796.3541,442562.9069,443330.1897,444096.6828,430279.9006,431047.0297,431796.4434,443339.8835,Mapping
Mixed,Both,done,47,m160cling.wav,None,721.5846535,271,440280.0428,432562.9245,433330.0041,434096.4812,434862.7023,435630.2478,436379.4859,437146.1698,441029.758,441796.3541,442562.9069,443330.1897,444096.6828,444862.7675,431047.0297,431796.4434,444106.6329,Mapping
Mixed,Both,done,47,m160done.wav,None,721.1783989,271,440280.0428,432562.9245,433330.0041,434096.4812,434862.7023,435630.2478,436379.4859,437146.1698,441029.758,441796.3541,442562.9069,443330.1897,444096.6828,444862.7675,445612.7402,431796.4434,444871.591,Mapping
Mixed,Both,done,47,m160greet.wav,space,560.6418825,271,440280.0428,432562.9245,433330.0041,434096.4812,434862.7023,435630.2478,436379.4859,437146.1698,441029.758,441796.3541,442562.9069,443330.1897,444096.6828,444862.7675,445612.7402,446379.7546,445622.3076,Mapping
Mixed,Both,done,47,m160done.wav,None,730.944592,271,440280.0428,447146.3318,433330.0041,434096.4812,434862.7023,435630.2478,436379.4859,437146.1698,441029.758,441796.3541,442562.9069,443330.1897,444096.6828,444862.7675,445612.7402,446379.7546,446389.2738,Mapping
Mixed,Both,done,47,m150tile.wav,space,515.0853801,271,440280.0428,447146.3318,447912.8225,434096.4812,434862.7023,435630.2478,436379.4859,437146.1698,441029.758,441796.3541,442562.9069,443330.1897,444096.6828,444862.7675,445612.7402,446379.7546,447155.8402,Mapping
Mixed,Both,done,47,m160depth.wav,None,725.631434,271,440280.0428,447146.3318,447912.8225,448679.9627,434862.7023,435630.2478,436379.4859,437146.1698,441029.758,441796.3541,442562.9069,443330.1897,444096.6828,444862.7675,445612.7402,446379.7546,447921.9079,Mapping
Mixed,Both,done,47,m160jaw.wav,None,722.1529158,271,440280.0428,447146.3318,447912.8225,448679.9627,449446.4855,435630.2478,436379.4859,437146.1698,441029.758,441796.3541,442562.9069,443330.1897,444096.6828,444862.7675,445612.7402,446379.7546,448689.9833,Mapping
Mixed,Both,done,47,m160jaw.wav,None,720.0223967,271,440280.0428,447146.3318,447912.8225,448679.9627,449446.4855,450196.2106,436379.4859,437146.1698,441029.758,441796.3541,442562.9069,443330.1897,444096.6828,444862.7675,445612.7402,446379.7546,449456.7822,Mapping
Mixed,Both,done,47,m160greet.wav,None,735.715149,271,440280.0428,447146.3318,447912.8225,448679.9627,449446.4855,450196.2106,450962.5197,437146.1698,441029.758,441796.3541,442562.9069,443330.1897,444096.6828,444862.7675,445612.7402,446379.7546,450205.68,Mapping
Mixed,Both,done,47,m150bluff.wav,None,734.1587669,271,440280.0428,447146.3318,447912.8225,448679.9627,449446.4855,450196.2106,450962.5197,451729.2849,441029.758,441796.3541,442562.9069,443330.1897,444096.6828,444862.7675,445612.7402,446379.7546,450971.7718,Mapping
Mixed,Both,done,37,m150jolt.wav,None,732.4335747,271,454863.0597,447146.3318,447912.8225,448679.9627,449446.4855,450196.2106,450962.5197,451729.2849,441029.758,441796.3541,442562.9069,443330.1897,444096.6828,444862.7675,445612.7402,446379.7546,451738.3645,Mapping
Mixed,Both,done,37,m160bluff.wav,None,719.6572619,271,454863.0597,447146.3318,447912.8225,448679.9627,449446.4855,450196.2106,450962.5197,451729.2849,455612.6172,441796.3541,442562.9069,443330.1897,444096.6828,444862.7675,445612.7402,446379.7546,454872.7133,Mapping
Mixed,Both,done,37,m150gnash.wav,None,735.3299181,271,454863.0597,447146.3318,447912.8225,448679.9627,449446.4855,450196.2106,450962.5197,451729.2849,455612.6172,456379.4998,442562.9069,443330.1897,444096.6828,444862.7675,445612.7402,446379.7546,455621.7699,Mapping
Mixed,Both,done,37,m150jolt.wav,None,732.3442232,271,454863.0597,447146.3318,447912.8225,448679.9627,449446.4855,450196.2106,450962.5197,451729.2849,455612.6172,456379.4998,457146.1865,443330.1897,444096.6828,444862.7675,445612.7402,446379.7546,456389.3044,Mapping
Mixed,Both,done,37,m150done.wav,None,730.4709372,271,454863.0597,447146.3318,447912.8225,448679.9627,449446.4855,450196.2106,450962.5197,451729.2849,455612.6172,456379.4998,457146.1865,457912.6354,444096.6828,444862.7675,445612.7402,446379.7546,457155.6936,Mapping
Mixed,Both,done,37,m160jolt.wav,space,420.0458629,271,454863.0597,447146.3318,447912.8225,448679.9627,449446.4855,450196.2106,450962.5197,451729.2849,455612.6172,456379.4998,457146.1865,457912.6354,458679.5861,444862.7675,445612.7402,446379.7546,457922.7293,Mapping
Mixed,Both,done,37,m160greet.wav,None,724.823562,271,454863.0597,447146.3318,447912.8225,448679.9627,449446.4855,450196.2106,450962.5197,451729.2849,455612.6172,456379.4998,457146.1865,457912.6354,458679.5861,459446.4079,445612.7402,446379.7546,458688.8793,Mapping
Mixed,Both,done,37,m160done.wav,None,721.9290738,271,454863.0597,447146.3318,447912.8225,448679.9627,449446.4855,450196.2106,450962.5197,451729.2849,455612.6172,456379.4998,457146.1865,457912.6354,458679.5861,459446.4079,460212.9885,446379.7546,459456.239,Mapping
Mixed,Both,done,37,m160tile.wav,space,672.1368851,271,454863.0597,447146.3318,447912.8225,448679.9627,449446.4855,450196.2106,450962.5197,451729.2849,455612.6172,456379.4998,457146.1865,457912.6354,458679.5861,459446.4079,460212.9885,460962.5961,460222.5813,Mapping
Mixed,Both,done,37,m150park.wav,None,734.1139363,271,454863.0597,461729.5712,447912.8225,448679.9627,449446.4855,450196.2106,450962.5197,451729.2849,455612.6172,456379.4998,457146.1865,457912.6354,458679.5861,459446.4079,460212.9885,460962.5961,460971.7294,Mapping
Mixed,Both,done,37,m160done.wav,None,731.6847551,271,454863.0597,461729.5712,462496.0523,448679.9627,449446.4855,450196.2106,450962.5197,451729.2849,455612.6172,456379.4998,457146.1865,457912.6354,458679.5861,459446.4079,460212.9885,460962.5961,461738.7967,Mapping
Mixed,Both,done,37,m160priest.wav,space,444.9909613,271,454863.0597,461729.5712,462496.0523,463262.5145,449446.4855,450196.2106,450962.5197,451729.2849,455612.6172,456379.4998,457146.1865,457912.6354,458679.5861,459446.4079,460212.9885,460962.5961,462505.7217,Mapping
Mixed,Both,done,37,m150jaw.wav,None,725.9164928,271,454863.0597,461729.5712,462496.0523,463262.5145,464029.8792,450196.2106,450962.5197,451729.2849,455612.6172,456379.4998,457146.1865,457912.6354,458679.5861,459446.4079,460212.9885,460962.5961,463271.9419,Mapping
Mixed,Both,done,37,m160knife.wav,None,722.7864135,271,454863.0597,461729.5712,462496.0523,463262.5145,464029.8792,464796.4308,450962.5197,451729.2849,455612.6172,456379.4998,457146.1865,457912.6354,458679.5861,459446.4079,460212.9885,460962.5961,464039.7889,Mapping
Mixed,Both,done,37,m150done.wav,None,720.7004153,271,454863.0597,461729.5712,462496.0523,463262.5145,464029.8792,464796.4308,465562.4502,451729.2849,455612.6172,456379.4998,457146.1865,457912.6354,458679.5861,459446.4079,460212.9885,460962.5961,464806.5151,Mapping
Mixed,Both,done,37,m150reek.wav,space,443.3235852,271,454863.0597,461729.5712,462496.0523,463262.5145,464029.8792,464796.4308,465562.4502,466312.4934,455612.6172,456379.4998,457146.1865,457912.6354,458679.5861,459446.4079,460212.9885,460962.5961,465571.3328,Mapping
Mixed,Both,cave,18,m150park.wav,None,732.4474873,271,469446.343,461729.5712,462496.0523,463262.5145,464029.8792,464796.4308,465562.4502,466312.4934,455612.6172,456379.4998,457146.1865,457912.6354,458679.5861,459446.4079,460212.9885,460962.5961,466322.4427,Mapping
Mixed,Both,cave,18,m160romp.wav,None,718.944306,271,469446.343,461729.5712,462496.0523,463262.5145,464029.8792,464796.4308,465562.4502,466312.4934,470195.5493,456379.4998,457146.1865,457912.6354,458679.5861,459446.4079,460212.9885,460962.5961,469456.4196,Mapping
Mixed,Both,cave,18,m150jaw.wav,None,735.4780124,271,469446.343,461729.5712,462496.0523,463262.5145,464029.8792,464796.4308,465562.4502,466312.4934,470195.5493,470962.1812,457146.1865,457912.6354,458679.5861,459446.4079,460212.9885,460962.5961,470204.485,Mapping
Mixed,Both,cave,18,m160cave.wav,None,733.4631248,271,469446.343,461729.5712,462496.0523,463262.5145,464029.8792,464796.4308,465562.4502,466312.4934,470195.5493,470962.1812,471729.4145,457912.6354,458679.5861,459446.4079,460212.9885,460962.5961,470971.3009,Mapping
Mixed,Both,cave,18,m160dime.wav,space,380.0313068,271,469446.343,461729.5712,462496.0523,463262.5145,464029.8792,464796.4308,465562.4502,466312.4934,470195.5493,470962.1812,471729.4145,472495.9577,458679.5861,459446.4079,460212.9885,460962.5961,471738.5391,Mapping
Mixed,Both,cave,18,m150cave.wav,None,726.6897373,271,469446.343,461729.5712,462496.0523,463262.5145,464029.8792,464796.4308,465562.4502,466312.4934,470195.5493,470962.1812,471729.4145,472495.9577,473262.4762,459446.4079,460212.9885,460962.5961,472505.3819,Mapping
Mixed,Both,cave,18,m160done.wav,None,724.5298466,271,469446.343,461729.5712,462496.0523,463262.5145,464029.8792,464796.4308,465562.4502,466312.4934,470195.5493,470962.1812,471729.4145,472495.9577,473262.4762,474029.2374,460212.9885,460962.5961,473272.3472,Mapping
Mixed,Both,cave,18,m150reek.wav,space,104.4390299,271,469446.343,461729.5712,462496.0523,463262.5145,464029.8792,464796.4308,465562.4502,466312.4934,470195.5493,470962.1812,471729.4145,472495.9577,473262.4762,474029.2374,474779.5131,460962.5961,474038.1048,Mapping
Mixed,Both,cave,18,m160cave.wav,None,735.8731376,271,469446.343,461729.5712,462496.0523,463262.5145,464029.8792,464796.4308,465562.4502,466312.4934,470195.5493,470962.1812,471729.4145,472495.9577,473262.4762,474029.2374,474779.5131,475545.8451,474788.7314,Mapping
Mixed,Both,cave,18,m160reek.wav,space,547.1696188,271,469446.343,476312.3803,462496.0523,463262.5145,464029.8792,464796.4308,465562.4502,466312.4934,470195.5493,470962.1812,471729.4145,472495.9577,473262.4762,474029.2374,474779.5131,475545.8451,475555.3355,Mapping
Mixed,Both,cave,18,m150tile.wav,None,729.928955,271,469446.343,476312.3803,477079.2685,463262.5145,464029.8792,464796.4308,465562.4502,466312.4934,470195.5493,470962.1812,471729.4145,472495.9577,473262.4762,474029.2374,474779.5131,475545.8451,476322.2745,Mapping
Mixed,Both,cave,18,m150park.wav,None,728.1243056,271,469446.343,476312.3803,477079.2685,477845.8263,464029.8792,464796.4308,465562.4502,466312.4934,470195.5493,470962.1812,471729.4145,472495.9577,473262.4762,474029.2374,474779.5131,475545.8451,477088.6789,Mapping
Mixed,Both,cave,18,m160priest.wav,None,726.7444609,271,469446.343,476312.3803,477079.2685,477845.8263,478612.2972,464796.4308,465562.4502,466312.4934,470195.5493,470962.1812,471729.4145,472495.9577,473262.4762,474029.2374,474779.5131,475545.8451,477855.2617,Mapping
Mixed,Both,cave,18,m150greet.wav,None,730.3769481,271,469446.343,476312.3803,477079.2685,477845.8263,478612.2972,479379.9416,465562.4502,466312.4934,470195.5493,470962.1812,471729.4145,472495.9577,473262.4762,474029.2374,474779.5131,475545.8451,478616.3727,Mapping
Mixed,Both,cave,18,m150cave.wav,None,721.6369039,271,469446.343,476312.3803,477079.2685,477845.8263,478612.2972,479379.9416,480146.2888,466312.4934,470195.5493,470962.1812,471729.4145,472495.9577,473262.4762,474029.2374,474779.5131,475545.8451,479389.6253,Mapping
Mixed,Both,cave,18,m160jolt.wav,space,386.6052772,271,469446.343,476312.3803,477079.2685,477845.8263,478612.2972,479379.9416,480146.2888,480912.0897,470195.5493,470962.1812,471729.4145,472495.9577,473262.4762,474029.2374,474779.5131,475545.8451,480155.8201,Mapping
Mixed,Both,done,41,m160park.wav,None,725.0399841,271,484029.6003,476312.3803,477079.2685,477845.8263,478612.2972,479379.9416,480146.2888,480912.0897,470195.5493,470962.1812,471729.4145,472495.9577,473262.4762,474029.2374,474779.5131,475545.8451,480921.51,Mapping
Mixed,Both,done,41,m160knife.wav,None,719.5125688,271,484029.6003,476312.3803,477079.2685,477845.8263,478612.2972,479379.9416,480146.2888,480912.0897,484795.101,470962.1812,471729.4145,472495.9577,473262.4762,474029.2374,474779.5131,475545.8451,484039.7187,Mapping
Mixed,Both,done,41,m160done.wav,None,725.3423561,271,484029.6003,476312.3803,477079.2685,477845.8263,478612.2972,479379.9416,480146.2888,480912.0897,484795.101,485562.5532,471729.4145,472495.9577,473262.4762,474029.2374,474779.5131,475545.8451,484803.7907,Mapping
Mixed,Both,done,41,m150jolt.wav,space,362.4816542,271,484029.6003,476312.3803,477079.2685,477845.8263,478612.2972,479379.9416,480146.2888,480912.0897,484795.101,485562.5532,486312.2297,472495.9577,473262.4762,474029.2374,474779.5131,475545.8451,485571.8612,Mapping
Mixed,Both,done,41,m160jolt.wav,None,735.5494322,271,484029.6003,476312.3803,477079.2685,477845.8263,478612.2972,479379.9416,480146.2888,480912.0897,484795.101,485562.5532,486312.2297,487078.7504,473262.4762,474029.2374,474779.5131,475545.8451,486321.8212,Mapping
Mixed,Both,done,41,m150gnash.wav,None,734.284291,271,484029.6003,476312.3803,477079.2685,477845.8263,478612.2972,479379.9416,480146.2888,480912.0897,484795.101,485562.5532,486312.2297,487078.7504,487845.6133,474029.2374,474779.5131,475545.8451,487087.9211,Mapping
Mixed,Both,done,41,m150depth.wav,None,731.9178721,271,484029.6003,476312.3803,477079.2685,477845.8263,478612.2972,479379.9416,480146.2888,480912.0897,484795.101,485562.5532,486312.2297,487078.7504,487845.6133,488612.2273,474779.5131,475545.8451,487854.9998,Mapping
Mixed,Both,done,41,m150done.wav,None,729.8213621,271,484029.6003,476312.3803,477079.2685,477845.8263,478612.2972,479379.9416,480146.2888,480912.0897,484795.101,485562.5532,486312.2297,487078.7504,487845.6133,488612.2273,489379.0988,475545.8451,488621.9332,Mapping
Mixed,Both,done,41,m160priest.wav,space,403.6058364,271,484029.6003,476312.3803,477079.2685,477845.8263,478612.2972,479379.9416,480146.2888,480912.0897,484795.101,485562.5532,486312.2297,487078.7504,487845.6133,488612.2273,489379.0988,490145.558,489394.7919,Mapping
Mixed,Both,done,41,m160knife.wav,None,723.8740884,271,484029.6003,490912.568,477079.2685,477845.8263,478612.2972,479379.9416,480146.2888,480912.0897,484795.101,485562.5532,486312.2297,487078.7504,487845.6133,488612.2273,489379.0988,490145.558,490155.6052,Mapping
Mixed,Both,done,41,m160done.wav,None,722.0388302,271,484029.6003,490912.568,491679.2822,477845.8263,478612.2972,479379.9416,480146.2888,480912.0897,484795.101,485562.5532,486312.2297,487078.7504,487845.6133,488612.2273,489379.0988,490145.558,490922.1877,Mapping
Mixed,Both,done,41,m150jaw.wav,space,333.1079455,271,484029.6003,490912.568,491679.2822,492428.9835,478612.2972,479379.9416,480146.2888,480912.0897,484795.101,485562.5532,486312.2297,487078.7504,487845.6133,488612.2273,489379.0988,490145.558,491689.1909,Mapping
Mixed,Both,done,41,m150priest.wav,None,733.734889,271,484029.6003,490912.568,491679.2822,492428.9835,493195.5391,479379.9416,480146.2888,480912.0897,484795.101,485562.5532,486312.2297,487078.7504,487845.6133,488612.2273,489379.0988,490145.558,492438.2327,Mapping
Mixed,Both,done,41,m150done.wav,None,731.2151194,271,484029.6003,490912.568,491679.2822,492428.9835,493195.5391,493962.0334,480146.2888,480912.0897,484795.101,485562.5532,486312.2297,487078.7504,487845.6133,488612.2273,489379.0988,490145.558,493205.4864,Mapping
Mixed,Both,done,41,m160bluff.wav,space,307.0266317,271,484029.6003,490912.568,491679.2822,492428.9835,493195.5391,493962.0334,494729.0123,480912.0897,484795.101,485562.5532,486312.2297,487078.7504,487845.6133,488612.2273,489379.0988,490145.558,493971.2106,Mapping
Mixed,Both,done,41,m150park.wav,None,726.0534572,271,484029.6003,490912.568,491679.2822,492428.9835,493195.5391,493962.0334,494729.0123,495495.54,484795.101,485562.5532,486312.2297,487078.7504,487845.6133,488612.2273,489379.0988,490145.558,494738.4034,Mapping
Mixed,Both,ball,9,m150romp.wav,None,724.386699,271,498612.5269,490912.568,491679.2822,492428.9835,493195.5391,493962.0334,494729.0123,495495.54,484795.101,485562.5532,486312.2297,487078.7504,487845.6133,488612.2273,489379.0988,490145.558,495505.1358,Mapping
Mixed,Both,ball,9,m150tile.wav,None,719.3969372,271,498612.5269,490912.568,491679.2822,492428.9835,493195.5391,493962.0334,494729.0123,495495.54,499361.7335,485562.5532,486312.2297,487078.7504,487845.6133,488612.2273,489379.0988,490145.558,498622.61,Mapping
Mixed,Both,ball,9,m150tile.wav,None,735.8004814,271,498612.5269,490912.568,491679.2822,492428.9835,493195.5391,493962.0334,494729.0123,495495.54,499361.7335,500128.5379,486312.2297,487078.7504,487845.6133,488612.2273,489379.0988,490145.558,499371.0755,Mapping
Mixed,Both,ball,9,m150ball.wav,None,734.0895114,271,498612.5269,490912.568,491679.2822,492428.9835,493195.5391,493962.0334,494729.0123,495495.54,499361.7335,500128.5379,500895.4831,487078.7504,487845.6133,488612.2273,489379.0988,490145.558,500137.5803,Mapping
Mixed,Both,ball,9,m160gnash.wav,space,325.1052815,271,498612.5269,490912.568,491679.2822,492428.9835,493195.5391,493962.0334,494729.0123,495495.54,499361.7335,500128.5379,500895.4831,501661.9416,487845.6133,488612.2273,489379.0988,490145.558,500905.0313,Mapping
Mixed,Both,ball,9,m160romp.wav,None,728.5079905,271,498612.5269,490912.568,491679.2822,492428.9835,493195.5391,493962.0334,494729.0123,495495.54,499361.7335,500128.5379,500895.4831,501661.9416,502428.8895,488612.2273,489379.0988,490145.558,501671.056,Mapping
Mixed,Both,ball,9,m150romp.wav,None,726.4083889,271,498612.5269,490912.568,491679.2822,492428.9835,493195.5391,493962.0334,494729.0123,495495.54,499361.7335,500128.5379,500895.4831,501661.9416,502428.8895,503195.8881,489379.0988,490145.558,502438.0209,Mapping
Mixed,Both,ball,9,m150ball.wav,None,723.3911585,271,498612.5269,490912.568,491679.2822,492428.9835,493195.5391,493962.0334,494729.0123,495495.54,499361.7335,500128.5379,500895.4831,501661.9416,502428.8895,503195.8881,503962.201,490145.558,503206.0058,Mapping
Mixed,Both,ball,9,m160cad.wav,space,346.3835744,271,498612.5269,490912.568,491679.2822,492428.9835,493195.5391,493962.0334,494729.0123,495495.54,499361.7335,500128.5379,500895.4831,501661.9416,502428.8895,503195.8881,503962.201,504711.9486,503971.6979,Mapping
Mixed,Both,ball,9,m160cling.wav,None,736.2101367,271,498612.5269,505478.8502,491679.2822,492428.9835,493195.5391,493962.0334,494729.0123,495495.54,499361.7335,500128.5379,500895.4831,501661.9416,502428.8895,503195.8881,503962.201,504711.9486,504720.9505,Mapping
Mixed,Both,ball,9,m160ball.wav,None,734.0963134,271,498612.5269,505478.8502,506245.4163,492428.9835,493195.5391,493962.0334,494729.0123,495495.54,499361.7335,500128.5379,500895.4831,501661.9416,502428.8895,503195.8881,503962.201,504711.9486,505487.8722,Mapping
Mixed,Both,ball,9,m150lash.wav,space,359.0897047,271,498612.5269,505478.8502,506245.4163,507011.8293,493195.5391,493962.0334,494729.0123,495495.54,499361.7335,500128.5379,500895.4831,501661.9416,502428.8895,503195.8881,503962.201,504711.9486,506254.9518,Mapping
Mixed,Both,ball,9,m160gnash.wav,None,728.2096371,271,498612.5269,505478.8502,506245.4163,507011.8293,507778.7791,493962.0334,494729.0123,495495.54,499361.7335,500128.5379,500895.4831,501661.9416,502428.8895,503195.8881,503962.201,504711.9486,507021.4811,Mapping
Mixed,Both,ball,9,m160ball.wav,None,726.6551098,271,498612.5269,505478.8502,506245.4163,507011.8293,507778.7791,508545.331,494729.0123,495495.54,499361.7335,500128.5379,500895.4831,501661.9416,502428.8895,503195.8881,503962.201,504711.9486,507787.8864,Mapping
Mixed,Both,ball,9,m150romp.wav,space,299.2369891,271,498612.5269,505478.8502,506245.4163,507011.8293,507778.7791,508545.331,509312.2115,495495.54,499361.7335,500128.5379,500895.4831,501661.9416,502428.8895,503195.8881,503962.201,504711.9486,508554.8065,Mapping
Mixed,Both,ball,9,m160gnash.wav,None,720.3720729,271,498612.5269,505478.8502,506245.4163,507011.8293,507778.7791,508545.331,509312.2115,510079.5177,499361.7335,500128.5379,500895.4831,501661.9416,502428.8895,503195.8881,503962.201,504711.9486,509322.4748,Mapping
Mixed,Both,done,46,m160cad.wav,None,717.9648425,271,513195.0737,505478.8502,506245.4163,507011.8293,507778.7791,508545.331,509312.2115,510079.5177,499361.7335,500128.5379,500895.4831,501661.9416,502428.8895,503195.8881,503962.201,504711.9486,510089.7777,Mapping
Mixed,Both,done,46,m160bluff.wav,None,718.6546098,271,513195.0737,505478.8502,506245.4163,507011.8293,507778.7791,508545.331,509312.2115,510079.5177,513944.7682,500128.5379,500895.4831,501661.9416,502428.8895,503195.8881,503962.201,504711.9486,513206.1669,Mapping
Mixed,Both,done,46,m160done.wav,None,736.2144655,271,513195.0737,505478.8502,506245.4163,507011.8293,507778.7791,508545.331,509312.2115,510079.5177,513944.7682,514711.9115,500895.4831,501661.9416,502428.8895,503195.8881,503962.201,504711.9486,513953.5463,Mapping
Mixed,Both,done,46,m150priest.wav,space,420.5600196,271,513195.0737,505478.8502,506245.4163,507011.8293,507778.7791,508545.331,509312.2115,510079.5177,513944.7682,514711.9115,515478.7005,501661.9416,502428.8895,503195.8881,503962.201,504711.9486,514721.3713,Mapping
Mixed,Both,done,46,m160done.wav,None,729.6488429,271,513195.0737,505478.8502,506245.4163,507011.8293,507778.7791,508545.331,509312.2115,510079.5177,513944.7682,514711.9115,515478.7005,516244.8372,502428.8895,503195.8881,503962.201,504711.9486,515487.8913,Mapping
Mixed,Both,done,46,m150depth.wav,space,408.0789681,271,513195.0737,505478.8502,506245.4163,507011.8293,507778.7791,508545.331,509312.2115,510079.5177,513944.7682,514711.9115,515478.7005,516244.8372,517011.5285,503195.8881,503962.201,504711.9486,516253.8042,Mapping
Mixed,Both,done,46,m150cling.wav,None,726.5775069,271,513195.0737,505478.8502,506245.4163,507011.8293,507778.7791,508545.331,509312.2115,510079.5177,513944.7682,514711.9115,515478.7005,516244.8372,517011.5285,517779.0713,503962.201,504711.9486,517020.5221,Mapping
Mixed,Both,done,46,m150tile.wav,None,722.9221412,271,513195.0737,505478.8502,506245.4163,507011.8293,507778.7791,508545.331,509312.2115,510079.5177,513944.7682,514711.9115,515478.7005,516244.8372,517011.5285,517779.0713,518545.7428,504711.9486,517789.172,Mapping
Mixed,Both,done,46,m150jolt.wav,None,721.3332951,271,513195.0737,505478.8502,506245.4163,507011.8293,507778.7791,508545.331,509312.2115,510079.5177,513944.7682,514711.9115,515478.7005,516244.8372,517011.5285,517779.0713,518545.7428,519311.6652,518555.7588,Mapping
Mixed,Both,done,46,m150romp.wav,None,721.3564832,271,513195.0737,520061.8831,506245.4163,507011.8293,507778.7791,508545.331,509312.2115,510079.5177,513944.7682,514711.9115,515478.7005,516244.8372,517011.5285,517779.0713,518545.7428,519311.6652,519320.7169,Mapping
Mixed,Both,done,46,m150done.wav,None,735.7590515,271,513195.0737,520061.8831,520828.2466,507011.8293,507778.7791,508545.331,509312.2115,510079.5177,513944.7682,514711.9115,515478.7005,516244.8372,517011.5285,517779.0713,518545.7428,519311.6652,520071.3184,Mapping
Mixed,Both,done,46,m160dime.wav,space,440.2995529,271,513195.0737,520061.8831,520828.2466,521594.7051,507778.7791,508545.331,509312.2115,510079.5177,513944.7682,514711.9115,515478.7005,516244.8372,517011.5285,517779.0713,518545.7428,519311.6652,520837.5652,Mapping
Mixed,Both,done,46,m160ball.wav,None,731.2942678,271,513195.0737,520061.8831,520828.2466,521594.7051,522361.5263,508545.331,509312.2115,510079.5177,513944.7682,514711.9115,515478.7005,516244.8372,517011.5285,517779.0713,518545.7428,519311.6652,521603.7318,Mapping
Mixed,Both,done,46,m160lash.wav,None,729.210434,271,513195.0737,520061.8831,520828.2466,521594.7051,522361.5263,523128.5469,509312.2115,510079.5177,513944.7682,514711.9115,515478.7005,516244.8372,517011.5285,517779.0713,518545.7428,519311.6652,522370.5925,Mapping
Mixed,Both,done,46,m150done.wav,None,727.1207259,271,513195.0737,520061.8831,520828.2466,521594.7051,522361.5263,523128.5469,523895.1736,510079.5177,513944.7682,514711.9115,515478.7005,516244.8372,517011.5285,517779.0713,518545.7428,519311.6652,523138.0327,Mapping
Mixed,Both,done,46,m160reek.wav,space,301.1037828,271,513195.0737,520061.8831,520828.2466,521594.7051,522361.5263,523128.5469,523895.1736,524662.0052,513944.7682,514711.9115,515478.7005,516244.8372,517011.5285,517779.0713,518545.7428,519311.6652,523904.694,Mapping
Mixed,Both,cave,19,m150ball.wav,None,721.0837915,271,527778.9841,520061.8831,520828.2466,521594.7051,522361.5263,523128.5469,523895.1736,524662.0052,513944.7682,514711.9115,515478.7005,516244.8372,517011.5285,517779.0713,518545.7428,519311.6652,524672.0129,Mapping
Mixed,Both,cave,19,m160reek.wav,None,719.2132878,271,527778.9841,520061.8831,520828.2466,521594.7051,522361.5263,523128.5469,523895.1736,524662.0052,528527.9483,514711.9115,515478.7005,516244.8372,517011.5285,517779.0713,518545.7428,519311.6652,527789.1871,Mapping
Mixed,Both,cave,19,m150done.wav,None,736.7456267,271,527778.9841,520061.8831,520828.2466,521594.7051,522361.5263,523128.5469,523895.1736,524662.0052,528527.9483,529295.1451,515478.7005,516244.8372,517011.5285,517779.0713,518545.7428,519311.6652,528536.747,Mapping
Mixed,Both,cave,19,m150knife.wav,None,733.7438548,271,527778.9841,520061.8831,520828.2466,521594.7051,522361.5263,523128.5469,523895.1736,524662.0052,528527.9483,529295.1451,530061.2162,516244.8372,517011.5285,517779.0713,518545.7428,519311.6652,529304.722,Mapping
Mixed,Both,cave,19,m160cave.wav,None,733.369445,271,527778.9841,520061.8831,520828.2466,521594.7051,522361.5263,523128.5469,523895.1736,524662.0052,528527.9483,529295.1451,530061.2162,530828.0012,517011.5285,517779.0713,518545.7428,519311.6652,530070.1992,Mapping
Mixed,Both,cave,19,m160tile.wav,space,376.9485317,271,527778.9841,520061.8831,520828.2466,521594.7051,522361.5263,523128.5469,523895.1736,524662.0052,528527.9483,529295.1451,530061.2162,530828.0012,531595.0143,517779.0713,518545.7428,519311.6652,530836.7455,Mapping
Mixed,Both,cave,19,m150cave.wav,None,727.3742487,271,527778.9841,520061.8831,520828.2466,521594.7051,522361.5263,523128.5469,523895.1736,524662.0052,528527.9483,529295.1451,530061.2162,530828.0012,531595.0143,532361.5368,518545.7428,519311.6652,531604.3671,Mapping
Mixed,Both,cave,19,m150greet.wav,space,314.5593512,271,527778.9841,520061.8831,520828.2466,521594.7051,522361.5263,523128.5469,523895.1736,524662.0052,528527.9483,529295.1451,530061.2162,530828.0012,531595.0143,532361.5368,533128.8431,519311.6652,532371.0983,Mapping
Mixed,Both,cave,19,m160cave.wav,None,721.0704973,271,527778.9841,520061.8831,520828.2466,521594.7051,522361.5263,523128.5469,523895.1736,524662.0052,528527.9483,529295.1451,530061.2162,530828.0012,531595.0143,532361.5368,533128.8431,533895.424,533138.5623,Mapping
Mixed,Both,cave,19,m150ball.wav,space,340.5717188,271,527778.9841,534644.9939,520828.2466,521594.7051,522361.5263,523128.5469,523895.1736,524662.0052,528527.9483,529295.1451,530061.2162,530828.0012,531595.0143,532361.5368,533128.8431,533895.424,533905.1024,Mapping
Mixed,Both,cave,19,m150ball.wav,None,733.460342,271,527778.9841,534644.9939,535411.4202,521594.7051,522361.5263,523128.5469,523895.1736,524662.0052,528527.9483,529295.1451,530061.2162,530828.0012,531595.0143,532361.5368,533128.8431,533895.424,534654.2969,Mapping
Mixed,Both,cave,19,m160reek.wav,None,732.3222719,271,527778.9841,534644.9939,535411.4202,536178.2442,522361.5263,523128.5469,523895.1736,524662.0052,528527.9483,529295.1451,530061.2162,530828.0012,531595.0143,532361.5368,533128.8431,533895.424,535420.8587,Mapping
Mixed,Both,cave,19,m160romp.wav,None,730.4953616,271,527778.9841,534644.9939,535411.4202,536178.2442,536944.8943,523128.5469,523895.1736,524662.0052,528527.9483,529295.1451,530061.2162,530828.0012,531595.0143,532361.5368,533128.8431,533895.424,536187.6418,Mapping
Mixed,Both,cave,19,m150cave.wav,None,728.3781371,271,527778.9841,534644.9939,535411.4202,536178.2442,536944.8943,537711.4342,523895.1736,524662.0052,528527.9483,529295.1451,530061.2162,530828.0012,531595.0143,532361.5368,533128.8431,533895.424,536954.6769,Mapping
Mixed,Both,cave,19,m160jaw.wav,space,468.8919787,271,527778.9841,534644.9939,535411.4202,536178.2442,536944.8943,537711.4342,538478.7039,524662.0052,528527.9483,529295.1451,530061.2162,530828.0012,531595.0143,532361.5368,533128.8431,533895.424,537720.7115,Mapping
Mixed,Both,cave,19,m160gnash.wav,None,722.1961999,271,527778.9841,534644.9939,535411.4202,536178.2442,536944.8943,537711.4342,538478.7039,539245.3099,528527.9483,529295.1451,530061.2162,530828.0012,531595.0143,532361.5368,533128.8431,533895.424,538488.7057,Mapping
Mixed,Both,ball,4,m160priest.wav,None,720.4552405,271,542361.7356,534644.9939,535411.4202,536178.2442,536944.8943,537711.4342,538478.7039,539245.3099,528527.9483,529295.1451,530061.2162,530828.0012,531595.0143,532361.5368,533128.8431,533895.424,539255.3664,Mapping
Mixed,Both,ball,4,m160ball.wav,None,719.7719654,271,542361.7356,534644.9939,535411.4202,536178.2442,536944.8943,537711.4342,538478.7039,539245.3099,543111.6787,529295.1451,530061.2162,530828.0012,531595.0143,532361.5368,533128.8431,533895.424,542371.7757,Mapping
Mixed,Both,ball,4,m160jaw.wav,space,444.1416599,271,542361.7356,534644.9939,535411.4202,536178.2442,536944.8943,537711.4342,538478.7039,539245.3099,543111.6787,543878.3075,530061.2162,530828.0012,531595.0143,532361.5368,533128.8431,533895.424,543121.3311,Mapping
Mixed,Both,ball,4,m160ball.wav,None,732.3544263,271,542361.7356,534644.9939,535411.4202,536178.2442,536944.8943,537711.4342,538478.7039,539245.3099,543111.6787,543878.3075,544644.8235,530828.0012,531595.0143,532361.5368,533128.8431,533895.424,543887.4937,Mapping
Mixed,Both,ball,4,m150bluff.wav,space,359.1874037,271,542361.7356,534644.9939,535411.4202,536178.2442,536944.8943,537711.4342,538478.7039,539245.3099,543111.6787,543878.3075,544644.8235,545411.2443,531595.0143,532361.5368,533128.8431,533895.424,544654.2821,Mapping
Mixed,Both,ball,4,m160dime.wav,None,728.2244777,271,542361.7356,534644.9939,535411.4202,536178.2442,536944.8943,537711.4342,538478.7039,539245.3099,543111.6787,543878.3075,544644.8235,545411.2443,546177.9708,532361.5368,533128.8431,533895.424,545420.3136,Mapping
Mixed,Both,ball,4,m160depth.wav,None,726.7144709,271,542361.7356,534644.9939,535411.4202,536178.2442,536944.8943,537711.4342,538478.7039,539245.3099,543111.6787,543878.3075,544644.8235,545411.2443,546177.9708,546944.797,533128.8431,533895.424,546187.1787,Mapping
Mixed,Both,ball,4,m150dime.wav,None,724.6767045,271,542361.7356,534644.9939,535411.4202,536178.2442,536944.8943,537711.4342,538478.7039,539245.3099,543111.6787,543878.3075,544644.8235,545411.2443,546177.9708,546944.797,547711.6073,533895.424,546954.3492,Mapping
Mixed,Both,ball,4,m150tile.wav,None,721.8230264,271,542361.7356,534644.9939,535411.4202,536178.2442,536944.8943,537711.4342,538478.7039,539245.3099,543111.6787,543878.3075,544644.8235,545411.2443,546177.9708,546944.797,547711.6073,548477.5628,547722.2447,Mapping
Mixed,Both,ball,4,m150ball.wav,None,726.4850638,271,542361.7356,549244.6341,535411.4202,536178.2442,536944.8943,537711.4342,538478.7039,539245.3099,543111.6787,543878.3075,544644.8235,545411.2443,546177.9708,546944.797,547711.6073,548477.5628,548486.3053,Mapping
Mixed,Both,ball,4,m150jolt.wav,space,359.9615758,271,542361.7356,549244.6341,550011.6101,536178.2442,536944.8943,537711.4342,538478.7039,539245.3099,543111.6787,543878.3075,544644.8235,545411.2443,546177.9708,546944.797,547711.6073,548477.5628,549253.4576,Mapping
Mixed,Both,ball,4,m160gnash.wav,None,720.0081749,271,542361.7356,549244.6341,550011.6101,550760.8655,536944.8943,537711.4342,538478.7039,539245.3099,543111.6787,543878.3075,544644.8235,545411.2443,546177.9708,546944.797,547711.6073,548477.5628,550021.4023,Mapping
Mixed,Both,ball,4,m150ball.wav,None,736.7125452,271,542361.7356,549244.6341,550011.6101,550760.8655,551527.9872,537711.4342,538478.7039,539245.3099,543111.6787,543878.3075,544644.8235,545411.2443,546177.9708,546944.797,547711.6073,548477.5628,550769.8276,Mapping
