"Condition","Talker","Target","Trial","current_stimulus","response_response","response_time_response","subject_nr","time_Audio1","time_Audio10","time_Audio11","time_Audio12","time_Audio13","time_Audio14","time_Audio15","time_Audio16","time_Audio2","time_Audio3","time_Audio4","time_Audio5","time_Audio6","time_Audio7","time_Audio8","time_Audio9","time_response","title"
"Blocked","m150","ball","1","m150jolt.wav","NA","NA","153","659833.7504","NA","NA","NA","NA","NA","NA","NA","NA","NA","NA","NA","NA","NA","NA","NA","NA","Mapping"
"Blocked","m150","ball","1","m150cad.wav","None","716.471705586","153","659833.7504","NA","NA","NA","NA","NA","NA","NA","660601.463846","NA","NA","NA","NA","NA","NA","NA","659848.680411","Mapping"
"Blocked","m150","ball","1","m150depth.wav","None","719.565545674","153","659833.7504","NA","NA","NA","NA","NA","NA","NA","660601.463846","661367.661135","NA","NA","NA","NA","NA","NA","660611.561877","Mapping"
"Blocked","m150","ball","1","m150cave.wav","None","721.629857086","153","659833.7504","NA","NA","NA","NA","NA","NA","NA","660601.463846","661367.661135","662135.350775","NA","NA","NA","NA","NA","661376.88113","Mapping"
"Blocked","m150","ball","1","m150ball.wav","None","719.279565383","153","659833.7504","NA","NA","NA","NA","NA","NA","NA","660601.463846","661367.661135","662135.350775","662885.621606","NA","NA","NA","NA","662145.171792","Mapping"
"Blocked","m150","ball","1","m150cad.wav","space","363.437287975","153","659833.7504","NA","NA","NA","NA","NA","NA","NA","660601.463846","661367.661135","662135.350775","662885.621606","663653.331342","NA","NA","NA","662895.91905","Mapping"
"Blocked","m150","ball","1","m150gnash.wav","None","729.933170136","153","659833.7504","NA","NA","NA","NA","NA","NA","NA","660601.463846","661367.661135","662135.350775","662885.621606","663653.331342","664420.101209","NA","NA","663662.994684","Mapping"
"Blocked","m150","ball","1","m150ball.wav","None","729.999331757","153","659833.7504","NA","NA","NA","NA","NA","NA","NA","660601.463846","661367.661135","662135.350775","662885.621606","663653.331342","664420.101209","665187.091512","NA","664428.93289","Mapping"
"Blocked","m150","ball","1","m150jolt.wav","space","415.034261998","153","659833.7504","NA","NA","NA","NA","NA","NA","NA","660601.463846","661367.661135","662135.350775","662885.621606","663653.331342","664420.101209","665187.091512","665954.642336","665196.212265","Mapping"
"Blocked","m150","ball","1","m150ball.wav","None","719.340471551","153","659833.7504","666704.701387","NA","NA","NA","NA","NA","NA","660601.463846","661367.661135","662135.350775","662885.621606","663653.331342","664420.101209","665187.091512","665954.642336","665964.467991","Mapping"
"Blocked","m150","ball","1","m150cave.wav","space","449.358353857","153","659833.7504","666704.701387","667472.387627","NA","NA","NA","NA","NA","660601.463846","661367.661135","662135.350775","662885.621606","663653.331342","664420.101209","665187.091512","665954.642336","666713.867896","Mapping"
"Blocked","m150","ball","1","m150ball.wav","None","726.673926227","153","659833.7504","666704.701387","667472.387627","668239.527567","NA","NA","NA","NA","660601.463846","661367.661135","662135.350775","662885.621606","663653.331342","664420.101209","665187.091512","665954.642336","667482.238633","Mapping"
"Blocked","m150","ball","1","m150cad.wav","space","442.269141786","153","659833.7504","666704.701387","667472.387627","668239.527567","668990.149922","NA","NA","NA","660601.463846","661367.661135","662135.350775","662885.621606","663653.331342","664420.101209","665187.091512","665954.642336","668248.884832","Mapping"
"Blocked","m150","ball","1","m150tile.wav","None","735.04772922","153","659833.7504","666704.701387","667472.387627","668239.527567","668990.149922","669757.567803","NA","NA","660601.463846","661367.661135","662135.350775","662885.621606","663653.331342","664420.101209","665187.091512","665954.642336","668999.35384","Mapping"
"Blocked","m150","ball","1","m150dime.wav","None","733.42058016","153","659833.7504","666704.701387","667472.387627","668239.527567","668990.149922","669757.567803","670524.401668","NA","660601.463846","661367.661135","662135.350775","662885.621606","663653.331342","664420.101209","665187.091512","665954.642336","669767.144269","Mapping"
"Blocked","m150","ball","1","m150bluff.wav","None","732.919420116","153","659833.7504","666704.701387","667472.387627","668239.527567","668990.149922","669757.567803","670524.401668","671291.713506","660601.463846","661367.661135","662135.350775","662885.621606","663653.331342","664420.101209","665187.091512","665954.642336","670533.790777","Mapping"
"Blocked","m150","done","20","m150knife.wav","space","357.994702179","153","674460.558258","666704.701387","667472.387627","668239.527567","668990.149922","669757.567803","670524.401668","671291.713506","660601.463846","661367.661135","662135.350775","662885.621606","663653.331342","664420.101209","665187.091512","665954.642336","671301.004609","Mapping"
"Blocked","m150","done","20","m150done.wav","None","722.507583909","153","674460.558258","666704.701387","667472.387627","668239.527567","668990.149922","669757.567803","670524.401668","671291.713506","675227.691705","661367.661135","662135.350775","662885.621606","663653.331342","664420.101209","665187.091512","665954.642336","674470.160384","Mapping"
"Blocked","m150","done","20","m150knife.wav","space","590.24013672","153","674460.558258","666704.701387","667472.387627","668239.527567","668990.149922","669757.567803","670524.401668","671291.713506","675227.691705","675978.486266","662135.350775","662885.621606","663653.331342","664420.101209","665187.091512","665954.642336","675236.632213","Mapping"
"Blocked","m150","done","20","m150lash.wav","None","733.660185244","153","674460.558258","666704.701387","667472.387627","668239.527567","668990.149922","669757.567803","670524.401668","671291.713506","675227.691705","675978.486266","676745.626516","662885.621606","663653.331342","664420.101209","665187.091512","665954.642336","675987.769022","Mapping"
"Blocked","m150","done","20","m150done.wav","None","733.36369358","153","674460.558258","666704.701387","667472.387627","668239.527567","668990.149922","669757.567803","670524.401668","671291.713506","675227.691705","675978.486266","676745.626516","677512.687309","663653.331342","664420.101209","665187.091512","665954.642336","676754.405329","Mapping"
"Blocked","m150","done","20","m150greet.wav","space","505.312426016","153","674460.558258","666704.701387","667472.387627","668239.527567","668990.149922","669757.567803","670524.401668","671291.713506","675227.691705","675978.486266","676745.626516","677512.687309","678280.162387","664420.101209","665187.091512","665954.642336","677521.489619","Mapping"
"Blocked","m150","done","20","m150dime.wav","None","727.793112397","153","674460.558258","666704.701387","667472.387627","668239.527567","668990.149922","669757.567803","670524.401668","671291.713506","675227.691705","675978.486266","676745.626516","677512.687309","678280.162387","679047.299236","665187.091512","665954.642336","678289.468022","Mapping"
"Blocked","m150","done","20","m150greet.wav","None","723.347282968","153","674460.558258","666704.701387","667472.387627","668239.527567","668990.149922","669757.567803","670524.401668","671291.713506","675227.691705","675978.486266","676745.626516","677512.687309","678280.162387","679047.299236","679797.62819","665954.642336","679056.482131","Mapping"
"Blocked","m150","done","20","m150gnash.wav","None","735.68894295","153","674460.558258","666704.701387","667472.387627","668239.527567","668990.149922","669757.567803","670524.401668","671291.713506","675227.691705","675978.486266","676745.626516","677512.687309","678280.162387","679047.299236","679797.62819","680565.278566","679807.033686","Mapping"
"Blocked","m150","done","20","m150greet.wav","None","730.801003985","153","674460.558258","681332.284946","667472.387627","668239.527567","668990.149922","669757.567803","670524.401668","671291.713506","675227.691705","675978.486266","676745.626516","677512.687309","678280.162387","679047.299236","679797.62819","680565.278566","680574.609552","Mapping"
"Blocked","m150","done","20","m150bluff.wav","None","724.766361993","153","674460.558258","681332.284946","682099.069344","668239.527567","668990.149922","669757.567803","670524.401668","671291.713506","675227.691705","675978.486266","676745.626516","677512.687309","678280.162387","679047.299236","679797.62819","680565.278566","681343.299659","Mapping"
"Blocked","m150","done","20","m150done.wav","None","724.214497954","153","674460.558258","681332.284946","682099.069344","682849.977987","668990.149922","669757.567803","670524.401668","671291.713506","675227.691705","675978.486266","676745.626516","677512.687309","678280.162387","679047.299236","679797.62819","680565.278566","682107.827751","Mapping"
"Blocked","m150","done","20","m150jolt.wav","space","503.299126867","153","674460.558258","681332.284946","682099.069344","682849.977987","683617.018066","669757.567803","670524.401668","671291.713506","675227.691705","675978.486266","676745.626516","677512.687309","678280.162387","679047.299236","679797.62819","680565.278566","682859.317321","Mapping"
"Blocked","m150","done","20","m150done.wav","None","731.177260634","153","674460.558258","681332.284946","682099.069344","682849.977987","683617.018066","684384.64711","670524.401668","671291.713506","675227.691705","675978.486266","676745.626516","677512.687309","678280.162387","679047.299236","679797.62819","680565.278566","683625.981762","Mapping"
"Blocked","m150","done","20","m150ball.wav","space","664.576075971","153","674460.558258","681332.284946","682099.069344","682849.977987","683617.018066","684384.64711","685151.921538","671291.713506","675227.691705","675978.486266","676745.626516","677512.687309","678280.162387","679047.299236","679797.62819","680565.278566","684394.003757","Mapping"
"Blocked","m150","done","20","m150lash.wav","None","720.198720694","153","674460.558258","681332.284946","682099.069344","682849.977987","683617.018066","684384.64711","685151.921538","685902.517922","675227.691705","675978.486266","676745.626516","677512.687309","678280.162387","679047.299236","679797.62819","680565.278566","685162.010912","Mapping"
"Blocked","m150","done","24","m150jolt.wav","None","732.94384405","153","689021.382028","681332.284946","682099.069344","682849.977987","683617.018066","684384.64711","685151.921538","685902.517922","675227.691705","675978.486266","676745.626516","677512.687309","678280.162387","679047.299236","679797.62819","680565.278566","685911.828813","Mapping"
"Blocked","m150","done","24","m150reek.wav","None","740.191968158","153","689021.382028","681332.284946","682099.069344","682849.977987","683617.018066","684384.64711","685151.921538","685902.517922","689788.075222","675978.486266","676745.626516","677512.687309","678280.162387","679047.299236","679797.62819","680565.278566","689025.206431","Mapping"
"Blocked","m150","done","24","m150romp.wav","None","736.560177058","153","689021.382028","681332.284946","682099.069344","682849.977987","683617.018066","684384.64711","685151.921538","685902.517922","689788.075222","690555.859158","676745.626516","677512.687309","678280.162387","679047.299236","679797.62819","680565.278566","689796.775506","Mapping"
"Blocked","m150","done","24","m150done.wav","None","734.124246053","153","689021.382028","681332.284946","682099.069344","682849.977987","683617.018066","684384.64711","685151.921538","685902.517922","689788.075222","690555.859158","691322.885943","677512.687309","678280.162387","679047.299236","679797.62819","680565.278566","690565.342254","Mapping"
"Blocked","m150","done","24","m150cling.wav","space","598.31744805","153","689021.382028","681332.284946","682099.069344","682849.977987","683617.018066","684384.64711","685151.921538","685902.517922","689788.075222","690555.859158","691322.885943","692090.241064","678280.162387","679047.299236","679797.62819","680565.278566","691331.991546","Mapping"
"Blocked","m150","done","24","m150park.wav","None","727.850308642","153","689021.382028","681332.284946","682099.069344","682849.977987","683617.018066","684384.64711","685151.921538","685902.517922","689788.075222","690555.859158","691322.885943","692090.241064","692857.23786","679047.299236","679797.62819","680565.278566","692099.854011","Mapping"
"Blocked","m150","done","24","m150depth.wav","None","727.352858055","153","689021.382028","681332.284946","682099.069344","682849.977987","683617.018066","684384.64711","685151.921538","685902.517922","689788.075222","690555.859158","691322.885943","692090.241064","692857.23786","693624.601019","679797.62819","680565.278566","692866.50423","Mapping"
"Blocked","m150","done","24","m150done.wav","None","722.214492969","153","689021.382028","681332.284946","682099.069344","682849.977987","683617.018066","684384.64711","685151.921538","685902.517922","689788.075222","690555.859158","691322.885943","692090.241064","692857.23786","693624.601019","694375.157212","680565.278566","693634.358038","Mapping"
"Blocked","m150","done","24","m150cling.wav","space","457.626421936","153","689021.382028","681332.284946","682099.069344","682849.977987","683617.018066","684384.64711","685151.921538","685902.517922","689788.075222","690555.859158","691322.885943","692090.241064","692857.23786","693624.601019","694375.157212","695142.608484","694384.585276","Mapping"
"Blocked","m150","done","24","m150done.wav","None","729.511774611","153","689021.382028","695909.479139","682099.069344","682849.977987","683617.018066","684384.64711","685151.921538","685902.517922","689788.075222","690555.859158","691322.885943","692090.241064","692857.23786","693624.601019","694375.157212","695142.608484","695152.242763","Mapping"
"Blocked","m150","done","24","m150cling.wav","space","537.471727002","153","689021.382028","695909.479139","696677.30976","682849.977987","683617.018066","684384.64711","685151.921538","685902.517922","689788.075222","690555.859158","691322.885943","692090.241064","692857.23786","693624.601019","694375.157212","695142.608484","695920.675024","Mapping"
"Blocked","m150","done","24","m150lash.wav","None","719.24617514","153","689021.382028","695909.479139","696677.30976","697427.151157","683617.018066","684384.64711","685151.921538","685902.517922","689788.075222","690555.859158","691322.885943","692090.241064","692857.23786","693624.601019","694375.157212","695142.608484","696687.372237","Mapping"
"Blocked","m150","done","24","m150bluff.wav","None","733.07214817","153","689021.382028","695909.479139","696677.30976","697427.151157","698194.629945","684384.64711","685151.921538","685902.517922","689788.075222","690555.859158","691322.885943","692090.241064","692857.23786","693624.601019","694375.157212","695142.608484","697436.246558","Mapping"
"Blocked","m150","done","24","m150done.wav","None","727.859583683","153","689021.382028","695909.479139","696677.30976","697427.151157","698194.629945","698961.963424","685151.921538","685902.517922","689788.075222","690555.859158","691322.885943","692090.241064","692857.23786","693624.601019","694375.157212","695142.608484","698204.101911","Mapping"
"Blocked","m150","done","24","m150bluff.wav","space","390.625174157","153","689021.382028","695909.479139","696677.30976","697427.151157","698194.629945","698961.963424","699712.049373","685902.517922","689788.075222","690555.859158","691322.885943","692090.241064","692857.23786","693624.601019","694375.157212","695142.608484","698971.414367","Mapping"
"Blocked","m150","done","24","m150depth.wav","None","735.717077274","153","689021.382028","695909.479139","696677.30976","697427.151157","698194.629945","698961.963424","699712.049373","700479.517649","689788.075222","690555.859158","691322.885943","692090.241064","692857.23786","693624.601019","694375.157212","695142.608484","699721.38716","Mapping"
"Blocked","m150","ball","4","m150knife.wav","None","730.386719108","153","703598.393194","695909.479139","696677.30976","697427.151157","698194.629945","698961.963424","699712.049373","700479.517649","689788.075222","690555.859158","691322.885943","692090.241064","692857.23786","693624.601019","694375.157212","695142.608484","700489.421523","Mapping"
"Blocked","m150","ball","4","m150romp.wav","None","735.499114264","153","703598.393194","695909.479139","696677.30976","697427.151157","698194.629945","698961.963424","699712.049373","700479.517649","704365.794072","690555.859158","691322.885943","692090.241064","692857.23786","693624.601019","694375.157212","695142.608484","703607.457678","Mapping"
"Blocked","m150","ball","4","m150done.wav","None","730.805641506","153","703598.393194","695909.479139","696677.30976","697427.151157","698194.629945","698961.963424","699712.049373","700479.517649","704365.794072","705132.893512","691322.885943","692090.241064","692857.23786","693624.601019","694375.157212","695142.608484","704374.993043","Mapping"
"Blocked","m150","ball","4","m150jolt.wav","None","726.322711445","153","703598.393194","695909.479139","696677.30976","697427.151157","698194.629945","698961.963424","699712.049373","700479.517649","704365.794072","705132.893512","705900.284805","692090.241064","692857.23786","693624.601019","694375.157212","695142.608484","705142.222643","Mapping"
"Blocked","m150","ball","4","m150ball.wav","None","726.992986631","153","703598.393194","695909.479139","696677.30976","697427.151157","698194.629945","698961.963424","699712.049373","700479.517649","704365.794072","705132.893512","705900.284805","706650.931584","692857.23786","693624.601019","694375.157212","695142.608484","705904.498141","Mapping"
"Blocked","m150","ball","4","m150gnash.wav","space","509.367158636","153","703598.393194","695909.479139","696677.30976","697427.151157","698194.629945","698961.963424","699712.049373","700479.517649","704365.794072","705132.893512","705900.284805","706650.931584","707417.696504","693624.601019","694375.157212","695142.608484","706660.413444","Mapping"
"Blocked","m150","ball","4","m150tile.wav","None","730.051581282","153","703598.393194","695909.479139","696677.30976","697427.151157","698194.629945","698961.963424","699712.049373","700479.517649","704365.794072","705132.893512","705900.284805","706650.931584","707417.696504","708185.314417","694375.157212","695142.608484","707426.471607","Mapping"
"Blocked","m150","ball","4","m150cling.wav","None","724.288079888","153","703598.393194","695909.479139","696677.30976","697427.151157","698194.629945","698961.963424","699712.049373","700479.517649","704365.794072","705132.893512","705900.284805","706650.931584","707417.696504","708185.314417","708952.309049","695142.608484","708194.965392","Mapping"
"Blocked","m150","ball","4","m150ball.wav","None","720.178624615","153","703598.393194","695909.479139","696677.30976","697427.151157","698194.629945","698961.963424","699712.049373","700479.517649","704365.794072","705132.893512","705900.284805","706650.931584","707417.696504","708185.314417","708952.309049","709702.942224","708961.714854","Mapping"
"Blocked","m150","ball","4","m150greet.wav","space","377.294177655","153","703598.393194","710470.234893","696677.30976","697427.151157","698194.629945","698961.963424","699712.049373","700479.517649","704365.794072","705132.893512","705900.284805","706650.931584","707417.696504","708185.314417","708952.309049","709702.942224","709712.345865","Mapping"
"Blocked","m150","ball","4","m150ball.wav","None","727.890191134","153","703598.393194","710470.234893","711237.185005","697427.151157","698194.629945","698961.963424","699712.049373","700479.517649","704365.794072","705132.893512","705900.284805","706650.931584","707417.696504","708185.314417","708952.309049","709702.942224","710479.314835","Mapping"
"Blocked","m150","ball","4","m150priest.wav","space","587.508950382","153","703598.393194","710470.234893","711237.185005","712004.749432","698194.629945","698961.963424","699712.049373","700479.517649","704365.794072","705132.893512","705900.284805","706650.931584","707417.696504","708185.314417","708952.309049","709702.942224","711246.071717","Mapping"
"Blocked","m150","ball","4","m150greet.wav","None","721.466307528","153","703598.393194","710470.234893","711237.185005","712004.749432","712755.126307","698961.963424","699712.049373","700479.517649","704365.794072","705132.893512","705900.284805","706650.931584","707417.696504","708185.314417","708952.309049","709702.942224","712014.737708","Mapping"
"Blocked","m150","ball","4","m150ball.wav","None","734.729286749","153","703598.393194","710470.234893","711237.185005","712004.749432","712755.126307","713522.56243","699712.049373","700479.517649","704365.794072","705132.893512","705900.284805","706650.931584","707417.696504","708185.314417","708952.309049","709702.942224","712764.189864","Mapping"
"Blocked","m150","ball","4","m150park.wav","space","357.641632669","153","703598.393194","710470.234893","711237.185005","712004.749432","712755.126307","713522.56243","714289.659396","700479.517649","704365.794072","705132.893512","705900.284805","706650.931584","707417.696504","708185.314417","708952.309049","709702.942224","713531.836221","Mapping"
"Blocked","m150","ball","4","m150park.wav","None","723.527836613","153","703598.393194","710470.234893","711237.185005","712004.749432","712755.126307","713522.56243","714289.659396","715056.596832","704365.794072","705132.893512","705900.284805","706650.931584","707417.696504","708185.314417","708952.309049","709702.942224","714300.607638","Mapping"
"Blocked","m150","cave","8","m150bluff.wav","None","720.786757302","153","718158.994983","710470.234893","711237.185005","712004.749432","712755.126307","713522.56243","714289.659396","715056.596832","704365.794072","705132.893512","705900.284805","706650.931584","707417.696504","708185.314417","708952.309049","709702.942224","715066.084257","Mapping"
"Blocked","m150","cave","8","m150reek.wav","None","734.673945699","153","718158.994983","710470.234893","711237.185005","712004.749432","712755.126307","713522.56243","714289.659396","715056.596832","718926.346703","705132.893512","705900.284805","706650.931584","707417.696504","708185.314417","708952.309049","709702.942224","718168.428922","Mapping"
"Blocked","m150","cave","8","m150cave.wav","None","730.451335199","153","718158.994983","710470.234893","711237.185005","712004.749432","712755.126307","713522.56243","714289.659396","715056.596832","718926.346703","719693.302379","705900.284805","706650.931584","707417.696504","708185.314417","708952.309049","709702.942224","718935.642753","Mapping"
"Blocked","m150","cave","8","m150gnash.wav","space","371.224600356","153","718158.994983","710470.234893","711237.185005","712004.749432","712755.126307","713522.56243","714289.659396","715056.596832","718926.346703","719693.302379","720460.825379","706650.931584","707417.696504","708185.314417","708952.309049","709702.942224","719702.068826","Mapping"
"Blocked","m150","cave","8","m150cave.wav","None","720.677621197","153","718158.994983","710470.234893","711237.185005","712004.749432","712755.126307","713522.56243","714289.659396","715056.596832","718926.346703","719693.302379","720460.825379","721211.316955","707417.696504","708185.314417","708952.309049","709702.942224","720470.441417","Mapping"
"Blocked","m150","cave","8","m150cad.wav","space","660.757856444","153","718158.994983","710470.234893","711237.185005","712004.749432","712755.126307","713522.56243","714289.659396","715056.596832","718926.346703","719693.302379","720460.825379","721211.316955","721978.549645","708185.314417","708952.309049","709702.942224","721220.48872","Mapping"
"Blocked","m150","cave","8","m150park.wav","None","728.314368986","153","718158.994983","710470.234893","711237.185005","712004.749432","712755.126307","713522.56243","714289.659396","715056.596832","718926.346703","719693.302379","720460.825379","721211.316955","721978.549645","722745.647848","708952.309049","709702.942224","721987.984512","Mapping"
"Blocked","m150","cave","8","m150cave.wav","None","724.628164433","153","718158.994983","710470.234893","711237.185005","712004.749432","712755.126307","713522.56243","714289.659396","715056.596832","718926.346703","719693.302379","720460.825379","721211.316955","721978.549645","722745.647848","723496.776619","709702.942224","722754.686362","Mapping"
"Blocked","m150","cave","8","m150depth.wav","space","415.238930844","153","718158.994983","710470.234893","711237.185005","712004.749432","712755.126307","713522.56243","714289.659396","715056.596832","718926.346703","719693.302379","720460.825379","721211.316955","721978.549645","722745.647848","723496.776619","724263.503202","723505.920559","Mapping"
"Blocked","m150","cave","8","m150knife.wav","None","731.153454632","153","718158.994983","725030.733729","711237.185005","712004.749432","712755.126307","713522.56243","714289.659396","715056.596832","718926.346703","719693.302379","720460.825379","721211.316955","721978.549645","722745.647848","723496.776619","724263.503202","724273.307524","Mapping"
"Blocked","m150","cave","8","m150cave.wav","None","727.163647301","153","718158.994983","725030.733729","725797.75835","712004.749432","712755.126307","713522.56243","714289.659396","715056.596832","718926.346703","719693.302379","720460.825379","721211.316955","721978.549645","722745.647848","723496.776619","724263.503202","725040.142316","Mapping"
"Blocked","m150","cave","8","m150jaw.wav","space","474.467397202","153","718158.994983","725030.733729","725797.75835","726565.264653","712755.126307","713522.56243","714289.659396","715056.596832","718926.346703","719693.302379","720460.825379","721211.316955","721978.549645","722745.647848","723496.776619","724263.503202","725806.620019","Mapping"
"Blocked","m150","cave","8","m150bluff.wav","None","721.426425036","153","718158.994983","725030.733729","725797.75835","726565.264653","727315.606284","713522.56243","714289.659396","715056.596832","718926.346703","719693.302379","720460.825379","721211.316955","721978.549645","722745.647848","723496.776619","724263.503202","726574.650671","Mapping"
"Blocked","m150","cave","8","m150greet.wav","None","734.044789337","153","718158.994983","725030.733729","725797.75835","726565.264653","727315.606284","728083.049518","714289.659396","715056.596832","718926.346703","719693.302379","720460.825379","721211.316955","721978.549645","722745.647848","723496.776619","724263.503202","727324.855959","Mapping"
"Blocked","m150","cave","8","m150park.wav","None","729.198897257","153","718158.994983","725030.733729","725797.75835","726565.264653","727315.606284","728083.049518","728850.288082","715056.596832","718926.346703","719693.302379","720460.825379","721211.316955","721978.549645","722745.647848","723496.776619","724263.503202","728092.622891","Mapping"
"Blocked","m150","cave","8","m150lash.wav","None","725.120049901","153","718158.994983","725030.733729","725797.75835","726565.264653","727315.606284","728083.049518","728850.288082","729617.433278","718926.346703","719693.302379","720460.825379","721211.316955","721978.549645","722745.647848","723496.776619","724263.503202","728859.646894","Mapping"
"Blocked","m150","cave","10","m150ball.wav","None","721.040583681","153","732719.726622","725030.733729","725797.75835","726565.264653","727315.606284","728083.049518","728850.288082","729617.433278","718926.346703","719693.302379","720460.825379","721211.316955","721978.549645","722745.647848","723496.776619","724263.503202","729626.593913","Mapping"
"Blocked","m150","cave","10","m150priest.wav","None","734.41640893","153","732719.726622","725030.733729","725797.75835","726565.264653","727315.606284","728083.049518","728850.288082","729617.433278","733486.992393","719693.302379","720460.825379","721211.316955","721978.549645","722745.647848","723496.776619","724263.503202","732729.442831","Mapping"
"Blocked","m150","cave","10","m150cave.wav","None","730.290258769","153","732719.726622","725030.733729","725797.75835","726565.264653","727315.606284","728083.049518","728850.288082","729617.433278","733486.992393","734254.295574","720460.825379","721211.316955","721978.549645","722745.647848","723496.776619","724263.503202","733496.35646","Mapping"
"Blocked","m150","cave","10","m150depth.wav","space","545.382397249","153","732719.726622","725030.733729","725797.75835","726565.264653","727315.606284","728083.049518","728850.288082","729617.433278","733486.992393","734254.295574","735021.228991","721211.316955","721978.549645","722745.647848","723496.776619","724263.503202","734263.397776","Mapping"
"Blocked","m150","cave","10","m150cave.wav","None","720.939795021","153","732719.726622","725030.733729","725797.75835","726565.264653","727315.606284","728083.049518","728850.288082","729617.433278","733486.992393","734254.295574","735021.228991","735771.950897","721978.549645","722745.647848","723496.776619","724263.503202","735030.817513","Mapping"
"Blocked","m150","cave","10","m150reek.wav","space","691.36142591","153","732719.726622","725030.733729","725797.75835","726565.264653","727315.606284","728083.049518","728850.288082","729617.433278","733486.992393","734254.295574","735021.228991","735771.950897","736539.128865","722745.647848","723496.776619","724263.503202","735781.344025","Mapping"
"Blocked","m150","cave","10","m150cave.wav","None","728.369091637","153","732719.726622","725030.733729","725797.75835","726565.264653","727315.606284","728083.049518","728850.288082","729617.433278","733486.992393","734254.295574","735021.228991","735771.950897","736539.128865","737306.060117","723496.776619","724263.503202","736548.802408","Mapping"
"Blocked","m150","cave","10","m150cad.wav","space","661.683194339","153","732719.726622","725030.733729","725797.75835","726565.264653","727315.606284","728083.049518","728850.288082","729617.433278","733486.992393","734254.295574","735021.228991","735771.950897","736539.128865","737306.060117","738056.395873","724263.503202","737314.981147","Mapping"
"Blocked","m150","cave","10","m150cling.wav","None","737.040623557","153","732719.726622","725030.733729","725797.75835","726565.264653","727315.606284","728083.049518","728850.288082","729617.433278","733486.992393","734254.295574","735021.228991","735771.950897","736539.128865","737306.060117","738056.395873","738823.854874","738065.332979","Mapping"
"Blocked","m150","cave","10","m150tile.wav","None","732.326127123","153","732719.726622","739591.518854","725797.75835","726565.264653","727315.606284","728083.049518","728850.288082","729617.433278","733486.992393","734254.295574","735021.228991","735771.950897","736539.128865","737306.060117","738056.395873","738823.854874","738832.944401","Mapping"
"Blocked","m150","cave","10","m150cad.wav","None","727.089756168","153","732719.726622","739591.518854","740358.555532","726565.264653","727315.606284","728083.049518","728850.288082","729617.433278","733486.992393","734254.295574","735021.228991","735771.950897","736539.128865","737306.060117","738056.395873","738823.854874","739601.110777","Mapping"
"Blocked","m150","cave","10","m150greet.wav","None","723.420246504","153","732719.726622","739591.518854","740358.555532","741108.799156","727315.606284","728083.049518","728850.288082","729617.433278","733486.992393","734254.295574","735021.228991","735771.950897","736539.128865","737306.060117","738056.395873","738823.854874","740367.771199","Mapping"
"Blocked","m150","cave","10","m150cave.wav","None","735.793132335","153","732719.726622","739591.518854","740358.555532","741108.799156","741876.454169","728083.049518","728850.288082","729617.433278","733486.992393","734254.295574","735021.228991","735771.950897","736539.128865","737306.060117","738056.395873","738823.854874","741118.408702","Mapping"
"Blocked","m150","cave","10","m150depth.wav","space","594.398131128","153","732719.726622","739591.518854","740358.555532","741108.799156","741876.454169","742643.65347","728850.288082","729617.433278","733486.992393","734254.295574","735021.228991","735771.950897","736539.128865","737306.060117","738056.395873","738823.854874","741886.078246","Mapping"
"Blocked","m150","cave","10","m150bluff.wav","None","731.300927699","153","732719.726622","739591.518854","740358.555532","741108.799156","741876.454169","742643.65347","743410.794029","729617.433278","733486.992393","734254.295574","735021.228991","735771.950897","736539.128865","737306.060117","738056.395873","738823.854874","742648.141965","Mapping"
"Blocked","m150","cave","10","m150ball.wav","None","722.317754757","153","732719.726622","739591.518854","740358.555532","741108.799156","741876.454169","742643.65347","743410.794029","744161.075371","733486.992393","734254.295574","735021.228991","735771.950897","736539.128865","737306.060117","738056.395873","738823.854874","743420.119759","Mapping"
"Blocked","m150","done","22","m150greet.wav","None","735.436043702","153","747280.209381","739591.518854","740358.555532","741108.799156","741876.454169","742643.65347","743410.794029","744161.075371","733486.992393","734254.295574","735021.228991","735771.950897","736539.128865","737306.060117","738056.395873","738823.854874","744170.480558","Mapping"
"Blocked","m150","done","22","m150done.wav","None","734.82481949","153","747280.209381","739591.518854","740358.555532","741108.799156","741876.454169","742643.65347","743410.794029","744161.075371","748047.553372","734254.295574","735021.228991","735771.950897","736539.128865","737306.060117","738056.395873","738823.854874","747289.602818","Mapping"
"Blocked","m150","done","22","m150gnash.wav","space","399.314328562","153","747280.209381","739591.518854","740358.555532","741108.799156","741876.454169","742643.65347","743410.794029","744161.075371","748047.553372","748814.828109","735021.228991","735771.950897","736539.128865","737306.060117","738056.395873","738823.854874","748056.951138","Mapping"
"Blocked","m150","done","22","m150done.wav","None","725.581327919","153","747280.209381","739591.518854","740358.555532","741108.799156","741876.454169","742643.65347","743410.794029","744161.075371","748047.553372","748814.828109","749581.530268","735771.950897","736539.128865","737306.060117","738056.395873","738823.854874","748824.07562","Mapping"
"Blocked","m150","done","22","m150jolt.wav","space","393.717158586","153","747280.209381","739591.518854","740358.555532","741108.799156","741876.454169","742643.65347","743410.794029","744161.075371","748047.553372","748814.828109","749581.530268","750332.203635","736539.128865","737306.060117","738056.395873","738823.854874","749590.486234","Mapping"
"Blocked","m150","done","22","m150jaw.wav","None","734.349319711","153","747280.209381","739591.518854","740358.555532","741108.799156","741876.454169","742643.65347","743410.794029","744161.075371","748047.553372","748814.828109","749581.530268","750332.203635","751099.769299","737306.060117","738056.395873","738823.854874","750340.938546","Mapping"
"Blocked","m150","done","22","m150done.wav","None","728.858503979","153","747280.209381","739591.518854","740358.555532","741108.799156","741876.454169","742643.65347","743410.794029","744161.075371","748047.553372","748814.828109","749581.530268","750332.203635","751099.769299","751867.016521","738056.395873","738823.854874","751109.27311","Mapping"
"Blocked","m150","done","22","m150tile.wav","space","579.821189865","153","747280.209381","739591.518854","740358.555532","741108.799156","741876.454169","742643.65347","743410.794029","744161.075371","748047.553372","748814.828109","749581.530268","750332.203635","751099.769299","751867.016521","752633.943754","738823.854874","751876.311025","Mapping"
"Blocked","m150","done","22","m150priest.wav","None","726.361666806","153","747280.209381","739591.518854","740358.555532","741108.799156","741876.454169","742643.65347","743410.794029","744161.075371","748047.553372","748814.828109","749581.530268","750332.203635","751099.769299","751867.016521","752633.943754","753384.666588","752637.427454","Mapping"
"Blocked","m150","done","22","m150cling.wav","None","732.637768146","153","747280.209381","754152.009342","740358.555532","741108.799156","741876.454169","742643.65347","743410.794029","744161.075371","748047.553372","748814.828109","749581.530268","750332.203635","751099.769299","751867.016521","752633.943754","753384.666588","753394.05075","Mapping"
"Blocked","m150","done","22","m150tile.wav","None","728.07878349","153","747280.209381","754152.009342","754919.22812","741108.799156","741876.454169","742643.65347","743410.794029","744161.075371","748047.553372","748814.828109","749581.530268","750332.203635","751099.769299","751867.016521","752633.943754","753384.666588","754161.653205","Mapping"
"Blocked","m150","done","22","m150done.wav","None","723.599563818","153","747280.209381","754152.009342","754919.22812","755686.452154","741876.454169","742643.65347","743410.794029","744161.075371","748047.553372","748814.828109","749581.530268","750332.203635","751099.769299","751867.016521","752633.943754","753384.666588","754929.217942","Mapping"
"Blocked","m150","done","22","m150lash.wav","space","544.293508865","153","747280.209381","754152.009342","754919.22812","755686.452154","756437.015148","742643.65347","743410.794029","744161.075371","748047.553372","748814.828109","749581.530268","750332.203635","751099.769299","751867.016521","752633.943754","753384.666588","755695.699356","Mapping"
"Blocked","m150","done","22","m150park.wav","None","732.02932626","153","747280.209381","754152.009342","754919.22812","755686.452154","756437.015148","757204.203937","743410.794029","744161.075371","748047.553372","748814.828109","749581.530268","750332.203635","751099.769299","751867.016521","752633.943754","753384.666588","756446.074067","Mapping"
"Blocked","m150","done","22","m150knife.wav","None","727.35285759","153","747280.209381","754152.009342","754919.22812","755686.452154","756437.015148","757204.203937","757971.319144","744161.075371","748047.553372","748814.828109","749581.530268","750332.203635","751099.769299","751867.016521","752633.943754","753384.666588","757213.853366","Mapping"
"Blocked","m150","done","22","m150park.wav","None","723.414681386","153","747280.209381","754152.009342","754919.22812","755686.452154","756437.015148","757204.203937","757971.319144","758721.994366","748047.553372","748814.828109","749581.530268","750332.203635","751099.769299","751867.016521","752633.943754","753384.666588","757981.063178","Mapping"
"Blocked","m150","cave","11","m150gnash.wav","None","735.962556209","153","761840.769122","754152.009342","754919.22812","755686.452154","756437.015148","757204.203937","757971.319144","758721.994366","748047.553372","748814.828109","749581.530268","750332.203635","751099.769299","751867.016521","752633.943754","753384.666588","758731.547334","Mapping"
"Blocked","m150","cave","11","m150lash.wav","None","735.609486699","153","761840.769122","754152.009342","754919.22812","755686.452154","756437.015148","757204.203937","757971.319144","758721.994366","762607.997175","748814.828109","749581.530268","750332.203635","751099.769299","751867.016521","752633.943754","753384.666588","761850.118659","Mapping"
"Blocked","m150","cave","11","m150park.wav","None","731.284542009","153","761840.769122","754152.009342","754919.22812","755686.452154","756437.015148","757204.203937","757971.319144","758721.994366","762607.997175","763374.973566","749581.530268","750332.203635","751099.769299","751867.016521","752633.943754","753384.666588","762617.452447","Mapping"
"Blocked","m150","cave","11","m150cave.wav","None","727.786620148","153","761840.769122","754152.009342","754919.22812","755686.452154","756437.015148","757204.203937","757971.319144","758721.994366","762607.997175","763374.973566","764142.070223","750332.203635","751099.769299","751867.016521","752633.943754","753384.666588","763384.051962","Mapping"
"Blocked","m150","cave","11","m150jolt.wav","space","488.392303698","153","761840.769122","754152.009342","754919.22812","755686.452154","756437.015148","757204.203937","757971.319144","758721.994366","762607.997175","763374.973566","764142.070223","764893.048429","751099.769299","751867.016521","752633.943754","753384.666588","764151.275378","Mapping"
"Blocked","m150","cave","11","m150cave.wav","None","734.676418826","153","761840.769122","754152.009342","754919.22812","755686.452154","756437.015148","757204.203937","757971.319144","758721.994366","762607.997175","763374.973566","764142.070223","764893.048429","765660.131174","751867.016521","752633.943754","753384.666588","764902.538328","Mapping"
"Blocked","m150","cave","11","m150park.wav","space","633.93973466","153","761840.769122","754152.009342","754919.22812","755686.452154","756437.015148","757204.203937","757971.319144","758721.994366","762607.997175","763374.973566","764142.070223","764893.048429","765660.131174","766427.640569","752633.943754","753384.666588","765669.664355","Mapping"
"Blocked","m150","cave","11","m150cave.wav","None","725.359654985","153","761840.769122","754152.009342","754919.22812","755686.452154","756437.015148","757204.203937","757971.319144","758721.994366","762607.997175","763374.973566","764142.070223","764893.048429","765660.131174","766427.640569","767194.746192","753384.666588","766437.237439","Mapping"
"Blocked","m150","cave","11","m150park.wav","space","578.830307815","153","761840.769122","754152.009342","754919.22812","755686.452154","756437.015148","757204.203937","757971.319144","758721.994366","762607.997175","763374.973566","764142.070223","764893.048429","765660.131174","766427.640569","767194.746192","767945.154602","767204.729212","Mapping"
"Blocked","m150","cave","11","m150cave.wav","None","733.488288242","153","761840.769122","768712.568774","754919.22812","755686.452154","756437.015148","757204.203937","757971.319144","758721.994366","762607.997175","763374.973566","764142.070223","764893.048429","765660.131174","766427.640569","767194.746192","767945.154602","767954.629042","Mapping"
"Blocked","m150","cave","11","m150dime.wav","space","469.378499314","153","761840.769122","768712.568774","769479.478385","755686.452154","756437.015148","757204.203937","757971.319144","758721.994366","762607.997175","763374.973566","764142.070223","764893.048429","765660.131174","766427.640569","767194.746192","767945.154602","768722.190996","Mapping"
"Blocked","m150","cave","11","m150romp.wav","None","724.938877858","153","761840.769122","768712.568774","769479.478385","770247.01746","756437.015148","757204.203937","757971.319144","758721.994366","762607.997175","763374.973566","764142.070223","764893.048429","765660.131174","766427.640569","767194.746192","767945.154602","769488.570693","Mapping"
"Blocked","m150","cave","11","m150romp.wav","None","719.681792427","153","761840.769122","768712.568774","769479.478385","770247.01746","770997.208526","757204.203937","757971.319144","758721.994366","762607.997175","763374.973566","764142.070223","764893.048429","765660.131174","766427.640569","767194.746192","767945.154602","770256.906494","Mapping"
"Blocked","m150","cave","11","m150dime.wav","None","733.613810036","153","761840.769122","768712.568774","769479.478385","770247.01746","770997.208526","771764.295908","757971.319144","758721.994366","762607.997175","763374.973566","764142.070223","764893.048429","765660.131174","766427.640569","767194.746192","767945.154602","771006.105132","Mapping"
"Blocked","m150","cave","11","m150dime.wav","None","729.505592026","153","761840.769122","768712.568774","769479.478385","770247.01746","770997.208526","771764.295908","772531.988021","758721.994366","762607.997175","763374.973566","764142.070223","764893.048429","765660.131174","766427.640569","767194.746192","767945.154602","771773.445413","Mapping"
"Blocked","m150","cave","11","m150ball.wav","None","724.793878384","153","761840.769122","768712.568774","769479.478385","770247.01746","770997.208526","771764.295908","772531.988021","773299.26616","762607.997175","763374.973566","764142.070223","764893.048429","765660.131174","766427.640569","767194.746192","767945.154602","772541.241716","Mapping"
"Blocked","m150","cave","12","m150cad.wav","None","720.238603186","153","776401.300421","768712.568774","769479.478385","770247.01746","770997.208526","771764.295908","772531.988021","773299.26616","762607.997175","763374.973566","764142.070223","764893.048429","765660.131174","766427.640569","767194.746192","767945.154602","773308.887454","Mapping"
"Blocked","m150","cave","12","m150depth.wav","None","735.201385338","153","776401.300421","768712.568774","769479.478385","770247.01746","770997.208526","771764.295908","772531.988021","773299.26616","777168.551661","763374.973566","764142.070223","764893.048429","765660.131174","766427.640569","767194.746192","767945.154602","776411.040126","Mapping"
"Blocked","m150","cave","12","m150cave.wav","None","731.586598326","153","776401.300421","768712.568774","769479.478385","770247.01746","770997.208526","771764.295908","772531.988021","773299.26616","777168.551661","777935.51754","764142.070223","764893.048429","765660.131174","766427.640569","767194.746192","767945.154602","777177.854204","Mapping"
"Blocked","m150","cave","12","m150depth.wav","space","422.581041697","153","776401.300421","768712.568774","769479.478385","770247.01746","770997.208526","771764.295908","772531.988021","773299.26616","777168.551661","777935.51754","778703.199451","764893.048429","765660.131174","766427.640569","767194.746192","767945.154602","777944.614796","Mapping"
"Blocked","m150","cave","12","m150cave.wav","None","725.557521917","153","776401.300421","768712.568774","769479.478385","770247.01746","770997.208526","771764.295908","772531.988021","773299.26616","777168.551661","777935.51754","778703.199451","779470.400916","765660.131174","766427.640569","767194.746192","767945.154602","778712.378018","Mapping"
"Blocked","m150","cave","12","m150cling.wav","space","582.714070566","153","776401.300421","768712.568774","769479.478385","770247.01746","770997.208526","771764.295908","772531.988021","773299.26616","777168.551661","777935.51754","778703.199451","779470.400916","780220.740073","766427.640569","767194.746192","767945.154602","779480.409288","Mapping"
"Blocked","m150","cave","12","m150priest.wav","None","734.198136721","153","776401.300421","768712.568774","769479.478385","770247.01746","770997.208526","771764.295908","772531.988021","773299.26616","777168.551661","777935.51754","778703.199451","779470.400916","780220.740073","780988.251014","767194.746192","767945.154602","780229.792808","Mapping"
"Blocked","m150","cave","12","m150greet.wav","None","729.301541112","153","776401.300421","768712.568774","769479.478385","770247.01746","770997.208526","771764.295908","772531.988021","773299.26616","777168.551661","777935.51754","778703.199451","779470.400916","780220.740073","780988.251014","781755.350763","767945.154602","780997.799345","Mapping"
"Blocked","m150","cave","12","m150cave.wav","None","725.477756932","153","776401.300421","768712.568774","769479.478385","770247.01746","770997.208526","771764.295908","772531.988021","773299.26616","777168.551661","777935.51754","778703.199451","779470.400916","780220.740073","780988.251014","781755.350763","782522.516983","781764.731525","Mapping"
"Blocked","m150","cave","12","m150cling.wav","space","466.956171207","153","776401.300421","783273.087397","769479.478385","770247.01746","770997.208526","771764.295908","772531.988021","773299.26616","777168.551661","777935.51754","778703.199451","779470.400916","780220.740073","780988.251014","781755.350763","782522.516983","782532.063768","Mapping"
"Blocked","m150","cave","12","m150knife.wav","None","733.508075122","153","776401.300421","783273.087397","784039.965781","770247.01746","770997.208526","771764.295908","772531.988021","773299.26616","777168.551661","777935.51754","778703.199451","779470.400916","780220.740073","780988.251014","781755.350763","782522.516983","783282.399524","Mapping"
"Blocked","m150","cave","12","m150knife.wav","None","729.900398757","153","776401.300421","783273.087397","784039.965781","784807.313173","770997.208526","771764.295908","772531.988021","773299.26616","777168.551661","777935.51754","778703.199451","779470.400916","780220.740073","780988.251014","781755.350763","782522.516983","784049.168154","Mapping"
"Blocked","m150","cave","12","m150done.wav","None","725.733128842","153","776401.300421","783273.087397","784039.965781","784807.313173","785574.832771","771764.295908","772531.988021","773299.26616","777168.551661","777935.51754","778703.199451","779470.400916","780220.740073","780988.251014","781755.350763","782522.516983","784816.505962","Mapping"
"Blocked","m150","cave","12","m150cave.wav","None","721.17630858","153","776401.300421","783273.087397","784039.965781","784807.313173","785574.832771","786325.408441","772531.988021","773299.26616","777168.551661","777935.51754","778703.199451","779470.400916","780220.740073","780988.251014","781755.350763","782522.516983","785584.276604","Mapping"
"Blocked","m150","cave","12","m150done.wav","space","488.215769175","153","776401.300421","783273.087397","784039.965781","784807.313173","785574.832771","786325.408441","787092.418531","773299.26616","777168.551661","777935.51754","778703.199451","779470.400916","780220.740073","780988.251014","781755.350763","782522.516983","786334.673884","Mapping"
"Blocked","m150","cave","12","m150gnash.wav","None","729.20291638","153","776401.300421","783273.087397","784039.965781","784807.313173","785574.832771","786325.408441","787092.418531","787859.870422","777168.551661","777935.51754","778703.199451","779470.400916","780220.740073","780988.251014","781755.350763","782522.516983","787101.785999","Mapping"
"Blocked","m150","tile","14","m150depth.wav","None","725.253300741","153","790961.76061","783273.087397","784039.965781","784807.313173","785574.832771","786325.408441","787092.418531","787859.870422","777168.551661","777935.51754","778703.199451","779470.400916","780220.740073","780988.251014","781755.350763","782522.516983","787869.106803","Mapping"
"Blocked","m150","tile","14","m150cling.wav","None","735.918963328","153","790961.76061","783273.087397","784039.965781","784807.313173","785574.832771","786325.408441","787092.418531","787859.870422","791729.047714","777935.51754","778703.199451","779470.400916","780220.740073","780988.251014","781755.350763","782522.516983","790970.991117","Mapping"
"Blocked","m150","tile","14","m150park.wav","None","731.955435593","153","790961.76061","783273.087397","784039.965781","784807.313173","785574.832771","786325.408441","787092.418531","787859.870422","791729.047714","792496.605031","778703.199451","779470.400916","780220.740073","780988.251014","781755.350763","782522.516983","791738.302645","Mapping"
"Blocked","m150","tile","14","m150tile.wav","None","727.445608471","153","790961.76061","783273.087397","784039.965781","784807.313173","785574.832771","786325.408441","787092.418531","787859.870422","791729.047714","792496.605031","793263.583277","779470.400916","780220.740073","780988.251014","781755.350763","782522.516983","792506.216432","Mapping"
"Blocked","m150","tile","14","m150done.wav","space","445.534569211","153","790961.76061","783273.087397","784039.965781","784807.313173","785574.832771","786325.408441","787092.418531","787859.870422","791729.047714","792496.605031","793263.583277","794013.859982","780220.740073","780988.251014","781755.350763","782522.516983","793273.125734","Mapping"
"Blocked","m150","tile","14","m150jolt.wav","None","736.033665016","153","790961.76061","783273.087397","784039.965781","784807.313173","785574.832771","786325.408441","787092.418531","787859.870422","791729.047714","792496.605031","793263.583277","794013.859982","794781.511285","780988.251014","781755.350763","782522.516983","794023.395637","Mapping"
"Blocked","m150","tile","14","m150lash.wav","None","731.645958498","153","790961.76061","783273.087397","784039.965781","784807.313173","785574.832771","786325.408441","787092.418531","787859.870422","791729.047714","792496.605031","793263.583277","794013.859982","794781.511285","795548.666375","781755.350763","782522.516983","794791.145256","Mapping"
"Blocked","m150","tile","14","m150cling.wav","None","727.727569174","153","790961.76061","783273.087397","784039.965781","784807.313173","785574.832771","786325.408441","787092.418531","787859.870422","791729.047714","792496.605031","793263.583277","794013.859982","794781.511285","795548.666375","796315.903394","782522.516983","795558.244695","Mapping"
"Blocked","m150","tile","14","m150cad.wav","None","724.217898678","153","790961.76061","783273.087397","784039.965781","784807.313173","785574.832771","786325.408441","787092.418531","787859.870422","791729.047714","792496.605031","793263.583277","794013.859982","794781.511285","795548.666375","796315.903394","797083.086309","796325.099892","Mapping"
"Blocked","m150","tile","14","m150tile.wav","None","720.184808131","153","790961.76061","797833.289122","784039.965781","784807.313173","785574.832771","786325.408441","787092.418531","787859.870422","791729.047714","792496.605031","793263.583277","794013.859982","794781.511285","795548.666375","796315.903394","797083.086309","797092.589501","Mapping"
"Blocked","m150","tile","14","m150depth.wav","space","580.470441841","153","790961.76061","797833.289122","798600.813049","784807.313173","785574.832771","786325.408441","787092.418531","787859.870422","791729.047714","792496.605031","793263.583277","794013.859982","794781.511285","795548.666375","796315.903394","797083.086309","797842.020633","Mapping"
"Blocked","m150","tile","14","m150depth.wav","None","728.324262425","153","790961.76061","797833.289122","798600.813049","799368.021625","785574.832771","786325.408441","787092.418531","787859.870422","791729.047714","792496.605031","793263.583277","794013.859982","794781.511285","795548.666375","796315.903394","797083.086309","798610.148363","Mapping"
"Blocked","m150","tile","14","m150tile.wav","None","724.347749259","153","790961.76061","797833.289122","798600.813049","799368.021625","800135.069742","786325.408441","787092.418531","787859.870422","791729.047714","792496.605031","793263.583277","794013.859982","794781.511285","795548.666375","796315.903394","797083.086309","799377.57552","Mapping"
"Blocked","m150","tile","14","m150reek.wav","None","721.131788101","153","790961.76061","797833.289122","798600.813049","799368.021625","800135.069742","800885.528856","787092.418531","787859.870422","791729.047714","792496.605031","793263.583277","794013.859982","794781.511285","795548.666375","796315.903394","797083.086309","800144.299321","Mapping"
"Blocked","m150","tile","14","m150tile.wav","None","734.176185913","153","790961.76061","797833.289122","798600.813049","799368.021625","800135.069742","800885.528856","801652.682399","787859.870422","791729.047714","792496.605031","793263.583277","794013.859982","794781.511285","795548.666375","796315.903394","797083.086309","800894.679288","Mapping"
"Blocked","m150","tile","14","m150ball.wav","space","624.44365304","153","790961.76061","797833.289122","798600.813049","799368.021625","800135.069742","800885.528856","801652.682399","802420.415323","791729.047714","792496.605031","793263.583277","794013.859982","794781.511285","795548.666375","796315.903394","797083.086309","801661.881989","Mapping"
"Blocked","m150","cave","7","m150lash.wav","None","724.914453458","153","805522.077965","797833.289122","798600.813049","799368.021625","800135.069742","800885.528856","801652.682399","802420.415323","791729.047714","792496.605031","793263.583277","794013.859982","794781.511285","795548.666375","796315.903394","797083.086309","802430.01343","Mapping"
"Blocked","m150","cave","7","m150cad.wav","None","736.407448538","153","805522.077965","797833.289122","798600.813049","799368.021625","800135.069742","800885.528856","801652.682399","802420.415323","806289.745654","792496.605031","793263.583277","794013.859982","794781.511285","795548.666375","796315.903394","797083.086309","805530.924176","Mapping"
"Blocked","m150","cave","7","m150cave.wav","None","731.649668887","153","805522.077965","797833.289122","798600.813049","799368.021625","800135.069742","800885.528856","801652.682399","802420.415323","806289.745654","807057.071095","793263.583277","794013.859982","794781.511285","795548.666375","796315.903394","797083.086309","806299.008623","Mapping"
"Blocked","m150","cave","7","m150greet.wav","space","475.355944596","153","805522.077965","797833.289122","798600.813049","799368.021625","800135.069742","800885.528856","801652.682399","802420.415323","806289.745654","807057.071095","807823.927219","794013.859982","794781.511285","795548.666375","796315.903394","797083.086309","807066.783594","Mapping"
"Blocked","m150","cave","7","m150cave.wav","None","723.982931115","153","805522.077965","797833.289122","798600.813049","799368.021625","800135.069742","800885.528856","801652.682399","802420.415323","806289.745654","807057.071095","807823.927219","808574.573998","794781.511285","795548.666375","796315.903394","797083.086309","807832.689337","Mapping"
"Blocked","m150","cave","7","m150lash.wav","None","736.214218661","153","805522.077965","797833.289122","798600.813049","799368.021625","800135.069742","800885.528856","801652.682399","802420.415323","806289.745654","807057.071095","807823.927219","808574.573998","809341.649322","795548.666375","796315.903394","797083.086309","808583.772351","Mapping"
"Blocked","m150","cave","7","m150dime.wav","space","215.629842132","153","805522.077965","797833.289122","798600.813049","799368.021625","800135.069742","800885.528856","801652.682399","802420.415323","806289.745654","807057.071095","807823.927219","808574.573998","809341.649322","810108.906437","796315.903394","797083.086309","809350.398146","Mapping"
"Blocked","m150","cave","7","m150cad.wav","None","727.970574982","153","805522.077965","797833.289122","798600.813049","799368.021625","800135.069742","800885.528856","801652.682399","802420.415323","806289.745654","807057.071095","807823.927219","808574.573998","809341.649322","810108.906437","810876.51353","797083.086309","810117.853128","Mapping"
"Blocked","m150","cave","7","m150tile.wav","space","448.184444569","153","805522.077965","797833.289122","798600.813049","799368.021625","800135.069742","800885.528856","801652.682399","802420.415323","806289.745654","807057.071095","807823.927219","808574.573998","809341.649322","810108.906437","810876.51353","811626.82919","810885.810198","Mapping"
"Blocked","m150","cave","7","m150cave.wav","None","735.164594837","153","805522.077965","812394.198223","798600.813049","799368.021625","800135.069742","800885.528856","801652.682399","802420.415323","806289.745654","807057.071095","807823.927219","808574.573998","809341.649322","810108.906437","810876.51353","811626.82919","811636.562094","Mapping"
"Blocked","m150","cave","7","m150jolt.wav","space","690.432995558","153","805522.077965","812394.198223","813161.249124","799368.021625","800135.069742","800885.528856","801652.682399","802420.415323","806289.745654","807057.071095","807823.927219","808574.573998","809341.649322","810108.906437","810876.51353","811626.82919","812403.505094","Mapping"
"Blocked","m150","cave","7","m150dime.wav","None","726.847060025","153","805522.077965","812394.198223","813161.249124","813928.502838","800135.069742","800885.528856","801652.682399","802420.415323","806289.745654","807057.071095","807823.927219","808574.573998","809341.649322","810108.906437","810876.51353","811626.82919","813170.479321","Mapping"
"Blocked","m150","cave","7","m150cave.wav","None","723.495992366","153","805522.077965","812394.198223","813161.249124","813928.502838","814678.823753","800885.528856","801652.682399","802420.415323","806289.745654","807057.071095","807823.927219","808574.573998","809341.649322","810108.906437","810876.51353","811626.82919","813937.309476","Mapping"
"Blocked","m150","cave","7","m150lash.wav","space","717.787213624","153","805522.077965","812394.198223","813161.249124","813928.502838","814678.823753","815446.443831","801652.682399","802420.415323","806289.745654","807057.071095","807823.927219","808574.573998","809341.649322","810108.906437","810876.51353","811626.82919","814688.0691","Mapping"
"Blocked","m150","cave","7","m150romp.wav","None","730.892517138","153","805522.077965","812394.198223","813161.249124","813928.502838","814678.823753","815446.443831","816213.183708","802420.415323","806289.745654","807057.071095","807823.927219","808574.573998","809341.649322","810108.906437","810876.51353","811626.82919","815455.512334","Mapping"
"Blocked","m150","cave","7","m150jolt.wav","None","727.224862669","153","805522.077965","812394.198223","813161.249124","813928.502838","814678.823753","815446.443831","816213.183708","816981.004436","806289.745654","807057.071095","807823.927219","808574.573998","809341.649322","810108.906437","810876.51353","811626.82919","816222.592605","Mapping"
"Blocked","m150","ball","5","m150bluff.wav","None","722.656293306","153","820082.890915","812394.198223","813161.249124","813928.502838","814678.823753","815446.443831","816213.183708","816981.004436","806289.745654","807057.071095","807823.927219","808574.573998","809341.649322","810108.906437","810876.51353","811626.82919","816990.567916","Mapping"
"Blocked","m150","ball","5","m150cad.wav","None","735.121929087","153","820082.890915","812394.198223","813161.249124","813928.502838","814678.823753","815446.443831","816213.183708","816981.004436","820850.070429","807057.071095","807823.927219","808574.573998","809341.649322","810108.906437","810876.51353","811626.82919","820092.752123","Mapping"
"Blocked","m150","ball","5","m150ball.wav","None","732.121767476","153","820082.890915","812394.198223","813161.249124","813928.502838","814678.823753","815446.443831","816213.183708","816981.004436","820850.070429","821617.940313","807823.927219","808574.573998","809341.649322","810108.906437","810876.51353","811626.82919","820859.219624","Mapping"
"Blocked","m150","ball","5","m150jaw.wav","space","682.304980233","153","820082.890915","812394.198223","813161.249124","813928.502838","814678.823753","815446.443831","816213.183708","816981.004436","820850.070429","821617.940313","822384.902792","808574.573998","809341.649322","810108.906437","810876.51353","811626.82919","821627.308709","Mapping"
"Blocked","m150","ball","5","m150ball.wav","None","722.91568527","153","820082.890915","812394.198223","813161.249124","813928.502838","814678.823753","815446.443831","816213.183708","816981.004436","820850.070429","821617.940313","822384.902792","823135.094475","809341.649322","810108.906437","810876.51353","811626.82919","822394.237178","Mapping"
"Blocked","m150","ball","5","m150depth.wav","space","701.185225043","153","820082.890915","812394.198223","813161.249124","813928.502838","814678.823753","815446.443831","816213.183708","816981.004436","820850.070429","821617.940313","822384.902792","823135.094475","823902.498754","810108.906437","810876.51353","811626.82919","823144.368574","Mapping"
"Blocked","m150","ball","5","m150ball.wav","None","730.905502103","153","820082.890915","812394.198223","813161.249124","813928.502838","814678.823753","815446.443831","816213.183708","816981.004436","820850.070429","821617.940313","822384.902792","823135.094475","823902.498754","824669.578098","810876.51353","811626.82919","823912.08604","Mapping"
"Blocked","m150","ball","5","m150cling.wav","space","582.750861533","153","820082.890915","812394.198223","813161.249124","813928.502838","814678.823753","815446.443831","816213.183708","816981.004436","820850.070429","821617.940313","822384.902792","823135.094475","823902.498754","824669.578098","825437.071417","811626.82919","824678.734713","Mapping"
"Blocked","m150","ball","5","m150romp.wav","None","722.589513287","153","820082.890915","812394.198223","813161.249124","813928.502838","814678.823753","815446.443831","816213.183708","816981.004436","820850.070429","821617.940313","822384.902792","823135.094475","823902.498754","824669.578098","825437.071417","826187.264955","825446.371795","Mapping"
"Blocked","m150","ball","5","m150cling.wav","None","735.976468306","153","820082.890915","826954.837421","813161.249124","813928.502838","814678.823753","815446.443831","816213.183708","816981.004436","820850.070429","821617.940313","822384.902792","823135.094475","823902.498754","824669.578098","825437.071417","826187.264955","826196.7193","Mapping"
"Blocked","m150","ball","5","m150cling.wav","None","731.569903437","153","820082.890915","826954.837421","827721.998694","813928.502838","814678.823753","815446.443831","816213.183708","816981.004436","820850.070429","821617.940313","822384.902792","823135.094475","823902.498754","824669.578098","825437.071417","826187.264955","826964.618246","Mapping"
"Blocked","m150","ball","5","m150bluff.wav","None","728.353324346","153","820082.890915","826954.837421","827721.998694","828489.42245","814678.823753","815446.443831","816213.183708","816981.004436","820850.070429","821617.940313","822384.902792","823135.094475","823902.498754","824669.578098","825437.071417","826187.264955","827731.276503","Mapping"
"Blocked","m150","ball","5","m150dime.wav","None","724.549635779","153","820082.890915","826954.837421","827721.998694","828489.42245","829256.557135","815446.443831","816213.183708","816981.004436","820850.070429","821617.940313","822384.902792","823135.094475","823902.498754","824669.578098","825437.071417","826187.264955","828498.75189","Mapping"
"Blocked","m150","ball","5","m150ball.wav","None","720.69617128","153","820082.890915","826954.837421","827721.998694","828489.42245","829256.557135","830006.947304","816213.183708","816981.004436","820850.070429","821617.940313","822384.902792","823135.094475","823902.498754","824669.578098","825437.071417","826187.264955","829266.182757","Mapping"
"Blocked","m150","ball","5","m150depth.wav","space","540.358114988","153","820082.890915","826954.837421","827721.998694","828489.42245","829256.557135","830006.947304","830774.278929","816981.004436","820850.070429","821617.940313","822384.902792","823135.094475","823902.498754","824669.578098","825437.071417","826187.264955","830016.958768","Mapping"
"Blocked","m150","ball","5","m150knife.wav","None","729.671614245","153","820082.890915","826954.837421","827721.998694","828489.42245","829256.557135","830006.947304","830774.278929","831541.505436","820850.070429","821617.940313","822384.902792","823135.094475","823902.498754","824669.578098","825437.071417","826187.264955","830783.355779","Mapping"
"Blocked","m150","tile","16","m150park.wav","None","725.63635977","153","834643.707265","826954.837421","827721.998694","828489.42245","829256.557135","830006.947304","830774.278929","831541.505436","820850.070429","821617.940313","822384.902792","823135.094475","823902.498754","824669.578098","825437.071417","826187.264955","831550.897946","Mapping"
"Blocked","m150","tile","16","m150dime.wav","None","735.325052403","153","834643.707265","826954.837421","827721.998694","828489.42245","829256.557135","830006.947304","830774.278929","831541.505436","835411.007045","821617.940313","822384.902792","823135.094475","823902.498754","824669.578098","825437.071417","826187.264955","834652.817197","Mapping"
"Blocked","m150","tile","16","m150tile.wav","None","731.080800295","153","834643.707265","826954.837421","827721.998694","828489.42245","829256.557135","830006.947304","830774.278929","831541.505436","835411.007045","836177.906453","822384.902792","823135.094475","823902.498754","824669.578098","825437.071417","826187.264955","835420.660184","Mapping"
"Blocked","m150","tile","16","m150depth.wav","space","482.212044299","153","834643.707265","826954.837421","827721.998694","828489.42245","829256.557135","830006.947304","830774.278929","831541.505436","835411.007045","836177.906453","836945.384314","823135.094475","823902.498754","824669.578098","825437.071417","826187.264955","836186.869839","Mapping"
"Blocked","m150","tile","16","m150tile.wav","None","723.167038523","153","834643.707265","826954.837421","827721.998694","828489.42245","829256.557135","830006.947304","830774.278929","831541.505436","835411.007045","836177.906453","836945.384314","837696.021508","823902.498754","824669.578098","825437.071417","826187.264955","836954.714063","Mapping"
"Blocked","m150","tile","16","m150park.wav","space","563.921320252","153","834643.707265","826954.837421","827721.998694","828489.42245","829256.557135","830006.947304","830774.278929","831541.505436","835411.007045","836177.906453","836945.384314","837696.021508","838463.37261","824669.578098","825437.071417","826187.264955","837705.091557","Mapping"
"Blocked","m150","tile","16","m150jaw.wav","None","731.047100853","153","834643.707265","826954.837421","827721.998694","828489.42245","829256.557135","830006.947304","830774.278929","831541.505436","835411.007045","836177.906453","836945.384314","837696.021508","838463.37261","839230.315302","825437.071417","826187.264955","838472.827572","Mapping"
"Blocked","m150","tile","16","m150cave.wav","None","728.307257872","153","834643.707265","826954.837421","827721.998694","828489.42245","829256.557135","830006.947304","830774.278929","831541.505436","835411.007045","836177.906453","836945.384314","837696.021508","838463.37261","839230.315302","839997.255829","826187.264955","839239.783867","Mapping"
"Blocked","m150","tile","16","m150greet.wav","None","725.301840343","153","834643.707265","826954.837421","827721.998694","828489.42245","829256.557135","830006.947304","830774.278929","831541.505436","835411.007045","836177.906453","836945.384314","837696.021508","838463.37261","839230.315302","839997.255829","840764.57014","840006.481079","Mapping"
"Blocked","m150","tile","16","m150bluff.wav","None","721.947990358","153","834643.707265","841531.455017","827721.998694","828489.42245","829256.557135","830006.947304","830774.278929","831541.505436","835411.007045","836177.906453","836945.384314","837696.021508","838463.37261","839230.315302","839997.255829","840764.57014","840773.495189","Mapping"
"Blocked","m150","tile","16","m150tile.wav","None","721.549782902","153","834643.707265","841531.455017","842282.493202","828489.42245","829256.557135","830006.947304","830774.278929","831541.505436","835411.007045","836177.906453","836945.384314","837696.021508","838463.37261","839230.315302","839997.255829","840764.57014","841540.133041","Mapping"
"Blocked","m150","tile","16","m150reek.wav","space","520.791209303","153","834643.707265","841531.455017","842282.493202","843049.919122","829256.557135","830006.947304","830774.278929","831541.505436","835411.007045","836177.906453","836945.384314","837696.021508","838463.37261","839230.315302","839997.255829","840764.57014","842292.0573","Mapping"
"Blocked","m150","tile","16","m150ball.wav","None","728.285925463","153","834643.707265","841531.455017","842282.493202","843049.919122","843816.720524","830006.947304","830774.278929","831541.505436","835411.007045","836177.906453","836945.384314","837696.021508","838463.37261","839230.315302","839997.255829","840764.57014","843059.48353","Mapping"
"Blocked","m150","tile","16","m150tile.wav","None","726.447615307","153","834643.707265","841531.455017","842282.493202","843049.919122","843816.720524","844584.267638","830774.278929","831541.505436","835411.007045","836177.906453","836945.384314","837696.021508","838463.37261","839230.315302","839997.255829","840764.57014","843825.501501","Mapping"
"Blocked","m150","tile","16","m150ball.wav","space","635.262971744","153","834643.707265","841531.455017","842282.493202","843049.919122","843816.720524","844584.267638","845334.860621","831541.505436","835411.007045","836177.906453","836945.384314","837696.021508","838463.37261","839230.315302","839997.255829","840764.57014","844593.483304","Mapping"
"Blocked","m150","tile","16","m150jaw.wav","None","733.435111586","153","834643.707265","841531.455017","842282.493202","843049.919122","843816.720524","844584.267638","845334.860621","846101.895135","835411.007045","836177.906453","836945.384314","837696.021508","838463.37261","839230.315302","839997.255829","840764.57014","845344.346809","Mapping"
"Blocked","m150","tile","13","m150depth.wav","None","729.875356425","153","849220.654434","841531.455017","842282.493202","843049.919122","843816.720524","844584.267638","845334.860621","846101.895135","835411.007045","836177.906453","836945.384314","837696.021508","838463.37261","839230.315302","839997.255829","840764.57014","846111.570843","Mapping"
"Blocked","m150","tile","13","m150tile.wav","None","736.369420774","153","849220.654434","841531.455017","842282.493202","843049.919122","843816.720524","844584.267638","845334.860621","846101.895135","849987.827145","836177.906453","836945.384314","837696.021508","838463.37261","839230.315302","839997.255829","840764.57014","849229.846294","Mapping"
"Blocked","m150","tile","13","m150greet.wav","None","732.803791296","153","849220.654434","841531.455017","842282.493202","843049.919122","843816.720524","844584.267638","845334.860621","846101.895135","849987.827145","850755.590986","836945.384314","837696.021508","838463.37261","839230.315302","839997.255829","840764.57014","849997.131852","Mapping"
"Blocked","m150","tile","13","m150tile.wav","space","303.30636166","153","849220.654434","841531.455017","842282.493202","843049.919122","843816.720524","844584.267638","845334.860621","846101.895135","849987.827145","850755.590986","851522.657654","837696.021508","838463.37261","839230.315302","839997.255829","840764.57014","850765.241961","Mapping"
"Blocked","m150","tile","13","m150jolt.wav","space","560.305296443","153","849220.654434","841531.455017","842282.493202","843049.919122","843816.720524","844584.267638","845334.860621","846101.895135","849987.827145","850755.590986","851522.657654","852273.092343","838463.37261","839230.315302","839997.255829","840764.57014","851532.196401","Mapping"
"Blocked","m150","tile","13","m150tile.wav","None","736.348706298","153","849220.654434","841531.455017","842282.493202","843049.919122","843816.720524","844584.267638","845334.860621","846101.895135","849987.827145","850755.590986","851522.657654","852273.092343","853040.395215","839230.315302","839997.255829","840764.57014","852282.187744","Mapping"
"Blocked","m150","tile","13","m150ball.wav","space","458.227443043","153","849220.654434","841531.455017","842282.493202","843049.919122","843816.720524","844584.267638","845334.860621","846101.895135","849987.827145","850755.590986","851522.657654","852273.092343","853040.395215","853807.461883","839997.255829","840764.57014","853050.25766","Mapping"
"Blocked","m150","tile","13","m150ball.wav","None","728.33230067","153","849220.654434","841531.455017","842282.493202","843049.919122","843816.720524","844584.267638","845334.860621","846101.895135","849987.827145","850755.590986","851522.657654","852273.092343","853040.395215","853807.461883","854574.683752","840764.57014","853816.553882","Mapping"
"Blocked","m150","tile","13","m150tile.wav","None","724.60466763","153","849220.654434","841531.455017","842282.493202","843049.919122","843816.720524","844584.267638","845334.860621","846101.895135","849987.827145","850755.590986","851522.657654","852273.092343","853040.395215","853807.461883","854574.683752","855342.034545","854584.016594","Mapping"
"Blocked","m150","tile","13","m150park.wav","None","721.288227011","153","849220.654434","856092.708221","842282.493202","843049.919122","843816.720524","844584.267638","845334.860621","846101.895135","849987.827145","850755.590986","851522.657654","852273.092343","853040.395215","853807.461883","854574.683752","855342.034545","855351.188997","Mapping"
"Blocked","m150","tile","13","m150cave.wav","space","78.0125595629","153","849220.654434","856092.708221","856859.961935","843049.919122","843816.720524","844584.267638","845334.860621","846101.895135","849987.827145","850755.590986","851522.657654","852273.092343","853040.395215","853807.461883","854574.683752","855342.034545","856102.348684","Mapping"
"Blocked","m150","tile","13","m150cave.wav","None","722.438330296","153","849220.654434","856092.708221","856859.961935","857626.945128","843816.720524","844584.267638","845334.860621","846101.895135","849987.827145","850755.590986","851522.657654","852273.092343","853040.395215","853807.461883","854574.683752","855342.034545","856876.015461","Mapping"
"Blocked","m150","tile","13","m150priest.wav","None","726.309417747","153","849220.654434","856092.708221","856859.961935","857626.945128","858394.34075","844584.267638","845334.860621","846101.895135","849987.827145","850755.590986","851522.657654","852273.092343","853040.395215","853807.461883","854574.683752","855342.034545","857635.995699","Mapping"
"Blocked","m150","tile","13","m150done.wav","None","722.308788914","153","849220.654434","856092.708221","856859.961935","857626.945128","858394.34075","859144.625802","845334.860621","846101.895135","849987.827145","850755.590986","851522.657654","852273.092343","853040.395215","853807.461883","854574.683752","855342.034545","858403.748409","Mapping"
"Blocked","m150","tile","13","m150gnash.wav","None","735.636075493","153","849220.654434","856092.708221","856859.961935","857626.945128","858394.34075","859144.625802","859912.452094","846101.895135","849987.827145","850755.590986","851522.657654","852273.092343","853040.395215","853807.461883","854574.683752","855342.034545","859154.276158","Mapping"
"Blocked","m150","tile","13","m150ball.wav","None","731.997791212","153","849220.654434","856092.708221","856859.961935","857626.945128","858394.34075","859144.625802","859912.452094","860679.321822","849987.827145","850755.590986","851522.657654","852273.092343","853040.395215","853807.461883","854574.683752","855342.034545","859921.599126","Mapping"
"Blocked","m150","tile","17","m150reek.wav","None","728.365690447","153","863781.289612","856092.708221","856859.961935","857626.945128","858394.34075","859144.625802","859912.452094","860679.321822","849987.827145","850755.590986","851522.657654","852273.092343","853040.395215","853807.461883","854574.683752","855342.034545","860688.89365","Mapping"
"Blocked","m150","tile","17","m150lash.wav","None","735.142025165","153","863781.289612","856092.708221","856859.961935","857626.945128","858394.34075","859144.625802","859912.452094","860679.321822","864548.788805","850755.590986","851522.657654","852273.092343","853040.395215","853807.461883","854574.683752","855342.034545","863791.08064","Mapping"
"Blocked","m150","tile","17","m150tile.wav","None","732.159176841","153","863781.289612","856092.708221","856859.961935","857626.945128","858394.34075","859144.625802","859912.452094","860679.321822","864548.788805","865316.099097","851522.657654","852273.092343","853040.395215","853807.461883","854574.683752","855342.034545","864557.87864","Mapping"
"Blocked","m150","tile","17","m150lash.wav","space","510.415854864","153","863781.289612","856092.708221","856859.961935","857626.945128","858394.34075","859144.625802","859912.452094","860679.321822","864548.788805","865316.099097","866083.017983","852273.092343","853040.395215","853807.461883","854574.683752","855342.034545","865325.607545","Mapping"
"Blocked","m150","tile","17","m150tile.wav","None","724.306629971","153","863781.289612","856092.708221","856859.961935","857626.945128","858394.34075","859144.625802","859912.452094","860679.321822","864548.788805","865316.099097","866083.017983","866850.49677","853040.395215","853807.461883","854574.683752","855342.034545","866091.978277","Mapping"
"Blocked","m150","tile","17","m150depth.wav","space","471.433844883","153","863781.289612","856092.708221","856859.961935","857626.945128","858394.34075","859144.625802","859912.452094","860679.321822","864548.788805","865316.099097","866083.017983","866850.49677","867601.006588","853807.461883","854574.683752","855342.034545","866860.546571","Mapping"
"Blocked","m150","tile","17","m150tile.wav","None","732.306031045","153","863781.289612","856092.708221","856859.961935","857626.945128","858394.34075","859144.625802","859912.452094","860679.321822","864548.788805","865316.099097","866083.017983","866850.49677","867601.006588","868368.201869","854574.683752","855342.034545","867610.263992","Mapping"
"Blocked","m150","tile","17","m150knife.wav","space","434.296328574","153","863781.289612","856092.708221","856859.961935","857626.945128","858394.34075","859144.625802","859912.452094","860679.321822","864548.788805","865316.099097","866083.017983","866850.49677","867601.006588","868368.201869","869135.510615","855342.034545","868377.609219","Mapping"
"Blocked","m150","tile","17","m150depth.wav","None","723.892963491","153","863781.289612","856092.708221","856859.961935","857626.945128","858394.34075","859144.625802","859912.452094","860679.321822","864548.788805","865316.099097","866083.017983","866850.49677","867601.006588","868368.201869","869135.510615","869902.790918","869144.993403","Mapping"
"Blocked","m150","tile","17","m150dime.wav","None","724.507898092","153","863781.289612","870653.165938","856859.961935","857626.945128","858394.34075","859144.625802","859912.452094","860679.321822","864548.788805","865316.099097","866083.017983","866850.49677","867601.006588","868368.201869","869135.510615","869902.790918","869908.144154","Mapping"
"Blocked","m150","tile","17","m150tile.wav","None","739.099679049","153","863781.289612","870653.165938","871420.371422","857626.945128","858394.34075","859144.625802","859912.452094","860679.321822","864548.788805","865316.099097","866083.017983","866850.49677","867601.006588","868368.201869","869135.510615","869902.790918","870657.721522","Mapping"
"Blocked","m150","tile","17","m150reek.wav","space","502.014535945","153","863781.289612","870653.165938","871420.371422","872187.788685","858394.34075","859144.625802","859912.452094","860679.321822","864548.788805","865316.099097","866083.017983","866850.49677","867601.006588","868368.201869","869135.510615","869902.790918","871429.7797","Mapping"
"Blocked","m150","tile","17","m150cave.wav","None","725.901006721","153","863781.289612","870653.165938","871420.371422","872187.788685","872954.938519","859144.625802","859912.452094","860679.321822","864548.788805","865316.099097","866083.017983","866850.49677","867601.006588","868368.201869","869135.510615","869902.790918","872197.476142","Mapping"
"Blocked","m150","tile","17","m150greet.wav","None","722.718436271","153","863781.289612","870653.165938","871420.371422","872187.788685","872954.938519","873721.853694","859912.452094","860679.321822","864548.788805","865316.099097","866083.017983","866850.49677","867601.006588","868368.201869","869135.510615","869902.790918","872964.45717","Mapping"
"Blocked","m150","tile","17","m150priest.wav","None","722.950621042","153","863781.289612","870653.165938","871420.371422","872187.788685","872954.938519","873721.853694","874472.43091","860679.321822","864548.788805","865316.099097","866083.017983","866850.49677","867601.006588","868368.201869","869135.510615","869902.790918","873730.971046","Mapping"
"Blocked","m150","tile","17","m150gnash.wav","None","735.701927915","153","863781.289612","870653.165938","871420.371422","872187.788685","872954.938519","873721.853694","874472.43091","875239.488921","864548.788805","865316.099097","866083.017983","866850.49677","867601.006588","868368.201869","869135.510615","869902.790918","874481.801779","Mapping"
"Blocked","m150","ball","2","m150cling.wav","None","732.966104057","153","878358.66034","870653.165938","871420.371422","872187.788685","872954.938519","873721.853694","874472.43091","875239.488921","864548.788805","865316.099097","866083.017983","866850.49677","867601.006588","868368.201869","869135.510615","869902.790918","875248.481678","Mapping"
"Blocked","m150","ball","2","m150jaw.wav","None","735.507152509","153","878358.66034","870653.165938","871420.371422","872187.788685","872954.938519","873721.853694","874472.43091","875239.488921","879126.025663","865316.099097","866083.017983","866850.49677","867601.006588","868368.201869","869135.510615","869902.790918","878368.150856","Mapping"
"Blocked","m150","ball","2","m150jaw.wav","None","731.365234591","153","878358.66034","870653.165938","871420.371422","872187.788685","872954.938519","873721.853694","874472.43091","875239.488921","879126.025663","879893.327299","866083.017983","866850.49677","867601.006588","868368.201869","869135.510615","869902.790918","879136.14379","Mapping"
"Blocked","m150","ball","2","m150cave.wav","None","729.0353477","153","878358.66034","870653.165938","871420.371422","872187.788685","872954.938519","873721.853694","874472.43091","875239.488921","879126.025663","879893.327299","880660.337079","866850.49677","867601.006588","868368.201869","869135.510615","869902.790918","879902.30707","Mapping"
"Blocked","m150","ball","2","m150cad.wav","None","725.778267253","153","878358.66034","870653.165938","871420.371422","872187.788685","872954.938519","873721.853694","874472.43091","875239.488921","879126.025663","879893.327299","880660.337079","881427.768874","867601.006588","868368.201869","869135.510615","869902.790918","880669.768854","Mapping"
"Blocked","m150","ball","2","m150depth.wav","None","722.389172763","153","878358.66034","870653.165938","871420.371422","872187.788685","872954.938519","873721.853694","874472.43091","875239.488921","879126.025663","879893.327299","880660.337079","881427.768874","882177.998585","868368.201869","869135.510615","869902.790918","881437.112227","Mapping"
"Blocked","m150","ball","2","m150ball.wav","None","735.725733917","153","878358.66034","870653.165938","871420.371422","872187.788685","872954.938519","873721.853694","874472.43091","875239.488921","879126.025663","879893.327299","880660.337079","881427.768874","882177.998585","882945.418631","869135.510615","869902.790918","882187.530221","Mapping"
"Blocked","m150","ball","2","m150cad.wav","space","552.31702514","153","878358.66034","870653.165938","871420.371422","872187.788685","872954.938519","873721.853694","874472.43091","875239.488921","879126.025663","879893.327299","880660.337079","881427.768874","882177.998585","882945.418631","883712.737271","869902.790918","882955.078263","Mapping"
"Blocked","m150","ball","2","m150ball.wav","None","727.368625812","153","878358.66034","870653.165938","871420.371422","872187.788685","872954.938519","873721.853694","874472.43091","875239.488921","879126.025663","879893.327299","880660.337079","881427.768874","882177.998585","882945.418631","883712.737271","884479.767147","883722.199653","Mapping"
"Blocked","m150","ball","2","m150priest.wav","None","724.316214211","153","878358.66034","885247.27036","871420.371422","872187.788685","872954.938519","873721.853694","874472.43091","875239.488921","879126.025663","879893.327299","880660.337079","881427.768874","882177.998585","882945.418631","883712.737271","884479.767147","884489.084839","Mapping"
"Blocked","m150","ball","2","m150done.wav","None","725.988501217","153","878358.66034","885247.27036","885997.2852","872187.788685","872954.938519","873721.853694","874472.43091","875239.488921","879126.025663","879893.327299","880660.337079","881427.768874","882177.998585","882945.418631","883712.737271","884479.767147","885251.311798","Mapping"
"Blocked","m150","ball","2","m150ball.wav","space","252.722529694","153","878358.66034","885247.27036","885997.2852","886764.85612","872954.938519","873721.853694","874472.43091","875239.488921","879126.025663","879893.327299","880660.337079","881427.768874","882177.998585","882945.418631","883712.737271","884479.767147","886006.560536","Mapping"
"Blocked","m150","ball","2","m150cad.wav","space","612.778760958","153","878358.66034","885247.27036","885997.2852","886764.85612","887531.763875","873721.853694","874472.43091","875239.488921","879126.025663","879893.327299","880660.337079","881427.768874","882177.998585","882945.418631","883712.737271","884479.767147","886774.424546","Mapping"
"Blocked","m150","ball","2","m150romp.wav","None","725.090369582","153","878358.66034","885247.27036","885997.2852","886764.85612","887531.763875","888299.171246","874472.43091","875239.488921","879126.025663","879893.327299","880660.337079","881427.768874","882177.998585","882945.418631","883712.737271","884479.767147","887540.879681","Mapping"
"Blocked","m150","ball","2","m150ball.wav","None","722.256848589","153","878358.66034","885247.27036","885997.2852","886764.85612","887531.763875","888299.171246","889049.577801","875239.488921","879126.025663","879893.327299","880660.337079","881427.768874","882177.998585","882945.418631","883712.737271","884479.767147","888308.232947","Mapping"
"Blocked","m150","ball","2","m150cad.wav","space","423.622318543","153","878358.66034","885247.27036","885997.2852","886764.85612","887531.763875","888299.171246","889049.577801","889817.20097","879126.025663","879893.327299","880660.337079","881427.768874","882177.998585","882945.418631","883712.737271","884479.767147","889059.5129","Mapping"
"Blocked","m150","done","21","m150tile.wav","None","730.184832588","153","892935.857625","885247.27036","885997.2852","886764.85612","887531.763875","888299.171246","889049.577801","889817.20097","879126.025663","879893.327299","880660.337079","881427.768874","882177.998585","882945.418631","883712.737271","884479.767147","889826.611721","Mapping"
"Blocked","m150","done","21","m150done.wav","None","735.585062765","153","892935.857625","885247.27036","885997.2852","886764.85612","887531.763875","888299.171246","889049.577801","889817.20097","893702.922128","879893.327299","880660.337079","881427.768874","882177.998585","882945.418631","883712.737271","884479.767147","892945.304858","Mapping"
"Blocked","m150","done","21","m150jolt.wav","space","475.121286698","153","892935.857625","885247.27036","885997.2852","886764.85612","887531.763875","888299.171246","889049.577801","889817.20097","893702.922128","894470.379584","880660.337079","881427.768874","882177.998585","882945.418631","883712.737271","884479.767147","893711.841303","Mapping"
"Blocked","m150","done","21","m150cave.wav","None","727.11387137","153","892935.857625","885247.27036","885997.2852","886764.85612","887531.763875","888299.171246","889049.577801","889817.20097","893702.922128","894470.379584","895237.270644","881427.768874","882177.998585","882945.418631","883712.737271","884479.767147","894480.012317","Mapping"
"Blocked","m150","done","21","m150done.wav","None","724.853238091","153","892935.857625","885247.27036","885997.2852","886764.85612","887531.763875","888299.171246","889049.577801","889817.20097","893702.922128","894470.379584","895237.270644","896004.693473","882177.998585","882945.418631","883712.737271","884479.767147","895246.596375","Mapping"
"Blocked","m150","done","21","m150jolt.wav","space","549.307897221","153","892935.857625","885247.27036","885997.2852","886764.85612","887531.763875","888299.171246","889049.577801","889817.20097","893702.922128","894470.379584","895237.270644","896004.693473","896755.509984","882945.418631","883712.737271","884479.767147","896013.61914","Mapping"
"Blocked","m150","done","21","m150park.wav","None","732.661264949","153","892935.857625","885247.27036","885997.2852","886764.85612","887531.763875","888299.171246","889049.577801","889817.20097","893702.922128","894470.379584","895237.270644","896004.693473","896755.509984","897522.8447","883712.737271","884479.767147","896765.015341","Mapping"
"Blocked","m150","done","21","m150priest.wav","None","728.912608232","153","892935.857625","885247.27036","885997.2852","886764.85612","887531.763875","888299.171246","889049.577801","889817.20097","893702.922128","894470.379584","895237.270644","896004.693473","896755.509984","897522.8447","898289.870249","884479.767147","897532.662007","Mapping"
"Blocked","m150","done","21","m150priest.wav","None","725.798363332","153","892935.857625","885247.27036","885997.2852","886764.85612","887531.763875","888299.171246","889049.577801","889817.20097","893702.922128","894470.379584","895237.270644","896004.693473","896755.509984","897522.8447","898289.870249","899056.870445","898299.589549","Mapping"
"Blocked","m150","done","21","m150bluff.wav","None","723.402314819","153","892935.857625","899807.409633","885997.2852","886764.85612","887531.763875","888299.171246","889049.577801","889817.20097","893702.922128","894470.379584","895237.270644","896004.693473","896755.509984","897522.8447","898289.870249","899056.870445","899065.954715","Mapping"
"Blocked","m150","done","21","m150done.wav","None","736.766700633","153","892935.857625","899807.409633","900574.949018","886764.85612","887531.763875","888299.171246","889049.577801","889817.20097","893702.922128","894470.379584","895237.270644","896004.693473","896755.509984","897522.8447","898289.870249","899056.870445","899816.458659","Mapping"
"Blocked","m150","done","21","m150jaw.wav","space","449.980707839","153","892935.857625","899807.409633","900574.949018","901342.1477","887531.763875","888299.171246","889049.577801","889817.20097","893702.922128","894470.379584","895237.270644","896004.693473","896755.509984","897522.8447","898289.870249","899056.870445","900584.759523","Mapping"
"Blocked","m150","done","21","m150done.wav","None","728.086821269","153","892935.857625","899807.409633","900574.949018","901342.1477","902109.130584","888299.171246","889049.577801","889817.20097","893702.922128","894470.379584","895237.270644","896004.693473","896755.509984","897522.8447","898289.870249","899056.870445","901351.407887","Mapping"
"Blocked","m150","done","21","m150cad.wav","space","612.382716965","153","892935.857625","899807.409633","900574.949018","901342.1477","902109.130584","902859.827447","889049.577801","889817.20097","893702.922128","894470.379584","895237.270644","896004.693473","896755.509984","897522.8447","898289.870249","899056.870445","902118.322135","Mapping"
"Blocked","m150","done","21","m150cling.wav","None","736.206489149","153","892935.857625","899807.409633","900574.949018","901342.1477","902109.130584","902859.827447","903627.168965","889817.20097","893702.922128","894470.379584","895237.270644","896004.693473","896755.509984","897522.8447","898289.870249","899056.870445","902869.380416","Mapping"
"Blocked","m150","done","21","m150bluff.wav","None","732.961466536","153","892935.857625","899807.409633","900574.949018","901342.1477","902109.130584","902859.827447","903627.168965","904393.997265","893702.922128","894470.379584","895237.270644","896004.693473","896755.509984","897522.8447","898289.870249","899056.870445","903636.811901","Mapping"
"Blocked","m150","done","19","m150knife.wav","None","730.599735398","153","907513.100357","899807.409633","900574.949018","901342.1477","902109.130584","902859.827447","903627.168965","904393.997265","893702.922128","894470.379584","895237.270644","896004.693473","896755.509984","897522.8447","898289.870249","899056.870445","904403.155426","Mapping"
"Blocked","m150","done","19","m150lash.wav","None","734.782463405","153","907513.100357","899807.409633","900574.949018","901342.1477","902109.130584","902859.827447","903627.168965","904393.997265","908280.486395","894470.379584","895237.270644","896004.693473","896755.509984","897522.8447","898289.870249","899056.870445","907522.744221","Mapping"
"Blocked","m150","done","19","m150jolt.wav","None","731.410373002","153","907513.100357","899807.409633","900574.949018","901342.1477","902109.130584","902859.827447","903627.168965","904393.997265","908280.486395","909047.76206","895237.270644","896004.693473","896755.509984","897522.8447","898289.870249","899056.870445","908290.026996","Mapping"
"Blocked","m150","done","19","m150romp.wav","None","727.800841443","153","907513.100357","899807.409633","900574.949018","901342.1477","902109.130584","902859.827447","903627.168965","904393.997265","908280.486395","909047.76206","909815.047618","896004.693473","896755.509984","897522.8447","898289.870249","899056.870445","909057.515678","Mapping"
"Blocked","m150","done","19","m150done.wav","None","725.244953297","153","907513.100357","899807.409633","900574.949018","901342.1477","902109.130584","902859.827447","903627.168965","904393.997265","908280.486395","909047.76206","909815.047618","910582.340905","896755.509984","897522.8447","898289.870249","899056.870445","909824.090769","Mapping"
"Blocked","m150","done","19","m150jaw.wav","space","570.613252465","153","907513.100357","899807.409633","900574.949018","901342.1477","902109.130584","902859.827447","903627.168965","904393.997265","908280.486395","909047.76206","909815.047618","910582.340905","911332.733548","897522.8447","898289.870249","899056.870445","910591.798341","Mapping"
"Blocked","m150","done","19","m150done.wav","None","733.254557475","153","907513.100357","899807.409633","900574.949018","901342.1477","902109.130584","902859.827447","903627.168965","904393.997265","908280.486395","909047.76206","909815.047618","910582.340905","911332.733548","912099.558756","898289.870249","899056.870445","911342.150792","Mapping"
"Blocked","m150","done","19","m150cling.wav","space","621.518618427","153","907513.100357","899807.409633","900574.949018","901342.1477","902109.130584","902859.827447","903627.168965","904393.997265","908280.486395","909047.76206","909815.047618","910582.340905","911332.733548","912099.558756","912867.436061","899056.870445","912108.820798","Mapping"
"Blocked","m150","done","19","m150greet.wav","None","724.886319134","153","907513.100357","899807.409633","900574.949018","901342.1477","902109.130584","902859.827447","903627.168965","904393.997265","908280.486395","909047.76206","909815.047618","910582.340905","911332.733548","912099.558756","912867.436061","913634.406578","912876.921013","Mapping"
"Blocked","m150","done","19","m150done.wav","None","722.101646941","153","907513.100357","914384.65824","900574.949018","901342.1477","902109.130584","902859.827447","903627.168965","904393.997265","908280.486395","909047.76206","909815.047618","910582.340905","911332.733548","912099.558756","912867.436061","913634.406578","913643.849173","Mapping"
"Blocked","m150","done","19","m150romp.wav","space","456.216926686","153","907513.100357","914384.65824","915152.34417","901342.1477","902109.130584","902859.827447","903627.168965","904393.997265","908280.486395","909047.76206","909815.047618","910582.340905","911332.733548","912099.558756","912867.436061","913634.406578","914394.029418","Mapping"
"Blocked","m150","done","19","m150cad.wav","None","730.075696483","153","907513.100357","914384.65824","915152.34417","915919.282533","902109.130584","902859.827447","903627.168965","904393.997265","908280.486395","909047.76206","909815.047618","910582.340905","911332.733548","912099.558756","912867.436061","913634.406578","915161.987416","Mapping"
"Blocked","m150","done","19","m150cad.wav","None","732.583973091","153","907513.100357","914384.65824","915152.34417","915919.282533","916686.355075","902859.827447","903627.168965","904393.997265","908280.486395","909047.76206","909815.047618","910582.340905","911332.733548","912099.558756","912867.436061","913634.406578","915923.498342","Mapping"
