"Condition","Talker","Target","Trial","current_stimulus","response_response","response_time_response","subject_nr","time_Audio1","time_Audio10","time_Audio11","time_Audio12","time_Audio13","time_Audio14","time_Audio15","time_Audio16","time_Audio2","time_Audio3","time_Audio4","time_Audio5","time_Audio6","time_Audio7","time_Audio8","time_Audio9","time_response","title"
"Mixed","Both","done","46","m150gnash.wav","NA","NA","156","300805.489555","NA","NA","NA","NA","NA","NA","NA","NA","NA","NA","NA","NA","NA","NA","NA","NA","Mapping"
"Mixed","Both","done","46","m150knife.wav","None","719.522092491","156","300805.489555","NA","NA","NA","NA","NA","NA","NA","301572.020815","NA","NA","NA","NA","NA","NA","NA","300819.345462","Mapping"
"Mixed","Both","done","46","m150done.wav","None","725.005897228","156","300805.489555","NA","NA","NA","NA","NA","NA","NA","301572.020815","302337.925689","NA","NA","NA","NA","NA","NA","301581.035687","Mapping"
"Mixed","Both","done","46","m150cave.wav","space","448.836009484","156","300805.489555","NA","NA","NA","NA","NA","NA","NA","301572.020815","302337.925689","303104.708615","NA","NA","NA","NA","NA","302346.750729","Mapping"
"Mixed","Both","done","46","m150priest.wav","None","726.631530095","156","300805.489555","NA","NA","NA","NA","NA","NA","NA","301572.020815","302337.925689","303104.708615","303871.574709","NA","NA","NA","NA","303113.637537","Mapping"
"Mixed","Both","done","46","m150done.wav","None","727.059734985","156","300805.489555","NA","NA","NA","NA","NA","NA","NA","301572.020815","302337.925689","303104.708615","303871.574709","304638.796043","NA","NA","NA","303880.349972","Mapping"
"Mixed","Both","done","46","m160romp.wav","space","467.057750095","156","300805.489555","NA","NA","NA","NA","NA","NA","NA","301572.020815","302337.925689","303104.708615","303871.574709","304638.796043","305404.884875","NA","NA","304648.467598","Mapping"
"Mixed","Both","done","46","m150dime.wav","None","723.940486554","156","300805.489555","NA","NA","NA","NA","NA","NA","NA","301572.020815","302337.925689","303104.708615","303871.574709","304638.796043","305404.884875","306171.45138","NA","305413.963746","Mapping"
"Mixed","Both","done","46","m160done.wav","None","724.71001884","156","300805.489555","NA","NA","NA","NA","NA","NA","NA","301572.020815","302337.925689","303104.708615","303871.574709","304638.796043","305404.884875","306171.45138","306938.102289","306180.469343","Mapping"
"Mixed","Both","done","46","m160dime.wav","space","504.528923426","156","300805.489555","307704.990643","NA","NA","NA","NA","NA","NA","301572.020815","302337.925689","303104.708615","303871.574709","304638.796043","305404.884875","306171.45138","306938.102289","306947.001221","Mapping"
"Mixed","Both","done","46","m160priest.wav","None","724.986728746","156","300805.489555","307704.990643","308471.89291","NA","NA","NA","NA","NA","301572.020815","302337.925689","303104.708615","303871.574709","304638.796043","305404.884875","306171.45138","306938.102289","307714.323654","Mapping"
"Mixed","Both","done","46","m160reek.wav","None","724.931695964","156","300805.489555","307704.990643","308471.89291","309238.435299","NA","NA","NA","NA","301572.020815","302337.925689","303104.708615","303871.574709","304638.796043","305404.884875","306171.45138","306938.102289","308481.572813","Mapping"
"Mixed","Both","done","46","m150romp.wav","None","726.439224556","156","300805.489555","307704.990643","308471.89291","309238.435299","310005.052818","NA","NA","NA","301572.020815","302337.925689","303104.708615","303871.574709","304638.796043","305404.884875","306171.45138","306938.102289","309247.204379","Mapping"
"Mixed","Both","done","46","m160done.wav","None","726.599994581","156","300805.489555","307704.990643","308471.89291","309238.435299","310005.052818","310772.395038","NA","NA","301572.020815","302337.925689","303104.708615","303871.574709","304638.796043","305404.884875","306171.45138","306938.102289","310014.199707","Mapping"
"Mixed","Both","done","46","m160cling.wav","space","469.665007666","156","300805.489555","307704.990643","308471.89291","309238.435299","310005.052818","310772.395038","311538.649896","NA","301572.020815","302337.925689","303104.708615","303871.574709","304638.796043","305404.884875","306171.45138","306938.102289","310781.730523","Mapping"
"Mixed","Both","done","46","m160dime.wav","None","722.547043115","156","300805.489555","307704.990643","308471.89291","309238.435299","310005.052818","310772.395038","311538.649896","312305.353056","301572.020815","302337.925689","303104.708615","303871.574709","304638.796043","305404.884875","306171.45138","306938.102289","311548.919702","Mapping"
"Mixed","Both","tile","34","m150lash.wav","None","720.022025518","156","315455.344414","307704.990643","308471.89291","309238.435299","310005.052818","310772.395038","311538.649896","312305.353056","301572.020815","302337.925689","303104.708615","303871.574709","304638.796043","305404.884875","306171.45138","306938.102289","312315.046254","Mapping"
"Mixed","Both","tile","34","m150depth.wav","None","723.744780291","156","315455.344414","307704.990643","308471.89291","309238.435299","310005.052818","310772.395038","311538.649896","312305.353056","316221.275568","302337.925689","303104.708615","303871.574709","304638.796043","305404.884875","306171.45138","306938.102289","315464.815626","Mapping"
"Mixed","Both","tile","34","m160cad.wav","None","725.991232321","156","315455.344414","307704.990643","308471.89291","309238.435299","310005.052818","310772.395038","311538.649896","312305.353056","316221.275568","316988.516998","303104.708615","303871.574709","304638.796043","305404.884875","306171.45138","306938.102289","316229.986214","Mapping"
"Mixed","Both","tile","34","m160tile.wav","None","725.329911336","156","315455.344414","307704.990643","308471.89291","309238.435299","310005.052818","310772.395038","311538.649896","312305.353056","316221.275568","316988.516998","317755.689173","303871.574709","304638.796043","305404.884875","306171.45138","306938.102289","316998.219781","Mapping"
"Mixed","Both","tile","34","m150bluff.wav","space","502.532901708","156","315455.344414","307704.990643","308471.89291","309238.435299","310005.052818","310772.395038","311538.649896","312305.353056","316221.275568","316988.516998","317755.689173","318521.282092","304638.796043","305404.884875","306171.45138","306938.102289","317764.754131","Mapping"
"Mixed","Both","tile","34","m150tile.wav","None","728.81738469","156","315455.344414","307704.990643","308471.89291","309238.435299","310005.052818","310772.395038","311538.649896","312305.353056","316221.275568","316988.516998","317755.689173","318521.282092","319288.006275","305404.884875","306171.45138","306938.102289","318529.929666","Mapping"
"Mixed","Both","tile","34","m160park.wav","space","642.466855701","156","315455.344414","307704.990643","308471.89291","309238.435299","310005.052818","310772.395038","311538.649896","312305.353056","316221.275568","316988.516998","317755.689173","318521.282092","319288.006275","320054.581128","306171.45138","306938.102289","319296.824204","Mapping"
"Mixed","Both","tile","34","m150ball.wav","None","729.708731174","156","315455.344414","307704.990643","308471.89291","309238.435299","310005.052818","310772.395038","311538.649896","312305.353056","316221.275568","316988.516998","317755.689173","318521.282092","319288.006275","320054.581128","320821.257389","306938.102289","320063.329492","Mapping"
"Mixed","Both","tile","34","m160dime.wav","None","730.555865914","156","315455.344414","307704.990643","308471.89291","309238.435299","310005.052818","310772.395038","311538.649896","312305.353056","316221.275568","316988.516998","317755.689173","318521.282092","319288.006275","320054.581128","320821.257389","321588.389681","320829.954122","Mapping"
"Mixed","Both","tile","34","m160bluff.wav","None","727.039948106","156","315455.344414","322354.507266","308471.89291","309238.435299","310005.052818","310772.395038","311538.649896","312305.353056","316221.275568","316988.516998","317755.689173","318521.282092","319288.006275","320054.581128","320821.257389","321588.389681","321597.419393","Mapping"
"Mixed","Both","tile","34","m160done.wav","None","728.433700744","156","315455.344414","322354.507266","323122.137636","309238.435299","310005.052818","310772.395038","311538.649896","312305.353056","316221.275568","316988.516998","317755.689173","318521.282092","319288.006275","320054.581128","320821.257389","321588.389681","322363.182357","Mapping"
"Mixed","Both","tile","34","m160tile.wav","None","723.419839051","156","315455.344414","322354.507266","323122.137636","323888.514617","310005.052818","310772.395038","311538.649896","312305.353056","316221.275568","316988.516998","317755.689173","318521.282092","319288.006275","320054.581128","320821.257389","321588.389681","323131.94461","Mapping"
"Mixed","Both","tile","34","m150depth.wav","space","529.251958244","156","315455.344414","322354.507266","323122.137636","323888.514617","324637.524104","310772.395038","311538.649896","312305.353056","316221.275568","316988.516998","317755.689173","318521.282092","319288.006275","320054.581128","320821.257389","321588.389681","323897.953366","Mapping"
"Mixed","Both","tile","34","m150tile.wav","None","736.86825484","156","315455.344414","322354.507266","323122.137636","323888.514617","324637.524104","325404.805726","311538.649896","312305.353056","316221.275568","316988.516998","317755.689173","318521.282092","319288.006275","320054.581128","320821.257389","321588.389681","324646.19734","Mapping"
"Mixed","Both","tile","34","m150gnash.wav","space","701.229241677","156","315455.344414","322354.507266","323122.137636","323888.514617","324637.524104","325404.805726","326171.493118","312305.353056","316221.275568","316988.516998","317755.689173","318521.282092","319288.006275","320054.581128","320821.257389","321588.389681","325413.957871","Mapping"
"Mixed","Both","tile","34","m160done.wav","None","729.81013963","156","315455.344414","322354.507266","323122.137636","323888.514617","324637.524104","325404.805726","326171.493118","326938.351173","316221.275568","316988.516998","317755.689173","318521.282092","319288.006275","320054.581128","320821.257389","321588.389681","326180.711117","Mapping"
"Mixed","Both","tile","28","m150jolt.wav","None","726.045028307","156","330071.78909","322354.507266","323122.137636","323888.514617","324637.524104","325404.805726","326171.493118","326938.351173","316221.275568","316988.516998","317755.689173","318521.282092","319288.006275","320054.581128","320821.257389","321588.389681","326948.457427","Mapping"
"Mixed","Both","tile","28","m150romp.wav","None","723.894419614","156","330071.78909","322354.507266","323122.137636","323888.514617","324637.524104","325404.805726","326171.493118","326938.351173","330838.023542","316988.516998","317755.689173","318521.282092","319288.006275","320054.581128","320821.257389","321588.389681","330081.273287","Mapping"
"Mixed","Both","tile","28","m150dime.wav","None","722.548897844","156","330071.78909","322354.507266","323122.137636","323888.514617","324637.524104","325404.805726","326171.493118","326938.351173","330838.023542","331587.596961","317755.689173","318521.282092","319288.006275","320054.581128","320821.257389","321588.389681","330846.802825","Mapping"
"Mixed","Both","tile","28","m160dime.wav","None","742.322070058","156","330071.78909","322354.507266","323122.137636","323888.514617","324637.524104","325404.805726","326171.493118","326938.351173","330838.023542","331587.596961","332354.63279","318521.282092","319288.006275","320054.581128","320821.257389","321588.389681","331591.038368","Mapping"
"Mixed","Both","tile","28","m150tile.wav","None","733.556082472","156","330071.78909","322354.507266","323122.137636","323888.514617","324637.524104","325404.805726","326171.493118","326938.351173","330838.023542","331587.596961","332354.63279","333121.381707","319288.006275","320054.581128","320821.257389","321588.389681","332363.895928","Mapping"
"Mixed","Both","tile","28","m160greet.wav","space","672.517872415","156","330071.78909","322354.507266","323122.137636","323888.514617","324637.524104","325404.805726","326171.493118","326938.351173","330838.023542","331587.596961","332354.63279","333121.381707","333887.709221","320054.581128","320821.257389","321588.389681","333130.506645","Mapping"
"Mixed","Both","tile","28","m150depth.wav","None","731.678164564","156","330071.78909","322354.507266","323122.137636","323888.514617","324637.524104","325404.805726","326171.493118","326938.351173","330838.023542","331587.596961","332354.63279","333121.381707","333887.709221","334654.641169","320821.257389","321588.389681","333896.698741","Mapping"
"Mixed","Both","tile","28","m160lash.wav","None","728.518414311","156","330071.78909","322354.507266","323122.137636","323888.514617","324637.524104","325404.805726","326171.493118","326938.351173","330838.023542","331587.596961","332354.63279","333121.381707","333887.709221","334654.641169","335421.388849","321588.389681","334663.862878","Mapping"
"Mixed","Both","tile","28","m160tile.wav","None","729.414089117","156","330071.78909","322354.507266","323122.137636","323888.514617","324637.524104","325404.805726","326171.493118","326938.351173","330838.023542","331587.596961","332354.63279","333121.381707","333887.709221","334654.641169","335421.388849","336187.93062","335430.528627","Mapping"
"Mixed","Both","tile","28","m150knife.wav","space","525.996673852","156","330071.78909","336955.158446","323122.137636","323888.514617","324637.524104","325404.805726","326171.493118","326938.351173","330838.023542","331587.596961","332354.63279","333121.381707","333887.709221","334654.641169","335421.388849","336187.93062","336196.965898","Mapping"
"Mixed","Both","tile","28","m160jolt.wav","None","723.017604556","156","330071.78909","336955.158446","337721.603137","323888.514617","324637.524104","325404.805726","326171.493118","326938.351173","330838.023542","331587.596961","332354.63279","333121.381707","333887.709221","334654.641169","335421.388849","336187.93062","336964.447865","Mapping"
"Mixed","Both","tile","28","m150tile.wav","None","723.833512515","156","330071.78909","336955.158446","337721.603137","338488.274761","324637.524104","325404.805726","326171.493118","326938.351173","330838.023542","331587.596961","332354.63279","333121.381707","333887.709221","334654.641169","335421.388849","336187.93062","337731.355079","Mapping"
"Mixed","Both","tile","28","m160greet.wav","space","480.980128516","156","330071.78909","336955.158446","337721.603137","338488.274761","339237.652782","325404.805726","326171.493118","326938.351173","330838.023542","331587.596961","332354.63279","333121.381707","333887.709221","334654.641169","335421.388849","336187.93062","338497.905197","Mapping"
"Mixed","Both","tile","28","m160tile.wav","None","735.615175683","156","330071.78909","336955.158446","337721.603137","338488.274761","339237.652782","340004.516402","326171.493118","326938.351173","330838.023542","331587.596961","332354.63279","333121.381707","333887.709221","334654.641169","335421.388849","336187.93062","339246.884075","Mapping"
"Mixed","Both","tile","28","m150done.wav","space","541.069176514","156","330071.78909","336955.158446","337721.603137","338488.274761","339237.652782","340004.516402","340771.210286","326938.351173","330838.023542","331587.596961","332354.63279","333121.381707","333887.709221","334654.641169","335421.388849","336187.93062","340013.835192","Mapping"
"Mixed","Both","tile","28","m160done.wav","None","729.752633255","156","330071.78909","336955.158446","337721.603137","338488.274761","339237.652782","340004.516402","340771.210286","341537.582321","330838.023542","331587.596961","332354.63279","333121.381707","333887.709221","334654.641169","335421.388849","336187.93062","340780.430759","Mapping"
"Mixed","Both","tile","30","m160done.wav","None","727.829576004","156","344654.933338","336955.158446","337721.603137","338488.274761","339237.652782","340004.516402","340771.210286","341537.582321","330838.023542","331587.596961","332354.63279","333121.381707","333887.709221","334654.641169","335421.388849","336187.93062","341546.381391","Mapping"
"Mixed","Both","tile","30","m150priest.wav","None","719.751189929","156","344654.933338","336955.158446","337721.603137","338488.274761","339237.652782","340004.516402","340771.210286","341537.582321","345404.358971","331587.596961","332354.63279","333121.381707","333887.709221","334654.641169","335421.388849","336187.93062","344665.314446","Mapping"
"Mixed","Both","tile","30","m150ball.wav","None","735.296109226","156","344654.933338","336955.158446","337721.603137","338488.274761","339237.652782","340004.516402","340771.210286","341537.582321","345404.358971","346171.153337","332354.63279","333121.381707","333887.709221","334654.641169","335421.388849","336187.93062","345413.690127","Mapping"
"Mixed","Both","tile","30","m150tile.wav","None","732.81313898","156","344654.933338","336955.158446","337721.603137","338488.274761","339237.652782","340004.516402","340771.210286","341537.582321","345404.358971","346171.153337","346937.763435","333121.381707","333887.709221","334654.641169","335421.388849","336187.93062","346180.259106","Mapping"
"Mixed","Both","tile","30","m160jaw.wav","space","511.639907025","156","344654.933338","336955.158446","337721.603137","338488.274761","339237.652782","340004.516402","340771.210286","341537.582321","345404.358971","346171.153337","346937.763435","347704.383736","333887.709221","334654.641169","335421.388849","336187.93062","346947.138803","Mapping"
"Mixed","Both","tile","30","m160jolt.wav","None","730.613681022","156","344654.933338","336955.158446","337721.603137","338488.274761","339237.652782","340004.516402","340771.210286","341537.582321","345404.358971","346171.153337","346937.763435","347704.383736","348471.188304","334654.641169","335421.388849","336187.93062","347713.699124","Mapping"
"Mixed","Both","tile","30","m160cad.wav","None","727.943352424","156","344654.933338","336955.158446","337721.603137","338488.274761","339237.652782","340004.516402","340771.210286","341537.582321","345404.358971","346171.153337","346937.763435","347704.383736","348471.188304","349237.749553","335421.388849","336187.93062","348480.60572","Mapping"
"Mixed","Both","tile","30","m150jolt.wav","None","726.228677668","156","344654.933338","336955.158446","337721.603137","338488.274761","339237.652782","340004.516402","340771.210286","341537.582321","345404.358971","346171.153337","346937.763435","347704.383736","348471.188304","349237.749553","350004.715201","336187.93062","349246.679402","Mapping"
"Mixed","Both","tile","30","m160tile.wav","None","722.622172441","156","344654.933338","336955.158446","337721.603137","338488.274761","339237.652782","340004.516402","340771.210286","341537.582321","345404.358971","346171.153337","346937.763435","347704.383736","348471.188304","349237.749553","350004.715201","350770.784246","350014.331414","Mapping"
"Mixed","Both","tile","30","m150done.wav","space","607.178135775","156","344654.933338","351537.9793","337721.603137","338488.274761","339237.652782","340004.516402","340771.210286","341537.582321","345404.358971","346171.153337","346937.763435","347704.383736","348471.188304","349237.749553","350004.715201","350770.784246","350779.546214","Mapping"
"Mixed","Both","tile","30","m150tile.wav","None","719.997601118","156","344654.933338","351537.9793","352287.482845","338488.274761","339237.652782","340004.516402","340771.210286","341537.582321","345404.358971","346171.153337","346937.763435","347704.383736","348471.188304","349237.749553","350004.715201","350770.784246","351547.646218","Mapping"
"Mixed","Both","tile","30","m150lash.wav","space","658.072063699","156","344654.933338","351537.9793","352287.482845","353054.308128","339237.652782","340004.516402","340771.210286","341537.582321","345404.358971","346171.153337","346937.763435","347704.383736","348471.188304","349237.749553","350004.715201","350770.784246","352296.615821","Mapping"
"Mixed","Both","tile","30","m160tile.wav","None","731.505955104","156","344654.933338","351537.9793","352287.482845","353054.308128","353820.993046","340004.516402","340771.210286","341537.582321","345404.358971","346171.153337","346937.763435","347704.383736","348471.188304","349237.749553","350004.715201","350770.784246","353063.745948","Mapping"
"Mixed","Both","tile","30","m160depth.wav","space","540.576354135","156","344654.933338","351537.9793","352287.482845","353054.308128","353820.993046","354587.591087","340771.210286","341537.582321","345404.358971","346171.153337","346937.763435","347704.383736","348471.188304","349237.749553","350004.715201","350770.784246","353830.091395","Mapping"
"Mixed","Both","tile","30","m160done.wav","None","729.889906477","156","344654.933338","351537.9793","352287.482845","353054.308128","353820.993046","354587.591087","355354.290536","341537.582321","345404.358971","346171.153337","346937.763435","347704.383736","348471.188304","349237.749553","350004.715201","350770.784246","354596.61647","Mapping"
"Mixed","Both","tile","30","m150cad.wav","None","727.18649637","156","344654.933338","351537.9793","352287.482845","353054.308128","353820.993046","354587.591087","355354.290536","356120.981328","345404.358971","346171.153337","346937.763435","347704.383736","348471.188304","349237.749553","350004.715201","350770.784246","355363.362296","Mapping"
"Mixed","Both","cave","16","m150lash.wav","None","727.436617482","156","359254.479224","351537.9793","352287.482845","353054.308128","353820.993046","354587.591087","355354.290536","356120.981328","345404.358971","346171.153337","346937.763435","347704.383736","348471.188304","349237.749553","350004.715201","350770.784246","356130.620112","Mapping"
"Mixed","Both","cave","16","m150park.wav","None","720.086642541","156","359254.479224","351537.9793","352287.482845","353054.308128","353820.993046","354587.591087","355354.290536","356120.981328","360021.178983","346171.153337","346937.763435","347704.383736","348471.188304","349237.749553","350004.715201","350770.784246","359264.006396","Mapping"
"Mixed","Both","cave","16","m160cave.wav","None","722.88991604","156","359254.479224","351537.9793","352287.482845","353054.308128","353820.993046","354587.591087","355354.290536","356120.981328","360021.178983","360787.554109","346937.763435","347704.383736","348471.188304","349237.749553","350004.715201","350770.784246","360030.658233","Mapping"
"Mixed","Both","cave","16","m150gnash.wav","space","565.347311087","156","359254.479224","351537.9793","352287.482845","353054.308128","353820.993046","354587.591087","355354.290536","356120.981328","360021.178983","360787.554109","361554.463487","347704.383736","348471.188304","349237.749553","350004.715201","350770.784246","360797.169705","Mapping"
"Mixed","Both","cave","16","m160priest.wav","None","721.355798654","156","359254.479224","351537.9793","352287.482845","353054.308128","353820.993046","354587.591087","355354.290536","356120.981328","360021.178983","360787.554109","361554.463487","362303.854493","348471.188304","349237.749553","350004.715201","350770.784246","361563.819686","Mapping"
"Mixed","Both","cave","16","m150cave.wav","None","736.332766712","156","359254.479224","351537.9793","352287.482845","353054.308128","353820.993046","354587.591087","355354.290536","356120.981328","360021.178983","360787.554109","361554.463487","362303.854493","363070.882903","349237.749553","350004.715201","350770.784246","362312.874621","Mapping"
"Mixed","Both","cave","16","m160ball.wav","space","538.574767299","156","359254.479224","351537.9793","352287.482845","353054.308128","353820.993046","354587.591087","355354.290536","356120.981328","360021.178983","360787.554109","361554.463487","362303.854493","363070.882903","363837.435186","350004.715201","350770.784246","363079.920654","Mapping"
"Mixed","Both","cave","16","m150cave.wav","None","733.100979589","156","359254.479224","351537.9793","352287.482845","353054.308128","353820.993046","354587.591087","355354.290536","356120.981328","360021.178983","360787.554109","361554.463487","362303.854493","363070.882903","363837.435186","364603.786197","350770.784246","363847.037796","Mapping"
"Mixed","Both","cave","16","m160greet.wav","space","629.988316447","156","359254.479224","351537.9793","352287.482845","353054.308128","353820.993046","354587.591087","355354.290536","356120.981328","360021.178983","360787.554109","361554.463487","362303.854493","363070.882903","363837.435186","364603.786197","365370.748753","364612.483548","Mapping"
"Mixed","Both","cave","16","m150cling.wav","None","728.124218527","156","359254.479224","366137.091725","352287.482845","353054.308128","353820.993046","354587.591087","355354.290536","356120.981328","360021.178983","360787.554109","361554.463487","362303.854493","363070.882903","363837.435186","364603.786197","365370.748753","365379.87369","Mapping"
"Mixed","Both","cave","16","m150knife.wav","None","729.966581333","156","359254.479224","366137.091725","366904.101894","353054.308128","353820.993046","354587.591087","355354.290536","356120.981328","360021.178983","360787.554109","361554.463487","362303.854493","363070.882903","363837.435186","364603.786197","365370.748753","366145.990039","Mapping"
"Mixed","Both","cave","16","m150done.wav","None","726.474779192","156","359254.479224","366137.091725","366904.101894","367670.893786","353820.993046","354587.591087","355354.290536","356120.981328","360021.178983","360787.554109","361554.463487","362303.854493","363070.882903","363837.435186","364603.786197","365370.748753","366913.501068","Mapping"
"Mixed","Both","cave","16","m160cling.wav","None","724.03540276","156","359254.479224","366137.091725","366904.101894","367670.893786","368437.184508","354587.591087","355354.290536","356120.981328","360021.178983","360787.554109","361554.463487","362303.854493","363070.882903","363837.435186","364603.786197","365370.748753","367680.029854","Mapping"
"Mixed","Both","cave","16","m160cave.wav","None","722.051129211","156","359254.479224","366137.091725","366904.101894","367670.893786","368437.184508","369187.314438","355354.290536","356120.981328","360021.178983","360787.554109","361554.463487","362303.854493","363070.882903","363837.435186","364603.786197","365370.748753","368446.054069","Mapping"
"Mixed","Both","cave","16","m160jolt.wav","space","573.657577857","156","359254.479224","366137.091725","366904.101894","367670.893786","368437.184508","369187.314438","369954.060573","356120.981328","360021.178983","360787.554109","361554.463487","362303.854493","363070.882903","363837.435186","364603.786197","365370.748753","369196.708975","Mapping"
"Mixed","Both","cave","16","m160jaw.wav","None","732.235294301","156","359254.479224","366137.091725","366904.101894","367670.893786","368437.184508","369187.314438","369954.060573","370720.745182","360021.178983","360787.554109","361554.463487","362303.854493","363070.882903","363837.435186","364603.786197","365370.748753","369963.27146","Mapping"
"Mixed","Both","done","41","m160priest.wav","None","729.5903177","156","373854.34696","366137.091725","366904.101894","367670.893786","368437.184508","369187.314438","369954.060573","370720.745182","360021.178983","360787.554109","361554.463487","362303.854493","363070.882903","363837.435186","364603.786197","365370.748753","370730.002136","Mapping"
"Mixed","Both","done","41","m150cling.wav","None","721.068885643","156","373854.34696","366137.091725","366904.101894","367670.893786","368437.184508","369187.314438","369954.060573","370720.745182","374603.81495","360787.554109","361554.463487","362303.854493","363070.882903","363837.435186","364603.786197","365370.748753","373863.693575","Mapping"
"Mixed","Both","done","41","m150done.wav","None","735.624141525","156","373854.34696","366137.091725","366904.101894","367670.893786","368437.184508","369187.314438","369954.060573","370720.745182","374603.81495","375370.710415","361554.463487","362303.854493","363070.882903","363837.435186","364603.786197","365370.748753","374613.210105","Mapping"
"Mixed","Both","done","41","m150cling.wav","space","462.347805966","156","373854.34696","366137.091725","366904.101894","367670.893786","368437.184508","369187.314438","369954.060573","370720.745182","374603.81495","375370.710415","376137.157888","362303.854493","363070.882903","363837.435186","364603.786197","365370.748753","375379.935525","Mapping"
"Mixed","Both","done","41","m150priest.wav","None","730.260914192","156","373854.34696","366137.091725","366904.101894","367670.893786","368437.184508","369187.314438","369954.060573","370720.745182","374603.81495","375370.710415","376137.157888","376903.826729","363070.882903","363837.435186","364603.786197","365370.748753","376146.174616","Mapping"
"Mixed","Both","done","41","m160bluff.wav","None","727.685810998","156","373854.34696","366137.091725","366904.101894","367670.893786","368437.184508","369187.314438","369954.060573","370720.745182","374603.81495","375370.710415","376137.157888","376903.826729","377670.223807","363837.435186","364603.786197","365370.748753","376912.977638","Mapping"
"Mixed","Both","done","41","m160gnash.wav","None","725.779758301","156","373854.34696","366137.091725","366904.101894","367670.893786","368437.184508","369187.314438","369954.060573","370720.745182","374603.81495","375370.710415","376137.157888","376903.826729","377670.223807","378436.878736","364603.786197","365370.748753","377679.000616","Mapping"
"Mixed","Both","done","41","m160done.wav","None","726.797247306","156","373854.34696","366137.091725","366904.101894","367670.893786","368437.184508","369187.314438","369954.060573","370720.745182","374603.81495","375370.710415","376137.157888","376903.826729","377670.223807","378436.878736","379204.078428","365370.748753","378445.668839","Mapping"
"Mixed","Both","done","41","m150romp.wav","space","435.987080447","156","373854.34696","366137.091725","366904.101894","367670.893786","368437.184508","369187.314438","369954.060573","370720.745182","374603.81495","375370.710415","376137.157888","376903.826729","377670.223807","378436.878736","379204.078428","379970.311334","379214.228893","Mapping"
"Mixed","Both","done","41","m160done.wav","None","721.137831919","156","373854.34696","380720.010895","366904.101894","367670.893786","368437.184508","369187.314438","369954.060573","370720.745182","374603.81495","375370.710415","376137.157888","376903.826729","377670.223807","378436.878736","379204.078428","379970.311334","379979.076394","Mapping"
"Mixed","Both","done","41","m150knife.wav","space","585.398430005","156","373854.34696","380720.010895","381486.809898","367670.893786","368437.184508","369187.314438","369954.060573","370720.745182","374603.81495","375370.710415","376137.157888","376903.826729","377670.223807","378436.878736","379204.078428","379970.311334","380728.793269","Mapping"
"Mixed","Both","done","41","m150done.wav","None","732.472120784","156","373854.34696","380720.010895","381486.809898","382253.241913","368437.184508","369187.314438","369954.060573","370720.745182","374603.81495","375370.710415","376137.157888","376903.826729","377670.223807","378436.878736","379204.078428","379970.311334","381495.631537","Mapping"
"Mixed","Both","done","41","m160greet.wav","space","484.26571209","156","373854.34696","380720.010895","381486.809898","382253.241913","383020.718624","369187.314438","369954.060573","370720.745182","374603.81495","375370.710415","376137.157888","376903.826729","377670.223807","378436.878736","379204.078428","379970.311334","382261.848986","Mapping"
"Mixed","Both","done","41","m160park.wav","None","729.405432008","156","373854.34696","380720.010895","381486.809898","382253.241913","383020.718624","383787.141363","369954.060573","370720.745182","374603.81495","375370.710415","376137.157888","376903.826729","377670.223807","378436.878736","379204.078428","379970.311334","383030.407184","Mapping"
"Mixed","Both","done","41","m150dime.wav","None","728.024974","156","373854.34696","380720.010895","381486.809898","382253.241913","383020.718624","383787.141363","384553.419719","370720.745182","374603.81495","375370.710415","376137.157888","376903.826729","377670.223807","378436.878736","379204.078428","379970.311334","383796.110477","Mapping"
"Mixed","Both","done","41","m160reek.wav","None","726.29824141","156","373854.34696","380720.010895","381486.809898","382253.241913","383020.718624","383787.141363","384553.419719","385321.037103","374603.81495","375370.710415","376137.157888","376903.826729","377670.223807","378436.878736","379204.078428","379970.311334","384562.062037","Mapping"
"Mixed","Both","done","37","m150jolt.wav","None","721.970744431","156","388437.22872","380720.010895","381486.809898","382253.241913","383020.718624","383787.141363","384553.419719","385321.037103","374603.81495","375370.710415","376137.157888","376903.826729","377670.223807","378436.878736","379204.078428","379970.311334","385330.666302","Mapping"
"Mixed","Both","done","37","m150knife.wav","None","720.620893873","156","388437.22872","380720.010895","381486.809898","382253.241913","383020.718624","383787.141363","384553.419719","385321.037103","389186.935083","375370.710415","376137.157888","376903.826729","377670.223807","378436.878736","379204.078428","379970.311334","388446.974169","Mapping"
"Mixed","Both","done","37","m160jolt.wav","None","735.631871037","156","388437.22872","380720.010895","381486.809898","382253.241913","383020.718624","383787.141363","384553.419719","385321.037103","389186.935083","389953.606707","376137.157888","376903.826729","377670.223807","378436.878736","379204.078428","379970.311334","389195.966032","Mapping"
"Mixed","Both","done","37","m150ball.wav","None","733.028632589","156","388437.22872","380720.010895","381486.809898","382253.241913","383020.718624","383787.141363","384553.419719","385321.037103","389186.935083","389953.606707","390719.873932","376903.826729","377670.223807","378436.878736","379204.078428","379970.311334","389962.98022","Mapping"
"Mixed","Both","done","37","m160cad.wav","None","731.66456027","156","388437.22872","380720.010895","381486.809898","382253.241913","383020.718624","383787.141363","384553.419719","385321.037103","389186.935083","389953.606707","390719.873932","391486.630578","377670.223807","378436.878736","379204.078428","379970.311334","390728.580867","Mapping"
"Mixed","Both","done","37","m160jolt.wav","None","728.821713012","156","388437.22872","380720.010895","381486.809898","382253.241913","383020.718624","383787.141363","384553.419719","385321.037103","389186.935083","389953.606707","390719.873932","391486.630578","392253.567163","378436.878736","379204.078428","379970.311334","391495.479115","Mapping"
"Mixed","Both","done","37","m160done.wav","None","726.475088391","156","388437.22872","380720.010895","381486.809898","382253.241913","383020.718624","383787.141363","384553.419719","385321.037103","389186.935083","389953.606707","390719.873932","391486.630578","392253.567163","393020.920204","379204.078428","379970.311334","392262.706632","Mapping"
"Mixed","Both","done","37","m150cad.wav","space","587.071056943","156","388437.22872","380720.010895","381486.809898","382253.241913","383020.718624","383787.141363","384553.419719","385321.037103","389186.935083","389953.606707","390719.873932","391486.630578","392253.567163","393020.920204","393787.367369","379970.311334","393030.867234","Mapping"
"Mixed","Both","done","37","m150done.wav","None","720.069637988","156","388437.22872","380720.010895","381486.809898","382253.241913","383020.718624","383787.141363","384553.419719","385321.037103","389186.935083","389953.606707","390719.873932","391486.630578","392253.567163","393020.920204","393787.367369","394536.498051","393796.825286","Mapping"
"Mixed","Both","done","37","m160bluff.wav","space","504.621057305","156","388437.22872","395303.551813","381486.809898","382253.241913","383020.718624","383787.141363","384553.419719","385321.037103","389186.935083","389953.606707","390719.873932","391486.630578","392253.567163","393020.920204","393787.367369","394536.498051","394545.311342","Mapping"
"Mixed","Both","done","37","m160tile.wav","None","731.908189133","156","388437.22872","395303.551813","396070.248479","382253.241913","383020.718624","383787.141363","384553.419719","385321.037103","389186.935083","389953.606707","390719.873932","391486.630578","392253.567163","393020.920204","393787.367369","394536.498051","395312.856689","Mapping"
"Mixed","Both","done","37","m150done.wav","None","729.101514909","156","388437.22872","395303.551813","396070.248479","396836.819313","383020.718624","383787.141363","384553.419719","385321.037103","389186.935083","389953.606707","390719.873932","391486.630578","392253.567163","393020.920204","393787.367369","394536.498051","396079.856346","Mapping"
"Mixed","Both","done","37","m150depth.wav","space","500.068791211","156","388437.22872","395303.551813","396070.248479","396836.819313","397603.763627","383787.141363","384553.419719","385321.037103","389186.935083","389953.606707","390719.873932","391486.630578","392253.567163","393020.920204","393787.367369","394536.498051","396845.810378","Mapping"
"Mixed","Both","done","37","m150jaw.wav","None","723.276382778","156","388437.22872","395303.551813","396070.248479","396836.819313","397603.763627","398370.215429","384553.419719","385321.037103","389186.935083","389953.606707","390719.873932","391486.630578","392253.567163","393020.920204","393787.367369","394536.498051","397613.555761","Mapping"
"Mixed","Both","done","37","m160done.wav","None","725.405349396","156","388437.22872","395303.551813","396070.248479","396836.819313","397603.763627","398370.215429","399137.573417","385321.037103","389186.935083","389953.606707","390719.873932","391486.630578","392253.567163","393020.920204","393787.367369","394536.498051","398379.397873","Mapping"
"Mixed","Both","done","37","m160lash.wav","space","558.610736392","156","388437.22872","395303.551813","396070.248479","396836.819313","397603.763627","398370.215429","399137.573417","399887.220419","389186.935083","389953.606707","390719.873932","391486.630578","392253.567163","393020.920204","393787.367369","394536.498051","399147.240336","Mapping"
"Mixed","Both","done","45","m160greet.wav","None","735.466463491","156","403020.628964","395303.551813","396070.248479","396836.819313","397603.763627","398370.215429","399137.573417","399887.220419","389186.935083","389953.606707","390719.873932","391486.630578","392253.567163","393020.920204","393787.367369","394536.498051","399896.892593","Mapping"
"Mixed","Both","done","45","m160bluff.wav","None","720.070256852","156","403020.628964","395303.551813","396070.248479","396836.819313","397603.763627","398370.215429","399137.573417","399887.220419","403769.81406","389953.606707","390719.873932","391486.630578","392253.567163","393020.920204","393787.367369","394536.498051","403030.115943","Mapping"
"Mixed","Both","done","45","m150tile.wav","None","735.63929135","156","403020.628964","395303.551813","396070.248479","396836.819313","397603.763627","398370.215429","399137.573417","399887.220419","403769.81406","404536.456003","390719.873932","391486.630578","392253.567163","393020.920204","393787.367369","394536.498051","403778.858613","Mapping"
"Mixed","Both","done","45","m150done.wav","None","733.644505497","156","403020.628964","395303.551813","396070.248479","396836.819313","397603.763627","398370.215429","399137.573417","399887.220419","403769.81406","404536.456003","405303.351159","391486.630578","392253.567163","393020.920204","393787.367369","394536.498051","404545.264348","Mapping"
"Mixed","Both","done","45","m150greet.wav","space","473.066221923","156","403020.628964","395303.551813","396070.248479","396836.819313","397603.763627","398370.215429","399137.573417","399887.220419","403769.81406","404536.456003","405303.351159","406069.670326","392253.567163","393020.920204","393787.367369","394536.498051","405312.664074","Mapping"
"Mixed","Both","done","45","m150done.wav","None","731.654048897","156","403020.628964","395303.551813","396070.248479","396836.819313","397603.763627","398370.215429","399137.573417","399887.220419","403769.81406","404536.456003","405303.351159","406069.670326","406836.355244","393020.920204","393787.367369","394536.498051","406078.596156","Mapping"
"Mixed","Both","done","45","m150gnash.wav","space","636.564430315","156","403020.628964","395303.551813","396070.248479","396836.819313","397603.763627","398370.215429","399137.573417","399887.220419","403769.81406","404536.456003","405303.351159","406069.670326","406836.355244","407603.30265","393787.367369","394536.498051","406845.153385","Mapping"
"Mixed","Both","done","45","m160ball.wav","None","725.676184986","156","403020.628964","395303.551813","396070.248479","396836.819313","397603.763627","398370.215429","399137.573417","399887.220419","403769.81406","404536.456003","405303.351159","406069.670326","406836.355244","407603.30265","408370.734221","394536.498051","407612.575373","Mapping"
"Mixed","Both","done","45","m160done.wav","None","722.744913772","156","403020.628964","395303.551813","396070.248479","396836.819313","397603.763627","398370.215429","399137.573417","399887.220419","403769.81406","404536.456003","405303.351159","406069.670326","406836.355244","407603.30265","408370.734221","409136.939612","408379.916047","Mapping"
"Mixed","Both","done","45","m160ball.wav","space","526.89173026","156","403020.628964","409886.551368","396070.248479","396836.819313","397603.763627","398370.215429","399137.573417","399887.220419","403769.81406","404536.456003","405303.351159","406069.670326","406836.355244","407603.30265","408370.734221","409136.939612","409146.762972","Mapping"
"Mixed","Both","done","45","m160done.wav","None","734.997757245","156","403020.628964","409886.551368","410653.237213","396836.819313","397603.763627","398370.215429","399137.573417","399887.220419","403769.81406","404536.456003","405303.351159","406069.670326","406836.355244","407603.30265","408370.734221","409136.939612","409895.631475","Mapping"
"Mixed","Both","done","45","m160lash.wav","space","475.00504693","156","403020.628964","409886.551368","410653.237213","411419.987367","397603.763627","398370.215429","399137.573417","399887.220419","403769.81406","404536.456003","405303.351159","406069.670326","406836.355244","407603.30265","408370.734221","409136.939612","410662.641026","Mapping"
"Mixed","Both","done","45","m150cling.wav","None","729.278052691","156","403020.628964","409886.551368","410653.237213","411419.987367","412186.688672","398370.215429","399137.573417","399887.220419","403769.81406","404536.456003","405303.351159","406069.670326","406836.355244","407603.30265","408370.734221","409136.939612","411429.288225","Mapping"
"Mixed","Both","done","45","m150ball.wav","None","726.921534631","156","403020.628964","409886.551368","410653.237213","411419.987367","412186.688672","412953.203235","399137.573417","399887.220419","403769.81406","404536.456003","405303.351159","406069.670326","406836.355244","407603.30265","408370.734221","409136.939612","412195.907289","Mapping"
"Mixed","Both","done","45","m150depth.wav","None","724.817611277","156","403020.628964","409886.551368","410653.237213","411419.987367","412186.688672","412953.203235","413720.261635","399887.220419","403769.81406","404536.456003","405303.351159","406069.670326","406836.355244","407603.30265","408370.734221","409136.939612","412962.347033","Mapping"
"Mixed","Both","done","45","m160cave.wav","None","722.141407896","156","403020.628964","409886.551368","410653.237213","411419.987367","412186.688672","412953.203235","413720.261635","414486.351085","403769.81406","404536.456003","405303.351159","406069.670326","406836.355244","407603.30265","408370.734221","409136.939612","413729.575168","Mapping"
"Mixed","Both","cave","13","m150priest.wav","None","720.909352414","156","417603.596674","409886.551368","410653.237213","411419.987367","412186.688672","412953.203235","413720.261635","414486.351085","403769.81406","404536.456003","405303.351159","406069.670326","406836.355244","407603.30265","408370.734221","409136.939612","414495.126967","Mapping"
"Mixed","Both","cave","13","m160jaw.wav","None","720.186505467","156","417603.596674","409886.551368","410653.237213","411419.987367","412186.688672","412953.203235","413720.261635","414486.351085","418352.631821","404536.456003","405303.351159","406069.670326","406836.355244","407603.30265","408370.734221","409136.939612","417612.897222","Mapping"
"Mixed","Both","cave","13","m150lash.wav","None","736.197657883","156","417603.596674","409886.551368","410653.237213","411419.987367","412186.688672","412953.203235","413720.261635","414486.351085","418352.631821","419120.025365","405303.351159","406069.670326","406836.355244","407603.30265","408370.734221","409136.939612","418361.369984","Mapping"
"Mixed","Both","cave","13","m160dime.wav","None","732.416160405","156","417603.596674","409886.551368","410653.237213","411419.987367","412186.688672","412953.203235","413720.261635","414486.351085","418352.631821","419120.025365","419886.422752","406069.670326","406836.355244","407603.30265","408370.734221","409136.939612","419129.489775","Mapping"
"Mixed","Both","cave","13","m160cad.wav","None","730.18269334","156","417603.596674","409886.551368","410653.237213","411419.987367","412186.688672","412953.203235","413720.261635","414486.351085","418352.631821","419120.025365","419886.422752","420653.066241","406836.355244","407603.30265","408370.734221","409136.939612","419896.017942","Mapping"
"Mixed","Both","cave","13","m150cave.wav","None","728.357644286","156","417603.596674","409886.551368","410653.237213","411419.987367","412186.688672","412953.203235","413720.261635","414486.351085","418352.631821","419120.025365","419886.422752","420653.066241","421419.884722","407603.30265","408370.734221","409136.939612","420662.345147","Mapping"
"Mixed","Both","cave","13","m150romp.wav","space","532.099443488","156","417603.596674","409886.551368","410653.237213","411419.987367","412186.688672","412953.203235","413720.261635","414486.351085","418352.631821","419120.025365","419886.422752","420653.066241","421419.884722","422186.911276","408370.734221","409136.939612","421429.310485","Mapping"
"Mixed","Both","cave","13","m160lash.wav","None","722.582597751","156","417603.596674","409886.551368","410653.237213","411419.987367","412186.688672","412953.203235","413720.261635","414486.351085","418352.631821","419120.025365","419886.422752","420653.066241","421419.884722","422186.911276","422953.63515","409136.939612","422196.393","Mapping"
"Mixed","Both","cave","13","m160ball.wav","None","720.222060569","156","417603.596674","409886.551368","410653.237213","411419.987367","412186.688672","412953.203235","413720.261635","414486.351085","418352.631821","419120.025365","419886.422752","420653.066241","421419.884722","422186.911276","422953.63515","423702.767997","422963.072971","Mapping"
"Mixed","Both","cave","13","m160cave.wav","None","735.770071391","156","417603.596674","424469.786513","410653.237213","411419.987367","412186.688672","412953.203235","413720.261635","414486.351085","418352.631821","419120.025365","419886.422752","420653.066241","421419.884722","422186.911276","422953.63515","423702.767997","423711.923852","Mapping"
"Mixed","Both","cave","13","m150knife.wav","space","538.18366304","156","417603.596674","424469.786513","425236.044154","411419.987367","412186.688672","412953.203235","413720.261635","414486.351085","418352.631821","419120.025365","419886.422752","420653.066241","421419.884722","422186.911276","422953.63515","423702.767997","424479.217841","Mapping"
"Mixed","Both","cave","13","m160cave.wav","None","730.762702413","156","417603.596674","424469.786513","425236.044154","426002.63261","412186.688672","412953.203235","413720.261635","414486.351085","418352.631821","419120.025365","419886.422752","420653.066241","421419.884722","422186.911276","422953.63515","423702.767997","425245.081905","Mapping"
"Mixed","Both","cave","13","m150cling.wav","space","661.993925925","156","417603.596674","424469.786513","425236.044154","426002.63261","426769.703376","412953.203235","413720.261635","414486.351085","418352.631821","419120.025365","419886.422752","420653.066241","421419.884722","422186.911276","422953.63515","423702.767997","426011.357787","Mapping"
"Mixed","Both","cave","13","m150cave.wav","None","725.196348038","156","417603.596674","424469.786513","425236.044154","426002.63261","426769.703376","427536.665313","413720.261635","414486.351085","418352.631821","419120.025365","419886.422752","420653.066241","421419.884722","422186.911276","422953.63515","423702.767997","426778.811928","Mapping"
"Mixed","Both","cave","13","m160greet.wav","None","722.304341849","156","417603.596674","424469.786513","425236.044154","426002.63261","426769.703376","427536.665313","428302.795575","414486.351085","418352.631821","419120.025365","419886.422752","420653.066241","421419.884722","422186.911276","422953.63515","423702.767997","427546.248137","Mapping"
"Mixed","Both","cave","13","m150greet.wav","space","0.0213328748941","156","417603.596674","424469.786513","425236.044154","426002.63261","426769.703376","427536.665313","428302.795575","429052.530382","418352.631821","419120.025365","419886.422752","420653.066241","421419.884722","422186.911276","422953.63515","423702.767997","428311.918967","Mapping"
"Mixed","Both","ball","8","m150cling.wav","None","735.312186182","156","432186.554491","424469.786513","425236.044154","426002.63261","426769.703376","427536.665313","428302.795575","429052.530382","418352.631821","419120.025365","419886.422752","420653.066241","421419.884722","422186.911276","422953.63515","423702.767997","429061.268853","Mapping"
"Mixed","Both","ball","8","m160tile.wav","None","720.683655702","156","432186.554491","424469.786513","425236.044154","426002.63261","426769.703376","427536.665313","428302.795575","429052.530382","432936.189434","419120.025365","419886.422752","420653.066241","421419.884722","422186.911276","422953.63515","423702.767997","432196.062185","Mapping"
"Mixed","Both","ball","8","m160cave.wav","None","736.044308171","156","432186.554491","424469.786513","425236.044154","426002.63261","426769.703376","427536.665313","428302.795575","429052.530382","432936.189434","433702.892903","419886.422752","420653.066241","421419.884722","422186.911276","422953.63515","423702.767997","432945.242644","Mapping"
"Mixed","Both","ball","8","m160ball.wav","None","733.587308787","156","432186.554491","424469.786513","425236.044154","426002.63261","426769.703376","427536.665313","428302.795575","429052.530382","432936.189434","433702.892903","434469.572256","420653.066241","421419.884722","422186.911276","422953.63515","423702.767997","433712.17119","Mapping"
"Mixed","Both","ball","8","m150gnash.wav","space","458.462116774","156","432186.554491","424469.786513","425236.044154","426002.63261","426769.703376","427536.665313","428302.795575","429052.530382","432936.189434","433702.892903","434469.572256","435235.871326","421419.884722","422186.911276","422953.63515","423702.767997","434478.735531","Mapping"
"Mixed","Both","ball","8","m150ball.wav","None","729.176334571","156","432186.554491","424469.786513","425236.044154","426002.63261","426769.703376","427536.665313","428302.795575","429052.530382","432936.189434","433702.892903","434469.572256","435235.871326","436002.455144","422186.911276","422953.63515","423702.767997","435244.626802","Mapping"
"Mixed","Both","ball","8","m150tile.wav","space","486.006357241","156","432186.554491","424469.786513","425236.044154","426002.63261","426769.703376","427536.665313","428302.795575","429052.530382","432936.189434","433702.892903","434469.572256","435235.871326","436002.455144","436769.303615","422953.63515","423702.767997","436011.171046","Mapping"
"Mixed","Both","ball","8","m160greet.wav","None","723.753746133","156","432186.554491","424469.786513","425236.044154","426002.63261","426769.703376","427536.665313","428302.795575","429052.530382","432936.189434","433702.892903","434469.572256","435235.871326","436002.455144","436769.303615","437536.483829","423702.767997","436778.154626","Mapping"
"Mixed","Both","ball","8","m150ball.wav","None","720.49073223","156","432186.554491","424469.786513","425236.044154","426002.63261","426769.703376","427536.665313","428302.795575","429052.530382","432936.189434","433702.892903","434469.572256","435235.871326","436002.455144","436769.303615","437536.483829","438285.515266","437546.039136","Mapping"
"Mixed","Both","ball","8","m160romp.wav","space","554.928174242","156","432186.554491","439052.768445","425236.044154","426002.63261","426769.703376","427536.665313","428302.795575","429052.530382","432936.189434","433702.892903","434469.572256","435235.871326","436002.455144","436769.303615","437536.483829","438285.515266","438294.202724","Mapping"
"Mixed","Both","ball","8","m160ball.wav","None","732.331447303","156","432186.554491","439052.768445","439819.121002","426002.63261","426769.703376","427536.665313","428302.795575","429052.530382","432936.189434","433702.892903","434469.572256","435235.871326","436002.455144","436769.303615","437536.483829","438285.515266","439062.399809","Mapping"
"Mixed","Both","ball","8","m150gnash.wav","space","580.754648894","156","432186.554491","439052.768445","439819.121002","440586.083249","426769.703376","427536.665313","428302.795575","429052.530382","432936.189434","433702.892903","434469.572256","435235.871326","436002.455144","436769.303615","437536.483829","438285.515266","439828.357242","Mapping"
"Mixed","Both","ball","8","m150cad.wav","None","727.907796856","156","432186.554491","439052.768445","439819.121002","440586.083249","441352.713134","427536.665313","428302.795575","429052.530382","432936.189434","433702.892903","434469.572256","435235.871326","436002.455144","436769.303615","437536.483829","438285.515266","440595.113889","Mapping"
"Mixed","Both","ball","8","m160lash.wav","None","725.352171808","156","432186.554491","439052.768445","439819.121002","440586.083249","441352.713134","442119.900458","428302.795575","429052.530382","432936.189434","433702.892903","434469.572256","435235.871326","436002.455144","436769.303615","437536.483829","438285.515266","441361.89465","Mapping"
"Mixed","Both","ball","8","m160cad.wav","None","722.551680636","156","432186.554491","439052.768445","439819.121002","440586.083249","441352.713134","442119.900458","442886.312377","429052.530382","432936.189434","433702.892903","434469.572256","435235.871326","436002.455144","436769.303615","437536.483829","438285.515266","442129.344773","Mapping"
"Mixed","Both","ball","8","m150cad.wav","None","720.613164362","156","432186.554491","439052.768445","439819.121002","440586.083249","441352.713134","442119.900458","442886.312377","443635.757797","432936.189434","433702.892903","434469.572256","435235.871326","436002.455144","436769.303615","437536.483829","438285.515266","442895.744942","Mapping"
"Mixed","Both","cave","15","m150done.wav","None","736.172305886","156","446769.817152","439052.768445","439819.121002","440586.083249","441352.713134","442119.900458","442886.312377","443635.757797","432936.189434","433702.892903","434469.572256","435235.871326","436002.455144","436769.303615","437536.483829","438285.515266","443644.84007","Mapping"
"Mixed","Both","cave","15","m160cave.wav","None","719.916288275","156","446769.817152","439052.768445","439819.121002","440586.083249","441352.713134","442119.900458","442886.312377","443635.757797","447519.104585","433702.892903","434469.572256","435235.871326","436002.455144","436769.303615","437536.483829","438285.515266","446779.550543","Mapping"
"Mixed","Both","cave","15","m160jaw.wav","space","520.819259342","156","446769.817152","439052.768445","439819.121002","440586.083249","441352.713134","442119.900458","442886.312377","443635.757797","447519.104585","448285.998504","434469.572256","435235.871326","436002.455144","436769.303615","437536.483829","438285.515266","447528.144809","Mapping"
"Mixed","Both","cave","15","m150cave.wav","None","732.540138997","156","446769.817152","439052.768445","439819.121002","440586.083249","441352.713134","442119.900458","442886.312377","443635.757797","447519.104585","448285.998504","449052.535329","435235.871326","436002.455144","436769.303615","437536.483829","438285.515266","448294.941648","Mapping"
"Mixed","Both","cave","15","m160gnash.wav","space","499.272360932","156","446769.817152","439052.768445","439819.121002","440586.083249","441352.713134","442119.900458","442886.312377","443635.757797","447519.104585","448285.998504","449052.535329","449819.29754","436002.455144","436769.303615","437536.483829","438285.515266","449061.669232","Mapping"
"Mixed","Both","cave","15","m150greet.wav","None","726.460248232","156","446769.817152","439052.768445","439819.121002","440586.083249","441352.713134","442119.900458","442886.312377","443635.757797","447519.104585","448285.998504","449052.535329","449819.29754","450586.328114","436769.303615","437536.483829","438285.515266","449828.818838","Mapping"
"Mixed","Both","cave","15","m160done.wav","None","724.010359962","156","446769.817152","439052.768445","439819.121002","440586.083249","441352.713134","442119.900458","442886.312377","443635.757797","447519.104585","448285.998504","449052.535329","449819.29754","450586.328114","451352.954907","437536.483829","438285.515266","450595.865798","Mapping"
"Mixed","Both","cave","15","m160cave.wav","None","721.808118746","156","446769.817152","439052.768445","439819.121002","440586.083249","441352.713134","442119.900458","442886.312377","443635.757797","447519.104585","448285.998504","449052.535329","449819.29754","450586.328114","451352.954907","452118.929036","438285.515266","451362.559064","Mapping"
"Mixed","Both","cave","15","m160greet.wav","space","529.121487401","156","446769.817152","439052.768445","439819.121002","440586.083249","441352.713134","442119.900458","442886.312377","443635.757797","447519.104585","448285.998504","449052.535329","449819.29754","450586.328114","451352.954907","452118.929036","452869.201805","452127.784375","Mapping"
"Mixed","Both","cave","15","m150cave.wav","None","734.068691265","156","446769.817152","453635.821487","439819.121002","440586.083249","441352.713134","442119.900458","442886.312377","443635.757797","447519.104585","448285.998504","449052.535329","449819.29754","450586.328114","451352.954907","452118.929036","452869.201805","452878.564187","Mapping"
"Mixed","Both","cave","15","m160depth.wav","None","732.27826925","156","446769.817152","453635.821487","454402.461575","440586.083249","441352.713134","442119.900458","442886.312377","443635.757797","447519.104585","448285.998504","449052.535329","449819.29754","450586.328114","451352.954907","452118.929036","452869.201805","453644.883045","Mapping"
"Mixed","Both","cave","15","m150gnash.wav","space","93.0098104291","156","446769.817152","453635.821487","454402.461575","455169.386721","441352.713134","442119.900458","442886.312377","443635.757797","447519.104585","448285.998504","449052.535329","449819.29754","450586.328114","451352.954907","452118.929036","452869.201805","454411.840344","Mapping"
"Mixed","Both","cave","15","m150reek.wav","None","725.972372573","156","446769.817152","453635.821487","454402.461575","455169.386721","455935.770814","442119.900458","442886.312377","443635.757797","447519.104585","448285.998504","449052.535329","449819.29754","450586.328114","451352.954907","452118.929036","452869.201805","455179.177","Mapping"
"Mixed","Both","cave","15","m150bluff.wav","None","730.444872286","156","446769.817152","453635.821487","454402.461575","455169.386721","455935.770814","456702.08256","442886.312377","443635.757797","447519.104585","448285.998504","449052.535329","449819.29754","450586.328114","451352.954907","452118.929036","452869.201805","455944.797434","Mapping"
"Mixed","Both","cave","15","m160depth.wav","None","729.358128738","156","446769.817152","453635.821487","454402.461575","455169.386721","455935.770814","456702.08256","457468.746763","443635.757797","447519.104585","448285.998504","449052.535329","449819.29754","450586.328114","451352.954907","452118.929036","452869.201805","456710.753013","Mapping"
"Mixed","Both","cave","15","m150reek.wav","None","727.377565112","156","446769.817152","453635.821487","454402.461575","455169.386721","455935.770814","456702.08256","457468.746763","458236.059303","447519.104585","448285.998504","449052.535329","449819.29754","450586.328114","451352.954907","452118.929036","452869.201805","457477.438859","Mapping"
"Mixed","Both","tile","29","m150reek.wav","None","723.973258864","156","461352.677579","453635.821487","454402.461575","455169.386721","455935.770814","456702.08256","457468.746763","458236.059303","447519.104585","448285.998504","449052.535329","449819.29754","450586.328114","451352.954907","452118.929036","452869.201805","458245.231235","Mapping"
"Mixed","Both","tile","29","m150jaw.wav","None","719.970702659","156","461352.677579","453635.821487","454402.461575","455169.386721","455935.770814","456702.08256","457468.746763","458236.059303","462102.348387","448285.998504","449052.535329","449819.29754","450586.328114","451352.954907","452118.929036","452869.201805","461362.257311","Mapping"
"Mixed","Both","tile","29","m150tile.wav","None","736.12469295","156","461352.677579","453635.821487","454402.461575","455169.386721","455935.770814","456702.08256","457468.746763","458236.059303","462102.348387","462868.80699","449052.535329","449819.29754","450586.328114","451352.954907","452118.929036","452869.201805","462111.447973","Mapping"
"Mixed","Both","tile","29","m160priest.wav","space","499.26803261","156","461352.677579","453635.821487","454402.461575","455169.386721","455935.770814","456702.08256","457468.746763","458236.059303","462102.348387","462868.80699","463635.566419","449819.29754","450586.328114","451352.954907","452118.929036","452869.201805","462877.43014","Mapping"
"Mixed","Both","tile","29","m160tile.wav","None","731.266036164","156","461352.677579","453635.821487","454402.461575","455169.386721","455935.770814","456702.08256","457468.746763","458236.059303","462102.348387","462868.80699","463635.566419","464401.946183","450586.328114","451352.954907","452118.929036","452869.201805","463644.693521","Mapping"
"Mixed","Both","tile","29","m160depth.wav","space","558.045567945","156","461352.677579","453635.821487","454402.461575","455169.386721","455935.770814","456702.08256","457468.746763","458236.059303","462102.348387","462868.80699","463635.566419","464401.946183","465168.666966","451352.954907","452118.929036","452869.201805","464410.633641","Mapping"
"Mixed","Both","tile","29","m150knife.wav","None","726.711605676","156","461352.677579","453635.821487","454402.461575","455169.386721","455935.770814","456702.08256","457468.746763","458236.059303","462102.348387","462868.80699","463635.566419","464401.946183","465168.666966","465935.549755","452118.929036","452869.201805","465177.67009","Mapping"
"Mixed","Both","tile","29","m160jolt.wav","None","724.761650898","156","461352.677579","453635.821487","454402.461575","455169.386721","455935.770814","456702.08256","457468.746763","458236.059303","462102.348387","462868.80699","463635.566419","464401.946183","465168.666966","465935.549755","466702.120588","452869.201805","465944.41375","Mapping"
"Mixed","Both","tile","29","m160dime.wav","None","722.841375973","156","461352.677579","453635.821487","454402.461575","455169.386721","455935.770814","456702.08256","457468.746763","458236.059303","462102.348387","462868.80699","463635.566419","464401.946183","465168.666966","465935.549755","466702.120588","467469.539484","466711.103615","Mapping"
"Mixed","Both","tile","29","m160tile.wav","None","719.439852517","156","461352.677579","468218.54526","454402.461575","455169.386721","455935.770814","456702.08256","457468.746763","458236.059303","462102.348387","462868.80699","463635.566419","464401.946183","465168.666966","465935.549755","466702.120588","467469.539484","467479.351713","Mapping"
"Mixed","Both","tile","29","m150greet.wav","space","517.157102935","156","461352.677579","468218.54526","468985.241308","455169.386721","455935.770814","456702.08256","457468.746763","458236.059303","462102.348387","462868.80699","463635.566419","464401.946183","465168.666966","465935.549755","466702.120588","467469.539484","468227.446975","Mapping"
"Mixed","Both","tile","29","m160romp.wav","None","733.211045153","156","461352.677579","468218.54526","468985.241308","469752.151614","455935.770814","456702.08256","457468.746763","458236.059303","462102.348387","462868.80699","463635.566419","464401.946183","465168.666966","465935.549755","466702.120588","467469.539484","468994.012861","Mapping"
"Mixed","Both","tile","29","m150ball.wav","None","730.547518004","156","461352.677579","468218.54526","468985.241308","469752.151614","470518.971022","456702.08256","457468.746763","458236.059303","462102.348387","462868.80699","463635.566419","464401.946183","465168.666966","465935.549755","466702.120588","467469.539484","469761.57985","Mapping"
"Mixed","Both","tile","29","m160greet.wav","None","728.751221672","156","461352.677579","468218.54526","468985.241308","469752.151614","470518.971022","471285.194654","457468.746763","458236.059303","462102.348387","462868.80699","463635.566419","464401.946183","465168.666966","465935.549755","466702.120588","467469.539484","470528.147901","Mapping"
"Mixed","Both","tile","29","m150tile.wav","None","727.709617","156","461352.677579","468218.54526","468985.241308","469752.151614","470518.971022","471285.194654","472051.832887","458236.059303","462102.348387","462868.80699","463635.566419","464401.946183","465168.666966","465935.549755","466702.120588","467469.539484","471294.13316","Mapping"
"Mixed","Both","tile","29","m150jaw.wav","space","612.017933279","156","461352.677579","468218.54526","468985.241308","469752.151614","470518.971022","471285.194654","472051.832887","472818.600354","462102.348387","462868.80699","463635.566419","464401.946183","465168.666966","465935.549755","466702.120588","467469.539484","472060.529929","Mapping"
"Mixed","Both","done","42","m150lash.wav","None","722.843230702","156","475935.889536","468218.54526","468985.241308","469752.151614","470518.971022","471285.194654","472051.832887","472818.600354","462102.348387","462868.80699","463635.566419","464401.946183","465168.666966","465935.549755","466702.120588","467469.539484","472827.537933","Mapping"
"Mixed","Both","done","42","m150jaw.wav","None","720.613474026","156","475935.889536","468218.54526","468985.241308","469752.151614","470518.971022","471285.194654","472051.832887","472818.600354","476685.555088","462868.80699","463635.566419","464401.946183","465168.666966","465935.549755","466702.120588","467469.539484","475945.378989","Mapping"
"Mixed","Both","done","42","m150done.wav","None","735.84921984","156","475935.889536","468218.54526","468985.241308","469752.151614","470518.971022","471285.194654","472051.832887","472818.600354","476685.555088","477452.008436","463635.566419","464401.946183","465168.666966","465935.549755","466702.120588","467469.539484","476694.887481","Mapping"
"Mixed","Both","done","42","m150gnash.wav","space","467.240780592","156","475935.889536","468218.54526","468985.241308","469752.151614","470518.971022","471285.194654","472051.832887","472818.600354","476685.555088","477452.008436","478218.818569","464401.946183","465168.666966","465935.549755","466702.120588","467469.539484","477461.165837","Mapping"
"Mixed","Both","done","42","m160gnash.wav","None","731.148859486","156","475935.889536","468218.54526","468985.241308","469752.151614","470518.971022","471285.194654","472051.832887","472818.600354","476685.555088","477452.008436","478218.818569","478985.357248","465168.666966","465935.549755","466702.120588","467469.539484","478228.074596","Mapping"
"Mixed","Both","done","42","m150bluff.wav","None","729.630201124","156","475935.889536","468218.54526","468985.241308","469752.151614","470518.971022","471285.194654","472051.832887","472818.600354","476685.555088","477452.008436","478218.818569","478985.357248","479751.955907","465935.549755","466702.120588","467469.539484","478994.380468","Mapping"
"Mixed","Both","done","42","m150done.wav","None","727.964684833","156","475935.889536","468218.54526","468985.241308","469752.151614","470518.971022","471285.194654","472051.832887","472818.600354","476685.555088","477452.008436","478218.818569","478985.357248","479751.955907","480518.767277","466702.120588","467469.539484","479761.092903","Mapping"
"Mixed","Both","done","42","m160gnash.wav","space","424.411945045","156","475935.889536","468218.54526","468985.241308","469752.151614","470518.971022","471285.194654","472051.832887","472818.600354","476685.555088","477452.008436","478218.818569","478985.357248","479751.955907","480518.767277","481285.430553","467469.539484","480527.963324","Mapping"
"Mixed","Both","done","42","m150depth.wav","None","723.733958788","156","475935.889536","468218.54526","468985.241308","469752.151614","470518.971022","471285.194654","472051.832887","472818.600354","476685.555088","477452.008436","478218.818569","478985.357248","479751.955907","480518.767277","481285.430553","482051.803207","481294.180464","Mapping"
"Mixed","Both","done","42","m160done.wav","None","721.938590053","156","475935.889536","482819.061022","468985.241308","469752.151614","470518.971022","471285.194654","472051.832887","472818.600354","476685.555088","477452.008436","478218.818569","478985.357248","479751.955907","480518.767277","481285.430553","482051.803207","482060.781596","Mapping"
"Mixed","Both","done","42","m160jolt.wav","space","459.590598941","156","475935.889536","482819.061022","483568.652064","469752.151614","470518.971022","471285.194654","472051.832887","472818.600354","476685.555088","477452.008436","478218.818569","478985.357248","479751.955907","480518.767277","481285.430553","482051.803207","482828.745873","Mapping"
"Mixed","Both","done","42","m150jaw.wav","None","733.277826104","156","475935.889536","482819.061022","483568.652064","484334.959481","470518.971022","471285.194654","472051.832887","472818.600354","476685.555088","477452.008436","478218.818569","478985.357248","479751.955907","480518.767277","481285.430553","482051.803207","483577.794624","Mapping"
"Mixed","Both","done","42","m160gnash.wav","None","731.951473281","156","475935.889536","482819.061022","483568.652064","484334.959481","485101.574835","471285.194654","472051.832887","472818.600354","476685.555088","477452.008436","478218.818569","478985.357248","479751.955907","480518.767277","481285.430553","482051.803207","484343.801217","Mapping"
"Mixed","Both","done","42","m160jaw.wav","None","730.258441065","156","475935.889536","482819.061022","483568.652064","484334.959481","485101.574835","485868.77731","472051.832887","472818.600354","476685.555088","477452.008436","478218.818569","478985.357248","479751.955907","480518.767277","481285.430553","482051.803207","485110.339277","Mapping"
"Mixed","Both","done","42","m160done.wav","None","727.236273233","156","475935.889536","482819.061022","483568.652064","484334.959481","485101.574835","485868.77731","486634.926122","472818.600354","476685.555088","477452.008436","478218.818569","478985.357248","479751.955907","480518.767277","481285.430553","482051.803207","485878.184832","Mapping"
"Mixed","Both","done","42","m160cave.wav","space","556.446214672","156","475935.889536","482819.061022","483568.652064","484334.959481","485101.574835","485868.77731","486634.926122","487402.202179","476685.555088","477452.008436","478218.818569","478985.357248","479751.955907","480518.767277","481285.430553","482051.803207","486643.827836","Mapping"
"Mixed","Both","ball","9","m150knife.wav","None","722.372669261","156","490518.850136","482819.061022","483568.652064","484334.959481","485101.574835","485868.77731","486634.926122","487402.202179","476685.555088","477452.008436","478218.818569","478985.357248","479751.955907","480518.767277","481285.430553","482051.803207","487411.630107","Mapping"
"Mixed","Both","ball","9","m160ball.wav","None","720.5989426","156","490518.850136","482819.061022","483568.652064","484334.959481","485101.574835","485868.77731","486634.926122","487402.202179","491268.059039","477452.008436","478218.818569","478985.357248","479751.955907","480518.767277","481285.430553","482051.803207","490528.137389","Mapping"
"Mixed","Both","ball","9","m160reek.wav","space","619.415829889","156","490518.850136","482819.061022","483568.652064","484334.959481","485101.574835","485868.77731","486634.926122","487402.202179","491268.059039","492035.19535","478218.818569","478985.357248","479751.955907","480518.767277","481285.430553","482051.803207","491276.746805","Mapping"
"Mixed","Both","ball","9","m160reek.wav","None","733.088921756","156","490518.850136","482819.061022","483568.652064","484334.959481","485101.574835","485868.77731","486634.926122","487402.202179","491268.059039","492035.19535","492801.713933","478985.357248","479751.955907","480518.767277","481285.430553","482051.803207","492044.217024","Mapping"
"Mixed","Both","ball","9","m150lash.wav","None","731.025190558","156","490518.850136","482819.061022","483568.652064","484334.959481","485101.574835","485868.77731","486634.926122","487402.202179","491268.059039","492035.19535","492801.713933","493568.247974","479751.955907","480518.767277","481285.430553","482051.803207","492811.154227","Mapping"
"Mixed","Both","ball","9","m160tile.wav","None","730.241127312","156","490518.850136","482819.061022","483568.652064","484334.959481","485101.574835","485868.77731","486634.926122","487402.202179","491268.059039","492035.19535","492801.713933","493568.247974","494335.113449","480518.767277","481285.430553","482051.803207","493576.914099","Mapping"
"Mixed","Both","ball","9","m160ball.wav","None","728.006114252","156","490518.850136","482819.061022","483568.652064","484334.959481","485101.574835","485868.77731","486634.926122","487402.202179","491268.059039","492035.19535","492801.713933","493568.247974","494335.113449","495101.424577","481285.430553","482051.803207","494344.094931","Mapping"
"Mixed","Both","ball","9","m150cad.wav","space","506.015737541","156","490518.850136","482819.061022","483568.652064","484334.959481","485101.574835","485868.77731","486634.926122","487402.202179","491268.059039","492035.19535","492801.713933","493568.247974","494335.113449","495101.424577","495868.768035","482051.803207","495110.104615","Mapping"
"Mixed","Both","ball","9","m160park.wav","None","721.522134263","156","490518.850136","482819.061022","483568.652064","484334.959481","485101.574835","485868.77731","486634.926122","487402.202179","491268.059039","492035.19535","492801.713933","493568.247974","494335.113449","495101.424577","495868.768035","496635.536739","495879.061956","Mapping"
"Mixed","Both","ball","9","m150ball.wav","None","720.517011825","156","490518.850136","497385.204146","483568.652064","484334.959481","485101.574835","485868.77731","486634.926122","487402.202179","491268.059039","492035.19535","492801.713933","493568.247974","494335.113449","495101.424577","495868.768035","496635.536739","496644.946116","Mapping"
"Mixed","Both","ball","9","m160priest.wav","space","597.899538931","156","490518.850136","497385.204146","498151.625339","484334.959481","485101.574835","485868.77731","486634.926122","487402.202179","491268.059039","492035.19535","492801.713933","493568.247974","494335.113449","495101.424577","495868.768035","496635.536739","497394.182845","Mapping"
"Mixed","Both","ball","9","m150depth.wav","None","733.164359815","156","490518.850136","497385.204146","498151.625339","498918.004176","485101.574835","485868.77731","486634.926122","487402.202179","491268.059039","492035.19535","492801.713933","493568.247974","494335.113449","495101.424577","495868.768035","496635.536739","498160.770373","Mapping"
"Mixed","Both","ball","9","m160tile.wav","None","732.149035204","156","490518.850136","497385.204146","498151.625339","498918.004176","499684.998267","485868.77731","486634.926122","487402.202179","491268.059039","492035.19535","492801.713933","493568.247974","494335.113449","495101.424577","495868.768035","496635.536739","498926.729043","Mapping"
"Mixed","Both","ball","9","m150romp.wav","None","729.307115078","156","490518.850136","497385.204146","498151.625339","498918.004176","499684.998267","500451.331655","486634.926122","487402.202179","491268.059039","492035.19535","492801.713933","493568.247974","494335.113449","495101.424577","495868.768035","496635.536739","499694.30469","Mapping"
"Mixed","Both","ball","9","m150ball.wav","None","728.514085989","156","490518.850136","497385.204146","498151.625339","498918.004176","499684.998267","500451.331655","501217.926913","487402.202179","491268.059039","492035.19535","492801.713933","493568.247974","494335.113449","495101.424577","495868.768035","496635.536739","500460.00922","Mapping"
"Mixed","Both","ball","9","m150reek.wav","space","493.271308951","156","490518.850136","497385.204146","498151.625339","498918.004176","499684.998267","500451.331655","501217.926913","501985.503178","491268.059039","492035.19535","492801.713933","493568.247974","494335.113449","495101.424577","495868.768035","496635.536739","501226.74948","Mapping"
"Mixed","Both","ball","7","m150lash.wav","None","722.391838208","156","505102.078788","497385.204146","498151.625339","498918.004176","499684.998267","500451.331655","501217.926913","501985.503178","491268.059039","492035.19535","492801.713933","493568.247974","494335.113449","495101.424577","495868.768035","496635.536739","501995.084764","Mapping"
"Mixed","Both","ball","7","m150ball.wav","None","720.329034608","156","505102.078788","497385.204146","498151.625339","498918.004176","499684.998267","500451.331655","501217.926913","501985.503178","505868.940553","492035.19535","492801.713933","493568.247974","494335.113449","495101.424577","495868.768035","496635.536739","505111.91637","Mapping"
"Mixed","Both","ball","7","m150jolt.wav","space","577.696616296","156","505102.078788","497385.204146","498151.625339","498918.004176","499684.998267","500451.331655","501217.926913","501985.503178","505868.940553","506618.476252","492801.713933","493568.247974","494335.113449","495101.424577","495868.768035","496635.536739","505878.210493","Mapping"
"Mixed","Both","ball","7","m160gnash.wav","None","732.83138033","156","505102.078788","497385.204146","498151.625339","498918.004176","499684.998267","500451.331655","501217.926913","501985.503178","505868.940553","506618.476252","507384.856635","493568.247974","494335.113449","495101.424577","495868.768035","496635.536739","506627.913455","Mapping"
"Mixed","Both","ball","7","m160priest.wav","None","731.761640869","156","505102.078788","497385.204146","498151.625339","498918.004176","499684.998267","500451.331655","501217.926913","501985.503178","505868.940553","506618.476252","507384.856635","508151.506616","494335.113449","495101.424577","495868.768035","496635.536739","507393.843991","Mapping"
"Mixed","Both","ball","7","m160reek.wav","None","729.990697","156","505102.078788","497385.204146","498151.625339","498918.004176","499684.998267","500451.331655","501217.926913","501985.503178","505868.940553","506618.476252","507384.856635","508151.506616","508917.809087","495101.424577","495868.768035","496635.536739","508160.600328","Mapping"
"Mixed","Both","ball","7","m150jaw.wav","None","729.022057261","156","505102.078788","497385.204146","498151.625339","498918.004176","499684.998267","500451.331655","501217.926913","501985.503178","505868.940553","506618.476252","507384.856635","508151.506616","508917.809087","509684.658486","495868.768035","496635.536739","508926.627635","Mapping"
"Mixed","Both","ball","7","m150ball.wav","None","730.418283958","156","505102.078788","497385.204146","498151.625339","498918.004176","499684.998267","500451.331655","501217.926913","501985.503178","505868.940553","506618.476252","507384.856635","508151.506616","508917.809087","509684.658486","510451.137495","496635.536739","509693.466212","Mapping"
"Mixed","Both","ball","7","m160priest.wav","space","444.002395496","156","505102.078788","497385.204146","498151.625339","498918.004176","499684.998267","500451.331655","501217.926913","501985.503178","505868.940553","506618.476252","507384.856635","508151.506616","508917.809087","509684.658486","510451.137495","511217.742955","510459.849068","Mapping"
"Mixed","Both","ball","7","m150jaw.wav","None","731.611691881","156","505102.078788","511984.75436","498151.625339","498918.004176","499684.998267","500451.331655","501217.926913","501985.503178","505868.940553","506618.476252","507384.856635","508151.506616","508917.809087","509684.658486","510451.137495","511217.742955","511220.895594","Mapping"
"Mixed","Both","ball","7","m160reek.wav","None","723.74663502","156","505102.078788","511984.75436","512751.678579","498918.004176","499684.998267","500451.331655","501217.926913","501985.503178","505868.940553","506618.476252","507384.856635","508151.506616","508917.809087","509684.658486","510451.137495","511217.742955","511993.785619","Mapping"
"Mixed","Both","ball","7","m160ball.wav","None","721.429381985","156","505102.078788","511984.75436","512751.678579","513518.426259","499684.998267","500451.331655","501217.926913","501985.503178","505868.940553","506618.476252","507384.856635","508151.506616","508917.809087","509684.658486","510451.137495","511217.742955","512761.21348","Mapping"
"Mixed","Both","ball","7","m150gnash.wav","space","503.484227229","156","505102.078788","511984.75436","512751.678579","513518.426259","514267.992876","500451.331655","501217.926913","501985.503178","505868.940553","506618.476252","507384.856635","508151.506616","508917.809087","509684.658486","510451.137495","511217.742955","513528.295377","Mapping"
"Mixed","Both","ball","7","m150priest.wav","None","734.004383441","156","505102.078788","511984.75436","512751.678579","513518.426259","514267.992876","515034.432929","501217.926913","501985.503178","505868.940553","506618.476252","507384.856635","508151.506616","508917.809087","509684.658486","510451.137495","511217.742955","514277.083186","Mapping"
"Mixed","Both","ball","7","m160ball.wav","None","732.811902184","156","505102.078788","511984.75436","512751.678579","513518.426259","514267.992876","515034.432929","515801.355601","501985.503178","505868.940553","506618.476252","507384.856635","508151.506616","508917.809087","509684.658486","510451.137495","511217.742955","515043.374527","Mapping"
"Mixed","Both","ball","7","m160cling.wav","space","677.438363899","156","505102.078788","511984.75436","512751.678579","513518.426259","514267.992876","515034.432929","515801.355601","516568.12987","505868.940553","506618.476252","507384.856635","508151.506616","508917.809087","509684.658486","510451.137495","511217.742955","515810.324097","Mapping"
"Mixed","Both","cave","18","m150cad.wav","None","727.392714936","156","519701.616945","511984.75436","512751.678579","513518.426259","514267.992876","515034.432929","515801.355601","516568.12987","505868.940553","506618.476252","507384.856635","508151.506616","508917.809087","509684.658486","510451.137495","511217.742955","516577.278305","Mapping"
"Mixed","Both","cave","18","m160knife.wav","None","720.790630206","156","519701.616945","511984.75436","512751.678579","513518.426259","514267.992876","515034.432929","515801.355601","516568.12987","520467.622301","506618.476252","507384.856635","508151.506616","508917.809087","509684.658486","510451.137495","511217.742955","519711.236251","Mapping"
"Mixed","Both","cave","18","m150bluff.wav","None","726.459629834","156","519701.616945","511984.75436","512751.678579","513518.426259","514267.992876","515034.432929","515801.355601","516568.12987","520467.622301","521235.009969","507384.856635","508151.506616","508917.809087","509684.658486","510451.137495","511217.742955","520476.3988","Mapping"
"Mixed","Both","cave","18","m160cad.wav","None","723.848971538","156","519701.616945","511984.75436","512751.678579","513518.426259","514267.992876","515034.432929","515801.355601","516568.12987","520467.622301","521235.009969","522001.090763","508151.506616","508917.809087","509684.658486","510451.137495","511217.742955","521243.944766","Mapping"
"Mixed","Both","cave","18","m150cave.wav","None","722.756662406","156","519701.616945","511984.75436","512751.678579","513518.426259","514267.992876","515034.432929","515801.355601","516568.12987","520467.622301","521235.009969","522001.090763","522768.179771","508917.809087","509684.658486","510451.137495","511217.742955","522010.041636","Mapping"
"Mixed","Both","cave","18","m160greet.wav","space","541.625997517","156","519701.616945","511984.75436","512751.678579","513518.426259","514267.992876","515034.432929","515801.355601","516568.12987","520467.622301","521235.009969","522001.090763","522768.179771","523517.874076","509684.658486","510451.137495","511217.742955","522778.01457","Mapping"
"Mixed","Both","cave","18","m150cave.wav","None","734.236572403","156","519701.616945","511984.75436","512751.678579","513518.426259","514267.992876","515034.432929","515801.355601","516568.12987","520467.622301","521235.009969","522001.090763","522768.179771","523517.874076","524284.540443","510451.137495","511217.742955","523527.005197","Mapping"
"Mixed","Both","cave","18","m150priest.wav","None","732.648040634","156","519701.616945","511984.75436","512751.678579","513518.426259","514267.992876","515034.432929","515801.355601","516568.12987","520467.622301","521235.009969","522001.090763","522768.179771","523517.874076","524284.540443","525051.189188","511217.742955","524293.63601","Mapping"
"Mixed","Both","cave","18","m150dime.wav","space","11.0198603943","156","519701.616945","511984.75436","512751.678579","513518.426259","514267.992876","515034.432929","515801.355601","516568.12987","520467.622301","521235.009969","522001.090763","522768.179771","523517.874076","524284.540443","525051.189188","525817.975206","525060.583107","Mapping"
"Mixed","Both","cave","18","m160cave.wav","None","727.768360171","156","519701.616945","526584.258818","512751.678579","513518.426259","514267.992876","515034.432929","515801.355601","516568.12987","520467.622301","521235.009969","522001.090763","522768.179771","523517.874076","524284.540443","525051.189188","525817.975206","525827.150539","Mapping"
"Mixed","Both","cave","18","m160depth.wav","space","715.723281261","156","519701.616945","526584.258818","527351.017628","513518.426259","514267.992876","515034.432929","515801.355601","516568.12987","520467.622301","521235.009969","522001.090763","522768.179771","523517.874076","524284.540443","525051.189188","525817.975206","526587.85141","Mapping"
"Mixed","Both","cave","18","m160cave.wav","None","723.639042582","156","519701.616945","526584.258818","527351.017628","528118.204953","514267.992876","515034.432929","515801.355601","516568.12987","520467.622301","521235.009969","522001.090763","522768.179771","523517.874076","524284.540443","525051.189188","525817.975206","527360.011167","Mapping"
"Mixed","Both","cave","18","m160ball.wav","space","671.87293712","156","519701.616945","526584.258818","527351.017628","528118.204953","528867.623166","515034.432929","515801.355601","516568.12987","520467.622301","521235.009969","522001.090763","522768.179771","523517.874076","524284.540443","525051.189188","525817.975206","528127.646175","Mapping"
"Mixed","Both","cave","18","m150jolt.wav","None","735.3421757","156","519701.616945","526584.258818","527351.017628","528118.204953","528867.623166","529634.463908","515801.355601","516568.12987","520467.622301","521235.009969","522001.090763","522768.179771","523517.874076","524284.540443","525051.189188","525817.975206","528876.802828","Mapping"
"Mixed","Both","cave","18","m150knife.wav","None","733.732001856","156","519701.616945","526584.258818","527351.017628","528118.204953","528867.623166","529634.463908","530400.829759","516568.12987","520467.622301","521235.009969","522001.090763","522768.179771","523517.874076","524284.540443","525051.189188","525817.975206","529643.409834","Mapping"
"Mixed","Both","cave","18","m160greet.wav","None","732.612176333","156","519701.616945","526584.258818","527351.017628","528118.204953","528867.623166","529634.463908","530400.829759","531167.800044","520467.622301","521235.009969","522001.090763","522768.179771","523517.874076","524284.540443","525051.189188","525817.975206","530409.71818","Mapping"
"Mixed","Both","tile","32","m160done.wav","None","730.310072657","156","534301.422228","526584.258818","527351.017628","528118.204953","528867.623166","529634.463908","530400.829759","531167.800044","520467.622301","521235.009969","522001.090763","522768.179771","523517.874076","524284.540443","525051.189188","525817.975206","531177.001657","Mapping"
"Mixed","Both","tile","32","m160done.wav","None","719.909486827","156","534301.422228","526584.258818","527351.017628","528118.204953","528867.623166","529634.463908","530400.829759","531167.800044","535050.615054","521235.009969","522001.090763","522768.179771","523517.874076","524284.540443","525051.189188","525817.975206","534311.111406","Mapping"
"Mixed","Both","tile","32","m160tile.wav","None","737.002745271","156","534301.422228","526584.258818","527351.017628","528118.204953","528867.623166","529634.463908","530400.829759","531167.800044","535050.615054","535817.298117","522001.090763","522768.179771","523517.874076","524284.540443","525051.189188","525817.975206","535059.365892","Mapping"
"Mixed","Both","tile","32","m150cling.wav","space","629.369969945","156","534301.422228","526584.258818","527351.017628","528118.204953","528867.623166","529634.463908","530400.829759","531167.800044","535050.615054","535817.298117","536584.427317","522768.179771","523517.874076","524284.540443","525051.189188","525817.975206","535826.000415","Mapping"
"Mixed","Both","tile","32","m160priest.wav","None","731.708154548","156","534301.422228","526584.258818","527351.017628","528118.204953","528867.623166","529634.463908","530400.829759","531167.800044","535050.615054","535817.298117","536584.427317","537351.004025","523517.874076","524284.540443","525051.189188","525817.975206","536593.384992","Mapping"
"Mixed","Both","tile","32","m150jolt.wav","None","730.109419208","156","534301.422228","526584.258818","527351.017628","528118.204953","528867.623166","529634.463908","530400.829759","531167.800044","535050.615054","535817.298117","536584.427317","537351.004025","538117.342978","524284.540443","525051.189188","525817.975206","537360.202546","Mapping"
"Mixed","Both","tile","32","m150cad.wav","None","729.487053584","156","534301.422228","526584.258818","527351.017628","528118.204953","528867.623166","529634.463908","530400.829759","531167.800044","535050.615054","535817.298117","536584.427317","537351.004025","538117.342978","538883.994814","525051.189188","525817.975206","538126.20821","Mapping"
"Mixed","Both","tile","32","m160gnash.wav","None","728.023737203","156","534301.422228","526584.258818","527351.017628","528118.204953","528867.623166","529634.463908","530400.829759","531167.800044","535050.615054","535817.298117","536584.427317","537351.004025","538117.342978","538883.994814","539650.980867","525817.975206","538892.88509","Mapping"
"Mixed","Both","tile","32","m150done.wav","None","725.880548358","156","534301.422228","526584.258818","527351.017628","528118.204953","528867.623166","529634.463908","530400.829759","531167.800044","535050.615054","535817.298117","536584.427317","537351.004025","538117.342978","538883.994814","539650.980867","540418.214568","539660.022019","Mapping"
"Mixed","Both","tile","32","m150tile.wav","None","723.791155964","156","534301.422228","541184.135519","527351.017628","528118.204953","528867.623166","529634.463908","530400.829759","531167.800044","535050.615054","535817.298117","536584.427317","537351.004025","538117.342978","538883.994814","539650.980867","540418.214568","540427.473687","Mapping"
"Mixed","Both","tile","32","m160bluff.wav","space","510.504932143","156","534301.422228","541184.135519","541951.517932","528118.204953","528867.623166","529634.463908","530400.829759","531167.800044","535050.615054","535817.298117","536584.427317","537351.004025","538117.342978","538883.994814","539650.980867","540418.214568","541192.814011","Mapping"
"Mixed","Both","tile","32","m150tile.wav","None","725.147807971","156","534301.422228","541184.135519","541951.517932","542700.914504","528867.623166","529634.463908","530400.829759","531167.800044","535050.615054","535817.298117","536584.427317","537351.004025","538117.342978","538883.994814","539650.980867","540418.214568","541954.842781","Mapping"
"Mixed","Both","tile","32","m160jaw.wav","space","561.013630591","156","534301.422228","541184.135519","541951.517932","542700.914504","543467.631266","529634.463908","530400.829759","531167.800044","535050.615054","535817.298117","536584.427317","537351.004025","538117.342978","538883.994814","539650.980867","540418.214568","542710.259263","Mapping"
"Mixed","Both","tile","32","m150jolt.wav","None","732.10791545","156","534301.422228","541184.135519","541951.517932","542700.914504","543467.631266","544234.170255","530400.829759","531167.800044","535050.615054","535817.298117","536584.427317","537351.004025","538117.342978","538883.994814","539650.980867","540418.214568","543476.707973","Mapping"
"Mixed","Both","tile","32","m160tile.wav","None","730.923163239","156","534301.422228","541184.135519","541951.517932","542700.914504","543467.631266","544234.170255","545000.819309","531167.800044","535050.615054","535817.298117","536584.427317","537351.004025","538117.342978","538883.994814","539650.980867","540418.214568","544243.063622","Mapping"
"Mixed","Both","tile","32","m150priest.wav","space","645.028665196","156","534301.422228","541184.135519","541951.517932","542700.914504","543467.631266","544234.170255","545000.819309","545767.575955","535050.615054","535817.298117","536584.427317","537351.004025","538117.342978","538883.994814","539650.980867","540418.214568","545010.179837","Mapping"
"Mixed","Both","tile","33","m150cad.wav","None","726.437369362","156","548901.095184","541184.135519","541951.517932","542700.914504","543467.631266","544234.170255","545000.819309","545767.575955","535050.615054","535817.298117","536584.427317","537351.004025","538117.342978","538883.994814","539650.980867","540418.214568","545776.797974","Mapping"
"Mixed","Both","tile","33","m150tile.wav","None","719.93762115","156","548901.095184","541184.135519","541951.517932","542700.914504","543467.631266","544234.170255","545000.819309","545767.575955","549650.841121","535817.298117","536584.427317","537351.004025","538117.342978","538883.994814","539650.980867","540418.214568","548910.771687","Mapping"
"Mixed","Both","tile","33","m160jaw.wav","space","635.138214566","156","548901.095184","541184.135519","541951.517932","542700.914504","543467.631266","544234.170255","545000.819309","545767.575955","549650.841121","550417.610444","536584.427317","537351.004025","538117.342978","538883.994814","539650.980867","540418.214568","549659.986774","Mapping"
"Mixed","Both","tile","33","m150cad.wav","None","732.820868492","156","548901.095184","541184.135519","541951.517932","542700.914504","543467.631266","544234.170255","545000.819309","545767.575955","549650.841121","550417.610444","551184.087288","537351.004025","538117.342978","538883.994814","539650.980867","540418.214568","550427.044864","Mapping"
"Mixed","Both","tile","33","m160cave.wav","None","731.751129031","156","548901.095184","541184.135519","541951.517932","542700.914504","543467.631266","544234.170255","545000.819309","545767.575955","549650.841121","550417.610444","551184.087288","551950.951527","538117.342978","538883.994814","539650.980867","540418.214568","551193.464512","Mapping"
"Mixed","Both","tile","33","m150jolt.wav","None","730.388602708","156","548901.095184","541184.135519","541951.517932","542700.914504","543467.631266","544234.170255","545000.819309","545767.575955","549650.841121","550417.610444","551184.087288","551950.951527","552717.461762","538883.994814","539650.980867","540418.214568","551960.20539","Mapping"
"Mixed","Both","tile","33","m150gnash.wav","None","729.287637398","156","548901.095184","541184.135519","541951.517932","542700.914504","543467.631266","544234.170255","545000.819309","545767.575955","549650.841121","550417.610444","551184.087288","551950.951527","552717.461762","553484.057948","539650.980867","540418.214568","552726.659665","Mapping"
"Mixed","Both","tile","33","m160depth.wav","None","728.445758577","156","548901.095184","541184.135519","541951.517932","542700.914504","543467.631266","544234.170255","545000.819309","545767.575955","549650.841121","550417.610444","551184.087288","551950.951527","552717.461762","553484.057948","554250.37124","540418.214568","553493.084259","Mapping"
"Mixed","Both","tile","33","m160reek.wav","None","727.697868366","156","548901.095184","541184.135519","541951.517932","542700.914504","543467.631266","544234.170255","545000.819309","545767.575955","549650.841121","550417.610444","551184.087288","551950.951527","552717.461762","553484.057948","554250.37124","555017.420364","554259.085286","Mapping"
"Mixed","Both","tile","33","m150cave.wav","None","725.031249691","156","548901.095184","555784.386939","541951.517932","542700.914504","543467.631266","544234.170255","545000.819309","545767.575955","549650.841121","550417.610444","551184.087288","551950.951527","552717.461762","553484.057948","554250.37124","555017.420364","555027.049254","Mapping"
"Mixed","Both","tile","33","m150tile.wav","None","723.42169378","156","548901.095184","555784.386939","556550.826064","542700.914504","543467.631266","544234.170255","545000.819309","545767.575955","549650.841121","550417.610444","551184.087288","551950.951527","552717.461762","553484.057948","554250.37124","555017.420364","555793.961724","Mapping"
"Mixed","Both","tile","33","m160gnash.wav","space","478.683280759","156","548901.095184","555784.386939","556550.826064","557317.219742","543467.631266","544234.170255","545000.819309","545767.575955","549650.841121","550417.610444","551184.087288","551950.951527","552717.461762","553484.057948","554250.37124","555017.420364","556560.357256","Mapping"
"Mixed","Both","tile","33","m160tile.wav","None","720.112922601","156","548901.095184","555784.386939","556550.826064","557317.219742","558067.116246","544234.170255","545000.819309","545767.575955","549650.841121","550417.610444","551184.087288","551950.951527","552717.461762","553484.057948","554250.37124","555017.420364","557326.290883","Mapping"
"Mixed","Both","tile","33","m150romp.wav","space","506.716014817","156","548901.095184","555784.386939","556550.826064","557317.219742","558067.116246","558833.620298","545000.819309","545767.575955","549650.841121","550417.610444","551184.087288","551950.951527","552717.461762","553484.057948","554250.37124","555017.420364","558076.271483","Mapping"
