"Condition","Talker","Target","Trial","current_stimulus","response_response","response_time_response","subject_nr","time_Audio1","time_Audio10","time_Audio11","time_Audio12","time_Audio13","time_Audio14","time_Audio15","time_Audio16","time_Audio2","time_Audio3","time_Audio4","time_Audio5","time_Audio6","time_Audio7","time_Audio8","time_Audio9","time_response","title"
"Mixed","Both","done","43","m150romp.wav","NA","NA","115","110161.322865","NA","NA","NA","NA","NA","NA","NA","NA","NA","NA","NA","NA","NA","NA","NA","NA","Mapping"
"Mixed","Both","done","43","m150done.wav","None","716.297416016","115","110161.322865","NA","NA","NA","NA","NA","NA","NA","110910.657911","NA","NA","NA","NA","NA","NA","NA","110175.450226","Mapping"
"Mixed","Both","done","43","m150gnash.wav","space","530.0320026","115","110161.322865","NA","NA","NA","NA","NA","NA","NA","110910.657911","111677.167838","NA","NA","NA","NA","NA","NA","110920.494257","Mapping"
"Mixed","Both","done","43","m150jolt.wav","None","733.467658982","115","110161.322865","NA","NA","NA","NA","NA","NA","NA","110910.657911","111677.167838","112443.879345","NA","NA","NA","NA","NA","111686.539186","Mapping"
"Mixed","Both","done","43","m160done.wav","space","260.622804752","115","110161.322865","NA","NA","NA","NA","NA","NA","NA","110910.657911","111677.167838","112443.879345","113210.738327","NA","NA","NA","NA","112453.895319","Mapping"
"Mixed","Both","done","43","m160knife.wav","space","590.600887313","115","110161.322865","NA","NA","NA","NA","NA","NA","NA","110910.657911","111677.167838","112443.879345","113210.738327","113977.771374","NA","NA","NA","113219.879651","Mapping"
"Mixed","Both","done","43","m160done.wav","None","724.855639273","115","110161.322865","NA","NA","NA","NA","NA","NA","NA","110910.657911","111677.167838","112443.879345","113210.738327","113977.771374","114744.409298","NA","NA","113987.673883","Mapping"
"Mixed","Both","done","43","m160ball.wav","space","328.18271406","115","110161.322865","NA","NA","NA","NA","NA","NA","NA","110910.657911","111677.167838","112443.879345","113210.738327","113977.771374","114744.409298","115510.785662","NA","114754.279962","Mapping"
"Mixed","Both","done","43","m150greet.wav","None","719.800657593","115","110161.322865","NA","NA","NA","NA","NA","NA","NA","110910.657911","111677.167838","112443.879345","113210.738327","113977.771374","114744.409298","115510.785662","116260.662997","115521.050212","Mapping"
"Mixed","Both","done","43","m150dime.wav","None","735.251588048","115","110161.322865","117027.292883","NA","NA","NA","NA","NA","NA","110910.657911","111677.167838","112443.879345","113210.738327","113977.771374","114744.409298","115510.785662","116260.662997","116269.873885","Mapping"
"Mixed","Both","done","43","m160greet.wav","None","733.014720026","115","110161.322865","117027.292883","117794.248946","NA","NA","NA","NA","NA","110910.657911","111677.167838","112443.879345","113210.738327","113977.771374","114744.409298","115510.785662","116260.662997","117036.345783","Mapping"
"Mixed","Both","done","43","m160park.wav","None","729.391519446","115","110161.322865","117027.292883","117794.248946","118560.87543","NA","NA","NA","NA","110910.657911","111677.167838","112443.879345","113210.738327","113977.771374","114744.409298","115510.785662","116260.662997","117804.25379","Mapping"
"Mixed","Both","done","43","m150done.wav","None","727.278629551","115","110161.322865","117027.292883","117794.248946","118560.87543","119327.324758","NA","NA","NA","110910.657911","111677.167838","112443.879345","113210.738327","113977.771374","114744.409298","115510.785662","116260.662997","118570.56801","Mapping"
"Mixed","Both","done","43","m160priest.wav","space","378.081413219","115","110161.322865","117027.292883","117794.248946","118560.87543","119327.324758","120094.454268","NA","NA","110910.657911","111677.167838","112443.879345","113210.738327","113977.771374","114744.409298","115510.785662","116260.662997","119336.29109","Mapping"
"Mixed","Both","done","43","m160tile.wav","None","722.682770109","115","110161.322865","117027.292883","117794.248946","118560.87543","119327.324758","120094.454268","120861.090955","NA","110910.657911","111677.167838","112443.879345","113210.738327","113977.771374","114744.409298","115510.785662","116260.662997","120103.828708","Mapping"
"Mixed","Both","done","43","m150cling.wav","None","718.872828642","115","110161.322865","117027.292883","117794.248946","118560.87543","119327.324758","120094.454268","120861.090955","121610.672721","110910.657911","111677.167838","112443.879345","113210.738327","113977.771374","114744.409298","115510.785662","116260.662997","120871.947572","Mapping"
"Mixed","Both","tile","28","m160knife.wav","None","734.83822355","115","124794.319746","117027.292883","117794.248946","118560.87543","119327.324758","120094.454268","120861.090955","121610.672721","110910.657911","111677.167838","112443.879345","113210.738327","113977.771374","114744.409298","115510.785662","116260.662997","121620.123836","Mapping"
"Mixed","Both","tile","28","m150gnash.wav","None","721.133812331","115","124794.319746","117027.292883","117794.248946","118560.87543","119327.324758","120094.454268","120861.090955","121610.672721","125561.010539","111677.167838","112443.879345","113210.738327","113977.771374","114744.409298","115510.785662","116260.662997","124804.455371","Mapping"
"Mixed","Both","tile","28","m150tile.wav","None","719.73975026","115","124794.319746","117027.292883","117794.248946","118560.87543","119327.324758","120094.454268","120861.090955","121610.672721","125561.010539","126310.329198","112443.879345","113210.738327","113977.771374","114744.409298","115510.785662","116260.662997","125570.675911","Mapping"
"Mixed","Both","tile","28","m150cling.wav","space","434.821497183","115","124794.319746","117027.292883","117794.248946","118560.87543","119327.324758","120094.454268","120861.090955","121610.672721","125561.010539","126310.329198","127077.838991","113210.738327","113977.771374","114744.409298","115510.785662","116260.662997","126319.411161","Mapping"
"Mixed","Both","tile","28","m160done.wav","None","731.594378361","115","124794.319746","117027.292883","117794.248946","118560.87543","119327.324758","120094.454268","120861.090955","121610.672721","125561.010539","126310.329198","127077.838991","127843.883611","113977.771374","114744.409298","115510.785662","116260.662997","127087.523532","Mapping"
"Mixed","Both","tile","28","m160tile.wav","None","730.438379804","115","124794.319746","117027.292883","117794.248946","118560.87543","119327.324758","120094.454268","120861.090955","121610.672721","125561.010539","126310.329198","127077.838991","127843.883611","128610.827616","114744.409298","115510.785662","116260.662997","127853.132218","Mapping"
"Mixed","Both","tile","28","m160done.wav","space","453.731766902","115","124794.319746","117027.292883","117794.248946","118560.87543","119327.324758","120094.454268","120861.090955","121610.672721","125561.010539","126310.329198","127077.838991","127843.883611","128610.827616","129377.092059","115510.785662","116260.662997","128620.442285","Mapping"
"Mixed","Both","tile","28","m160depth.wav","None","725.92105018","115","124794.319746","117027.292883","117794.248946","118560.87543","119327.324758","120094.454268","120861.090955","121610.672721","125561.010539","126310.329198","127077.838991","127843.883611","128610.827616","129377.092059","130144.2024","116260.662997","129386.30542","Mapping"
"Mixed","Both","tile","28","m150tile.wav","None","722.795000067","115","124794.319746","117027.292883","117794.248946","118560.87543","119327.324758","120094.454268","120861.090955","121610.672721","125561.010539","126310.329198","127077.838991","127843.883611","128610.827616","129377.092059","130144.2024","130910.668732","130153.75647","Mapping"
"Mixed","Both","tile","28","m150reek.wav","space","409.911721945","115","124794.319746","131660.8707","117794.248946","118560.87543","119327.324758","120094.454268","120861.090955","121610.672721","125561.010539","126310.329198","127077.838991","127843.883611","128610.827616","129377.092059","130144.2024","130910.668732","130920.282782","Mapping"
"Mixed","Both","tile","28","m150gnash.wav","None","735.638673184","115","124794.319746","131660.8707","132427.026622","118560.87543","119327.324758","120094.454268","120861.090955","121610.672721","125561.010539","126310.329198","127077.838991","127843.883611","128610.827616","129377.092059","130144.2024","130910.668732","131670.135075","Mapping"
"Mixed","Both","tile","28","m160reek.wav","None","734.311083332","115","124794.319746","131660.8707","132427.026622","133193.936619","119327.324758","120094.454268","120861.090955","121610.672721","125561.010539","126310.329198","127077.838991","127843.883611","128610.827616","129377.092059","130144.2024","130910.668732","132436.077977","Mapping"
"Mixed","Both","tile","28","m150dime.wav","None","731.647246983","115","124794.319746","131660.8707","132427.026622","133193.936619","133960.400169","120094.454268","120861.090955","121610.672721","125561.010539","126310.329198","127077.838991","127843.883611","128610.827616","129377.092059","130144.2024","130910.668732","133203.088145","Mapping"
"Mixed","Both","tile","28","m160tile.wav","None","729.683378711","115","124794.319746","131660.8707","132427.026622","133193.936619","133960.400169","134727.146922","120861.090955","121610.672721","125561.010539","126310.329198","127077.838991","127843.883611","128610.827616","129377.092059","130144.2024","130910.668732","133969.540875","Mapping"
"Mixed","Both","tile","28","m150ball.wav","space","449.235460954","115","124794.319746","131660.8707","132427.026622","133193.936619","133960.400169","134727.146922","135494.044242","121610.672721","125561.010539","126310.329198","127077.838991","127843.883611","128610.827616","129377.092059","130144.2024","130910.668732","134736.868255","Mapping"
"Mixed","Both","tile","28","m160depth.wav","None","725.594872376","115","124794.319746","131660.8707","132427.026622","133193.936619","133960.400169","134727.146922","135494.044242","136261.076362","125561.010539","126310.329198","127077.838991","127843.883611","128610.827616","129377.092059","130144.2024","130910.668732","135503.115074","Mapping"
"Mixed","Both","cave","20","m160knife.wav","None","723.031208152","115","139377.406488","131660.8707","132427.026622","133193.936619","133960.400169","134727.146922","135494.044242","136261.076362","125561.010539","126310.329198","127077.838991","127843.883611","128610.827616","129377.092059","130144.2024","130910.668732","136270.721947","Mapping"
"Mixed","Both","cave","20","m150cave.wav","None","719.033289701","115","139377.406488","131660.8707","132427.026622","133193.936619","133960.400169","134727.146922","135494.044242","136261.076362","140127.074823","126310.329198","127077.838991","127843.883611","128610.827616","129377.092059","130144.2024","130910.668732","139389.176712","Mapping"
"Mixed","Both","cave","20","m150depth.wav","space","346.068692626","115","139377.406488","131660.8707","132427.026622","133193.936619","133960.400169","134727.146922","135494.044242","136261.076362","140127.074823","140893.766852","127077.838991","127843.883611","128610.827616","129377.092059","130144.2024","130910.668732","140135.952113","Mapping"
"Mixed","Both","cave","20","m160cave.wav","None","736.474059056","115","139377.406488","131660.8707","132427.026622","133193.936619","133960.400169","134727.146922","135494.044242","136261.076362","140127.074823","140893.766852","141660.167021","127843.883611","128610.827616","129377.092059","130144.2024","130910.668732","140899.887244","Mapping"
"Mixed","Both","cave","20","m160knife.wav","space","460.704859113","115","139377.406488","131660.8707","132427.026622","133193.936619","133960.400169","134727.146922","135494.044242","136261.076362","140127.074823","140893.766852","141660.167021","142426.939745","128610.827616","129377.092059","130144.2024","130910.668732","141669.256095","Mapping"
"Mixed","Both","cave","20","m160greet.wav","None","728.816148126","115","139377.406488","131660.8707","132427.026622","133193.936619","133960.400169","134727.146922","135494.044242","136261.076362","140127.074823","140893.766852","141660.167021","142426.939745","143193.804911","129377.092059","130144.2024","130910.668732","142436.167328","Mapping"
"Mixed","Both","cave","20","m160cave.wav","None","726.015038788","115","139377.406488","131660.8707","132427.026622","133193.936619","133960.400169","134727.146922","135494.044242","136261.076362","140127.074823","140893.766852","141660.167021","142426.939745","143193.804911","143960.43356","130144.2024","130910.668732","143203.473994","Mapping"
"Mixed","Both","cave","20","m150jaw.wav","space","456.019957783","115","139377.406488","131660.8707","132427.026622","133193.936619","133960.400169","134727.146922","135494.044242","136261.076362","140127.074823","140893.766852","141660.167021","142426.939745","143193.804911","143960.43356","144727.606044","130910.668732","143969.913428","Mapping"
"Mixed","Both","cave","20","m160priest.wav","None","720.811344683","115","139377.406488","131660.8707","132427.026622","133193.936619","133960.400169","134727.146922","135494.044242","136261.076362","140127.074823","140893.766852","141660.167021","142426.939745","143193.804911","143960.43356","144727.606044","145476.905226","144737.080347","Mapping"
"Mixed","Both","cave","20","m150cad.wav","None","735.983092105","115","139377.406488","146243.487807","132427.026622","133193.936619","133960.400169","134727.146922","135494.044242","136261.076362","140127.074823","140893.766852","141660.167021","142426.939745","143193.804911","143960.43356","144727.606044","145476.905226","145486.230199","Mapping"
"Mixed","Both","cave","20","m150greet.wav","space","333.284381079","115","139377.406488","146243.487807","147010.089867","133193.936619","133960.400169","134727.146922","135494.044242","136261.076362","140127.074823","140893.766852","141660.167021","142426.939745","143193.804911","143960.43356","144727.606044","145476.905226","146252.636861","Mapping"
"Mixed","Both","cave","20","m150jaw.wav","None","731.833060039","115","139377.406488","146243.487807","147010.089867","147776.778496","133960.400169","134727.146922","135494.044242","136261.076362","140127.074823","140893.766852","141660.167021","142426.939745","143193.804911","143960.43356","144727.606044","145476.905226","147018.886154","Mapping"
"Mixed","Both","cave","20","m160jaw.wav","None","729.165513534","115","139377.406488","146243.487807","147010.089867","147776.778496","148543.763312","134727.146922","135494.044242","136261.076362","140127.074823","140893.766852","141660.167021","142426.939745","143193.804911","143960.43356","144727.606044","145476.905226","147785.821812","Mapping"
"Mixed","Both","cave","20","m150cave.wav","None","726.339052431","115","139377.406488","146243.487807","147010.089867","147776.778496","148543.763312","149310.515321","135494.044242","136261.076362","140127.074823","140893.766852","141660.167021","142426.939745","143193.804911","143960.43356","144727.606044","145476.905226","148553.002953","Mapping"
"Mixed","Both","cave","20","m150ball.wav","space","425.673062215","115","139377.406488","146243.487807","147010.089867","147776.778496","148543.763312","149310.515321","150077.003296","136261.076362","140127.074823","140893.766852","141660.167021","142426.939745","143193.804911","143960.43356","144727.606044","145476.905226","149320.183785","Mapping"
"Mixed","Both","cave","20","m160jaw.wav","None","721.029002452","115","139377.406488","146243.487807","147010.089867","147776.778496","148543.763312","149310.515321","150077.003296","150827.069227","140127.074823","140893.766852","141660.167021","142426.939745","143193.804911","143960.43356","144727.606044","145476.905226","150086.758019","Mapping"
"Mixed","Both","cave","15","m160lash.wav","None","735.8393264","115","153960.690792","146243.487807","147010.089867","147776.778496","148543.763312","149310.515321","150077.003296","150827.069227","140127.074823","140893.766852","141660.167021","142426.939745","143193.804911","143960.43356","144727.606044","145476.905226","150836.4313","Mapping"
"Mixed","Both","cave","15","m160cave.wav","None","720.40138091","115","153960.690792","146243.487807","147010.089867","147776.778496","148543.763312","149310.515321","150077.003296","150827.069227","154710.345523","140893.766852","141660.167021","142426.939745","143193.804911","143960.43356","144727.606044","145476.905226","153970.324629","Mapping"
"Mixed","Both","cave","15","m150jaw.wav","space","409.834737657","115","153960.690792","146243.487807","147010.089867","147776.778496","148543.763312","149310.515321","150077.003296","150827.069227","154710.345523","155476.74291","141660.167021","142426.939745","143193.804911","143960.43356","144727.606044","145476.905226","154719.957717","Mapping"
"Mixed","Both","cave","15","m160cave.wav","None","733.3640859","115","153960.690792","146243.487807","147010.089867","147776.778496","148543.763312","149310.515321","150077.003296","150827.069227","154710.345523","155476.74291","156243.643322","142426.939745","143193.804911","143960.43356","144727.606044","145476.905226","155486.09138","Mapping"
"Mixed","Both","cave","15","m150lash.wav","space","604.783898918","115","153960.690792","146243.487807","147010.089867","147776.778496","148543.763312","149310.515321","150077.003296","150827.069227","154710.345523","155476.74291","156243.643322","157009.93188","143193.804911","143960.43356","144727.606044","145476.905226","156252.903368","Mapping"
"Mixed","Both","cave","15","m150depth.wav","None","728.748129914","115","153960.690792","146243.487807","147010.089867","147776.778496","148543.763312","149310.515321","150077.003296","150827.069227","154710.345523","155476.74291","156243.643322","157009.93188","157776.704294","143960.43356","144727.606044","145476.905226","157019.254688","Mapping"
"Mixed","Both","cave","15","m150done.wav","None","726.429330884","115","153960.690792","146243.487807","147010.089867","147776.778496","148543.763312","149310.515321","150077.003296","150827.069227","154710.345523","155476.74291","156243.643322","157009.93188","157776.704294","158543.900276","144727.606044","145476.905226","157786.014426","Mapping"
"Mixed","Both","cave","15","m160cling.wav","None","723.253194708","115","153960.690792","146243.487807","147010.089867","147776.778496","148543.763312","149310.515321","150077.003296","150827.069227","154710.345523","155476.74291","156243.643322","157009.93188","157776.704294","158543.900276","159310.328271","145476.905226","158553.695192","Mapping"
"Mixed","Both","cave","15","m160greet.wav","None","721.140614245","115","153960.690792","146243.487807","147010.089867","147776.778496","148543.763312","149310.515321","150077.003296","150827.069227","154710.345523","155476.74291","156243.643322","157009.93188","157776.704294","158543.900276","159310.328271","160077.187563","159320.182857","Mapping"
"Mixed","Both","cave","15","m160cling.wav","None","718.894470949","115","153960.690792","160843.252589","147010.089867","147776.778496","148543.763312","149310.515321","150077.003296","150827.069227","154710.345523","155476.74291","156243.643322","157009.93188","157776.704294","158543.900276","159310.328271","160077.187563","160086.972585","Mapping"
"Mixed","Both","cave","15","m160priest.wav","None","721.142160008","115","153960.690792","160843.252589","161593.292549","147776.778496","148543.763312","149310.515321","150077.003296","150827.069227","154710.345523","155476.74291","156243.643322","157009.93188","157776.704294","158543.900276","159310.328271","160077.187563","160852.064025","Mapping"
"Mixed","Both","cave","15","m150cave.wav","None","735.115552088","115","153960.690792","160843.252589","161593.292549","162359.965719","148543.763312","149310.515321","150077.003296","150827.069227","154710.345523","155476.74291","156243.643322","157009.93188","157776.704294","158543.900276","159310.328271","160077.187563","161602.601136","Mapping"
"Mixed","Both","cave","15","m150cling.wav","space","592.044107849","115","153960.690792","160843.252589","161593.292549","162359.965719","163126.522639","149310.515321","150077.003296","150827.069227","154710.345523","155476.74291","156243.643322","157009.93188","157776.704294","158543.900276","159310.328271","160077.187563","162369.581315","Mapping"
"Mixed","Both","cave","15","m150cave.wav","None","730.820826953","115","153960.690792","160843.252589","161593.292549","162359.965719","163126.522639","163893.221161","150077.003296","150827.069227","154710.345523","155476.74291","156243.643322","157009.93188","157776.704294","158543.900276","159310.328271","160077.187563","163135.749914","Mapping"
"Mixed","Both","cave","15","m150jolt.wav","space","670.423842268","115","153960.690792","160843.252589","161593.292549","162359.965719","163126.522639","163893.221161","164660.214634","150827.069227","154710.345523","155476.74291","156243.643322","157009.93188","157776.704294","158543.900276","159310.328271","160077.187563","163899.12977","Mapping"
"Mixed","Both","cave","15","m160dime.wav","None","725.509231444","115","153960.690792","160843.252589","161593.292549","162359.965719","163126.522639","163893.221161","164660.214634","165427.016111","154710.345523","155476.74291","156243.643322","157009.93188","157776.704294","158543.900276","159310.328271","160077.187563","164669.528786","Mapping"
"Mixed","Both","ball","10","m160reek.wav","None","722.59372822","115","168543.788973","160843.252589","161593.292549","162359.965719","163126.522639","163893.221161","164660.214634","165427.016111","154710.345523","155476.74291","156243.643322","157009.93188","157776.704294","158543.900276","159310.328271","160077.187563","165437.048163","Mapping"
"Mixed","Both","ball","10","m150priest.wav","None","720.92171968","115","168543.788973","160843.252589","161593.292549","162359.965719","163126.522639","163893.221161","164660.214634","165427.016111","169310.303846","155476.74291","156243.643322","157009.93188","157776.704294","158543.900276","159310.328271","160077.187563","168553.453109","Mapping"
"Mixed","Both","ball","10","m150ball.wav","None","719.094505766","115","168543.788973","160843.252589","161593.292549","162359.965719","163126.522639","163893.221161","164660.214634","165427.016111","169310.303846","170059.795334","156243.643322","157009.93188","157776.704294","158543.900276","159310.328271","160077.187563","169319.908312","Mapping"
"Mixed","Both","ball","10","m160tile.wav","space","420.082901604","115","168543.788973","160843.252589","161593.292549","162359.965719","163126.522639","163893.221161","164660.214634","165427.016111","169310.303846","170059.795334","170826.509623","157009.93188","157776.704294","158543.900276","159310.328271","160077.187563","170069.361462","Mapping"
"Mixed","Both","ball","10","m160ball.wav","None","731.976825744","115","168543.788973","160843.252589","161593.292549","162359.965719","163126.522639","163893.221161","164660.214634","165427.016111","169310.303846","170059.795334","170826.509623","171593.296259","157776.704294","158543.900276","159310.328271","160077.187563","170835.774307","Mapping"
"Mixed","Both","ball","10","m160cad.wav","space","446.916662157","115","168543.788973","160843.252589","161593.292549","162359.965719","163126.522639","163893.221161","164660.214634","165427.016111","169310.303846","170059.795334","170826.509623","171593.296259","172359.916251","158543.900276","159310.328271","160077.187563","171602.526625","Mapping"
"Mixed","Both","ball","10","m150ball.wav","None","726.872685365","115","168543.788973","160843.252589","161593.292549","162359.965719","163126.522639","163893.221161","164660.214634","165427.016111","169310.303846","170059.795334","170826.509623","171593.296259","172359.916251","173126.334971","159310.328271","160077.187563","172369.600483","Mapping"
"Mixed","Both","ball","10","m150gnash.wav","space","370.096397121","115","168543.788973","160843.252589","161593.292549","162359.965719","163126.522639","163893.221161","164660.214634","165427.016111","169310.303846","170059.795334","170826.509623","171593.296259","172359.916251","173126.334971","173893.466026","160077.187563","173135.350462","Mapping"
"Mixed","Both","ball","10","m160gnash.wav","None","722.447489155","115","168543.788973","160843.252589","161593.292549","162359.965719","163126.522639","163893.221161","164660.214634","165427.016111","169310.303846","170059.795334","170826.509623","171593.296259","172359.916251","173126.334971","173893.466026","174660.460736","173903.060289","Mapping"
"Mixed","Both","ball","10","m160done.wav","None","719.997600652","115","168543.788973","175409.448271","161593.292549","162359.965719","163126.522639","163893.221161","164660.214634","165427.016111","169310.303846","170059.795334","170826.509623","171593.296259","172359.916251","173126.334971","173893.466026","174660.460736","174670.293062","Mapping"
"Mixed","Both","ball","10","m160ball.wav","None","735.979381949","115","168543.788973","175409.448271","176176.452874","162359.965719","163126.522639","163893.221161","164660.214634","165427.016111","169310.303846","170059.795334","170826.509623","171593.296259","172359.916251","173126.334971","173893.466026","174660.460736","175418.819002","Mapping"
"Mixed","Both","ball","10","m150depth.wav","space","599.608957767","115","168543.788973","175409.448271","176176.452874","176943.191589","163126.522639","163893.221161","164660.214634","165427.016111","169310.303846","170059.795334","170826.509623","171593.296259","172359.916251","173126.334971","173893.466026","174660.460736","176185.766717","Mapping"
"Mixed","Both","ball","10","m150priest.wav","None","731.291079661","115","168543.788973","175409.448271","176176.452874","176943.191589","177709.75562","163893.221161","164660.214634","165427.016111","169310.303846","170059.795334","170826.509623","171593.296259","172359.916251","173126.334971","173893.466026","174660.460736","176952.362284","Mapping"
"Mixed","Both","ball","10","m150cling.wav","None","729.521062924","115","168543.788973","175409.448271","176176.452874","176943.191589","177709.75562","178476.338511","164660.214634","165427.016111","169310.303846","170059.795334","170826.509623","171593.296259","172359.916251","173126.334971","173893.466026","174660.460736","177719.25373","Mapping"
"Mixed","Both","ball","10","m150gnash.wav","None","727.785364492","115","168543.788973","175409.448271","176176.452874","176943.191589","177709.75562","178476.338511","179242.945518","165427.016111","169310.303846","170059.795334","170826.509623","171593.296259","172359.916251","173126.334971","173893.466026","174660.460736","178485.692856","Mapping"
"Mixed","Both","ball","10","m160knife.wav","None","725.753787439","115","168543.788973","175409.448271","176176.452874","176943.191589","177709.75562","178476.338511","179242.945518","180010.607732","169310.303846","170059.795334","170826.509623","171593.296259","172359.916251","173126.334971","173893.466026","174660.460736","179252.382721","Mapping"
"Mixed","Both","tile","36","m150done.wav","None","722.430175403","115","183126.672279","175409.448271","176176.452874","176943.191589","177709.75562","178476.338511","179242.945518","180010.607732","169310.303846","170059.795334","170826.509623","171593.296259","172359.916251","173126.334971","173893.466026","174660.460736","180020.287945","Mapping"
"Mixed","Both","tile","36","m160tile.wav","None","721.149580088","115","183126.672279","175409.448271","176176.452874","176943.191589","177709.75562","178476.338511","179242.945518","180010.607732","183876.781804","170059.795334","170826.509623","171593.296259","172359.916251","173126.334971","173893.466026","174660.460736","183136.193886","Mapping"
"Mixed","Both","tile","36","m160priest.wav","space","522.971723229","115","183126.672279","175409.448271","176176.452874","176943.191589","177709.75562","178476.338511","179242.945518","180010.607732","183876.781804","184643.177027","170826.509623","171593.296259","172359.916251","173126.334971","173893.466026","174660.460736","183886.27744","Mapping"
"Mixed","Both","tile","36","m160dime.wav","None","733.086757595","115","183126.672279","175409.448271","176176.452874","176943.191589","177709.75562","178476.338511","179242.945518","180010.607732","183876.781804","184643.177027","185409.620171","171593.296259","172359.916251","173126.334971","173893.466026","174660.460736","184653.139205","Mapping"
"Mixed","Both","tile","36","m160tile.wav","None","732.067413395","115","183126.672279","175409.448271","176176.452874","176943.191589","177709.75562","178476.338511","179242.945518","180010.607732","183876.781804","184643.177027","185409.620171","186176.220376","172359.916251","173126.334971","173893.466026","174660.460736","185419.084581","Mapping"
"Mixed","Both","tile","36","m160romp.wav","space","583.623466548","115","183126.672279","175409.448271","176176.452874","176943.191589","177709.75562","178476.338511","179242.945518","180010.607732","183876.781804","184643.177027","185409.620171","186176.220376","186943.069156","173126.334971","173893.466026","174660.460736","186185.596053","Mapping"
"Mixed","Both","tile","36","m160priest.wav","None","727.833904792","115","183126.672279","175409.448271","176176.452874","176943.191589","177709.75562","178476.338511","179242.945518","180010.607732","183876.781804","184643.177027","185409.620171","186176.220376","186943.069156","187709.541363","173893.466026","174660.460736","186952.298594","Mapping"
"Mixed","Both","tile","36","m150tile.wav","None","726.687799674","115","183126.672279","175409.448271","176176.452874","176943.191589","177709.75562","178476.338511","179242.945518","180010.607732","183876.781804","184643.177027","185409.620171","186176.220376","186943.069156","187709.541363","188476.161046","174660.460736","187718.910548","Mapping"
"Mixed","Both","tile","36","m150jolt.wav","space","571.633729851","115","183126.672279","175409.448271","176176.452874","176943.191589","177709.75562","178476.338511","179242.945518","180010.607732","183876.781804","184643.177027","185409.620171","186176.220376","186943.069156","187709.541363","188476.161046","189243.22501","188485.508588","Mapping"
"Mixed","Both","tile","36","m150tile.wav","None","722.057931125","115","183126.672279","190009.893852","176176.452874","176943.191589","177709.75562","178476.338511","179242.945518","180010.607732","183876.781804","184643.177027","185409.620171","186176.220376","186943.069156","187709.541363","188476.161046","189243.22501","189252.522467","Mapping"
"Mixed","Both","tile","36","m150greet.wav","space","613.00883349","115","183126.672279","190009.893852","190759.157788","176943.191589","177709.75562","178476.338511","179242.945518","180010.607732","183876.781804","184643.177027","185409.620171","186176.220376","186943.069156","187709.541363","188476.161046","189243.22501","190020.119446","Mapping"
"Mixed","Both","tile","36","m150jolt.wav","None","735.418232623","115","183126.672279","190009.893852","190759.157788","191526.078605","177709.75562","178476.338511","179242.945518","180010.607732","183876.781804","184643.177027","185409.620171","186176.220376","186943.069156","187709.541363","188476.161046","189243.22501","190768.226765","Mapping"
"Mixed","Both","tile","36","m150cad.wav","None","733.008227311","115","183126.672279","190009.893852","190759.157788","191526.078605","192292.674172","178476.338511","179242.945518","180010.607732","183876.781804","184643.177027","185409.620171","186176.220376","186943.069156","187709.541363","188476.161046","189243.22501","191535.416563","Mapping"
"Mixed","Both","tile","36","m150lash.wav","None","731.3133399","115","183126.672279","190009.893852","190759.157788","191526.078605","192292.674172","193059.317352","179242.945518","180010.607732","183876.781804","184643.177027","185409.620171","186176.220376","186943.069156","187709.541363","188476.161046","189243.22501","192301.998217","Mapping"
"Mixed","Both","tile","36","m160greet.wav","None","729.663900798","115","183126.672279","190009.893852","190759.157788","191526.078605","192292.674172","193059.317352","193826.162112","180010.607732","183876.781804","184643.177027","185409.620171","186176.220376","186943.069156","187709.541363","188476.161046","189243.22501","193068.470733","Mapping"
"Mixed","Both","tile","36","m160cling.wav","None","727.407864062","115","183126.672279","190009.893852","190759.157788","191526.078605","192292.674172","193059.317352","193826.162112","194592.635556","183876.781804","184643.177027","185409.620171","186176.220376","186943.069156","187709.541363","188476.161046","189243.22501","193835.542427","Mapping"
"Mixed","Both","cave","16","m160romp.wav","None","725.625171326","115","197709.919482","190009.893852","190759.157788","191526.078605","192292.674172","193059.317352","193826.162112","194592.635556","183876.781804","184643.177027","185409.620171","186176.220376","186943.069156","187709.541363","188476.161046","189243.22501","194602.080179","Mapping"
"Mixed","Both","cave","16","m150priest.wav","None","720.44497449","115","197709.919482","190009.893852","190759.157788","191526.078605","192292.674172","193059.317352","193826.162112","194592.635556","198459.677477","184643.177027","185409.620171","186176.220376","186943.069156","187709.541363","188476.161046","189243.22501","197719.876714","Mapping"
"Mixed","Both","cave","16","m160ball.wav","None","735.831287922","115","197709.919482","190009.893852","190759.157788","191526.078605","192292.674172","193059.317352","193826.162112","194592.635556","198459.677477","199225.866481","185409.620171","186176.220376","186943.069156","187709.541363","188476.161046","189243.22501","198469.003377","Mapping"
"Mixed","Both","cave","16","m150cling.wav","None","699.51333059","115","197709.919482","190009.893852","190759.157788","191526.078605","192292.674172","193059.317352","193826.162112","194592.635556","198459.677477","199225.866481","199992.837694","186176.220376","186943.069156","187709.541363","188476.161046","189243.22501","199270.07021","Mapping"
"Mixed","Both","cave","16","m150cave.wav","None","702.058444265","115","197709.919482","190009.893852","190759.157788","191526.078605","192292.674172","193059.317352","193826.162112","194592.635556","198459.677477","199225.866481","199992.837694","200759.395232","186943.069156","187709.541363","188476.161046","189243.22501","200032.301179","Mapping"
"Mixed","Both","cave","16","m160cad.wav","space","472.584839445","115","197709.919482","190009.893852","190759.157788","191526.078605","192292.674172","193059.317352","193826.162112","194592.635556","198459.677477","199225.866481","199992.837694","200759.395232","201525.937313","187709.541363","188476.161046","189243.22501","200768.352289","Mapping"
"Mixed","Both","cave","16","m160cave.wav","None","728.262418881","115","197709.919482","190009.893852","190759.157788","191526.078605","192292.674172","193059.317352","193826.162112","194592.635556","198459.677477","199225.866481","199992.837694","200759.395232","201525.937313","202292.736007","188476.161046","189243.22501","201534.888804","Mapping"
"Mixed","Both","cave","16","m150greet.wav","space","683.207535883","115","197709.919482","190009.893852","190759.157788","191526.078605","192292.674172","193059.317352","193826.162112","194592.635556","198459.677477","199225.866481","199992.837694","200759.395232","201525.937313","202292.736007","203059.675993","189243.22501","202301.69059","Mapping"
"Mixed","Both","cave","16","m150reek.wav","None","722.983595449","115","197709.919482","190009.893852","190759.157788","191526.078605","192292.674172","193059.317352","193826.162112","194592.635556","198459.677477","199225.866481","199992.837694","200759.395232","201525.937313","202292.736007","203059.675993","203826.257956","203069.002821","Mapping"
"Mixed","Both","cave","16","m160cave.wav","None","720.426423941","115","197709.919482","204576.318013","190759.157788","191526.078605","192292.674172","193059.317352","193826.162112","194592.635556","198459.677477","199225.866481","199992.837694","200759.395232","201525.937313","202292.736007","203059.675993","203826.257956","203836.343186","Mapping"
"Mixed","Both","cave","16","m160depth.wav","space","511.454093968","115","197709.919482","204576.318013","205342.711999","191526.078605","192292.674172","193059.317352","193826.162112","194592.635556","198459.677477","199225.866481","199992.837694","200759.395232","201525.937313","202292.736007","203059.675993","203826.257956","204585.37617","Mapping"
"Mixed","Both","cave","16","m150cave.wav","None","733.884115238","115","197709.919482","204576.318013","205342.711999","206109.521823","192292.674172","193059.317352","193826.162112","194592.635556","198459.677477","199225.866481","199992.837694","200759.395232","201525.937313","202292.736007","203059.675993","203826.257956","205351.733982","Mapping"
"Mixed","Both","cave","16","m150tile.wav","space","490.250377683","115","197709.919482","204576.318013","205342.711999","206109.521823","206875.750402","193059.317352","193826.162112","194592.635556","198459.677477","199225.866481","199992.837694","200759.395232","201525.937313","202292.736007","203059.675993","203826.257956","206118.593274","Mapping"
"Mixed","Both","cave","16","m160tile.wav","None","729.796536034","115","197709.919482","204576.318013","205342.711999","206109.521823","206875.750402","207642.412132","193826.162112","194592.635556","198459.677477","199225.866481","199992.837694","200759.395232","201525.937313","202292.736007","203059.675993","203826.257956","206884.622127","Mapping"
"Mixed","Both","cave","16","m150dime.wav","None","728.056818713","115","197709.919482","204576.318013","205342.711999","206109.521823","206875.750402","207642.412132","208408.903199","194592.635556","198459.677477","199225.866481","199992.837694","200759.395232","201525.937313","202292.736007","203059.675993","203826.257956","207651.343527","Mapping"
"Mixed","Both","cave","16","m160jolt.wav","None","726.584226592","115","197709.919482","204576.318013","205342.711999","206109.521823","206875.750402","207642.412132","208408.903199","209175.67685","198459.677477","199225.866481","199992.837694","200759.395232","201525.937313","202292.736007","203059.675993","203826.257956","208417.730094","Mapping"
"Mixed","Both","ball","3","m160dime.wav","None","725.130803417","115","212292.98891","204576.318013","205342.711999","206109.521823","206875.750402","207642.412132","208408.903199","209175.67685","198459.677477","199225.866481","199992.837694","200759.395232","201525.937313","202292.736007","203059.675993","203826.257956","209184.522604","Mapping"
"Mixed","Both","ball","3","m150priest.wav","space","0.0340091064572","115","212292.98891","204576.318013","205342.711999","206109.521823","206875.750402","207642.412132","208408.903199","209175.67685","213042.336014","199225.866481","199992.837694","200759.395232","201525.937313","202292.736007","203059.675993","203826.257956","212302.678398","Mapping"
"Mixed","Both","ball","3","m160ball.wav","None","735.470482614","115","212292.98891","204576.318013","205342.711999","206109.521823","206875.750402","207642.412132","208408.903199","209175.67685","213042.336014","213809.003","199992.837694","200759.395232","201525.937313","202292.736007","203059.675993","203826.257956","213051.548138","Mapping"
"Mixed","Both","ball","3","m160tile.wav","space","398.858779809","115","212292.98891","204576.318013","205342.711999","206109.521823","206875.750402","207642.412132","208408.903199","209175.67685","213042.336014","213809.003","214575.607224","200759.395232","201525.937313","202292.736007","203059.675993","203826.257956","213817.846281","Mapping"
"Mixed","Both","ball","3","m150jaw.wav","None","731.511519989","115","212292.98891","204576.318013","205342.711999","206109.521823","206875.750402","207642.412132","208408.903199","209175.67685","213042.336014","213809.003","214575.607224","215342.537935","201525.937313","202292.736007","203059.675993","203826.257956","214584.568918","Mapping"
"Mixed","Both","ball","3","m160gnash.wav","None","729.245898779","115","212292.98891","204576.318013","205342.711999","206109.521823","206875.750402","207642.412132","208408.903199","209175.67685","213042.336014","213809.003","214575.607224","215342.537935","216109.056518","202292.736007","203059.675993","203826.257956","215351.647723","Mapping"
"Mixed","Both","ball","3","m150ball.wav","None","727.572962642","115","212292.98891","204576.318013","205342.711999","206109.521823","206875.750402","207642.412132","208408.903199","209175.67685","213042.336014","213809.003","214575.607224","215342.537935","216109.056518","216875.526252","203059.675993","203826.257956","216118.183001","Mapping"
"Mixed","Both","ball","3","m160jolt.wav","space","492.332968395","115","212292.98891","204576.318013","205342.711999","206109.521823","206875.750402","207642.412132","208408.903199","209175.67685","213042.336014","213809.003","214575.607224","215342.537935","216109.056518","216875.526252","217642.66349","203826.257956","216884.300587","Mapping"
"Mixed","Both","ball","3","m160ball.wav","space","0.0389558263123","115","212292.98891","204576.318013","205342.711999","206109.521823","206875.750402","207642.412132","208408.903199","209175.67685","213042.336014","213809.003","214575.607224","215342.537935","216109.056518","216875.526252","217642.66349","218409.423228","217652.165001","Mapping"
"Mixed","Both","ball","3","m150reek.wav","space","557.670540642","115","212292.98891","219158.579881","205342.711999","206109.521823","206875.750402","207642.412132","208408.903199","209175.67685","213042.336014","213809.003","214575.607224","215342.537935","216109.056518","216875.526252","217642.66349","218409.423228","218418.922884","Mapping"
"Mixed","Both","ball","3","m160greet.wav","None","736.31514376","115","212292.98891","219158.579881","219925.368991","206109.521823","206875.750402","207642.412132","208408.903199","209175.67685","213042.336014","213809.003","214575.607224","215342.537935","216109.056518","216875.526252","217642.66349","218409.423228","219167.455007","Mapping"
"Mixed","Both","ball","3","m150cad.wav","None","734.666323289","115","212292.98891","219158.579881","219925.368991","220692.127183","206875.750402","207642.412132","208408.903199","209175.67685","213042.336014","213809.003","214575.607224","215342.537935","216109.056518","216875.526252","217642.66349","218409.423228","219934.141162","Mapping"
"Mixed","Both","ball","3","m160jaw.wav","None","732.895997353","115","212292.98891","219158.579881","219925.368991","220692.127183","221458.875481","207642.412132","208408.903199","209175.67685","213042.336014","213809.003","214575.607224","215342.537935","216109.056518","216875.526252","217642.66349","218409.423228","220701.228005","Mapping"
"Mixed","Both","ball","3","m150ball.wav","None","731.257997919","115","212292.98891","219158.579881","219925.368991","220692.127183","221458.875481","222225.567511","208408.903199","209175.67685","213042.336014","213809.003","214575.607224","215342.537935","216109.056518","216875.526252","217642.66349","218409.423228","221467.946932","Mapping"
"Mixed","Both","ball","3","m150gnash.wav","space","357.381958282","115","212292.98891","219158.579881","219925.368991","220692.127183","221458.875481","222225.567511","222992.399595","209175.67685","213042.336014","213809.003","214575.607224","215342.537935","216109.056518","216875.526252","217642.66349","218409.423228","222235.128073","Mapping"
"Mixed","Both","ball","3","m150done.wav","None","726.818270981","115","212292.98891","219158.579881","219925.368991","220692.127183","221458.875481","222225.567511","222992.399595","223758.991761","213042.336014","213809.003","214575.607224","215342.537935","216109.056518","216875.526252","217642.66349","218409.423228","223001.338101","Mapping"
"Mixed","Both","tile","34","m150jolt.wav","None","724.929222604","115","226892.76173","219158.579881","219925.368991","220692.127183","221458.875481","222225.567511","222992.399595","223758.991761","213042.336014","213809.003","214575.607224","215342.537935","216109.056518","216875.526252","217642.66349","218409.423228","223768.162457","Mapping"
"Mixed","Both","tile","34","m150lash.wav","None","720.506808953","115","226892.76173","219158.579881","219925.368991","220692.127183","221458.875481","222225.567511","222992.399595","223758.991761","227659.317414","213809.003","214575.607224","215342.537935","216109.056518","216875.526252","217642.66349","218409.423228","226902.777086","Mapping"
"Mixed","Both","tile","34","m160tile.wav","None","719.641124131","115","226892.76173","219158.579881","219925.368991","220692.127183","221458.875481","222225.567511","222992.399595","223758.991761","227659.317414","228408.731917","214575.607224","215342.537935","216109.056518","216875.526252","217642.66349","218409.423228","227668.761418","Mapping"
"Mixed","Both","tile","34","m150ball.wav","space","598.651448265","115","226892.76173","219158.579881","219925.368991","220692.127183","221458.875481","222225.567511","222992.399595","223758.991761","227659.317414","228408.731917","229175.349745","215342.537935","216109.056518","216875.526252","217642.66349","218409.423228","228417.767813","Mapping"
"Mixed","Both","tile","34","m160reek.wav","None","733.333477518","115","226892.76173","219158.579881","219925.368991","220692.127183","221458.875481","222225.567511","222992.399595","223758.991761","227659.317414","228408.731917","229175.349745","229942.277054","216109.056518","216875.526252","217642.66349","218409.423228","229184.222088","Mapping"
"Mixed","Both","tile","34","m160gnash.wav","None","731.265417999","115","226892.76173","219158.579881","219925.368991","220692.127183","221458.875481","222225.567511","222992.399595","223758.991761","227659.317414","228408.731917","229175.349745","229942.277054","230708.827173","216875.526252","217642.66349","218409.423228","229951.318825","Mapping"
"Mixed","Both","tile","34","m150tile.wav","None","730.256586103","115","226892.76173","219158.579881","219925.368991","220692.127183","221458.875481","222225.567511","222992.399595","223758.991761","227659.317414","228408.731917","229175.349745","229942.277054","230708.827173","231475.529096","217642.66349","218409.423228","230717.849465","Mapping"
"Mixed","Both","tile","34","m160jaw.wav","space","451.442957623","115","226892.76173","219158.579881","219925.368991","220692.127183","221458.875481","222225.567511","222992.399595","223758.991761","227659.317414","228408.731917","229175.349745","229942.277054","230708.827173","231475.529096","232242.217724","218409.423228","231484.918995","Mapping"
"Mixed","Both","tile","34","m160tile.wav","None","726.237952709","115","226892.76173","219158.579881","219925.368991","220692.127183","221458.875481","222225.567511","222992.399595","223758.991761","227659.317414","228408.731917","229175.349745","229942.277054","230708.827173","231475.529096","232242.217724","233008.63428","232251.234451","Mapping"
"Mixed","Both","tile","34","m150gnash.wav","space","638.884465909","115","226892.76173","233775.723906","219925.368991","220692.127183","221458.875481","222225.567511","222992.399595","223758.991761","227659.317414","228408.731917","229175.349745","229942.277054","230708.827173","231475.529096","232242.217724","233008.63428","233017.460247","Mapping"
"Mixed","Both","tile","34","m160bluff.wav","None","721.479777014","115","226892.76173","233775.723906","234542.630501","220692.127183","221458.875481","222225.567511","222992.399595","223758.991761","227659.317414","228408.731917","229175.349745","229942.277054","230708.827173","231475.529096","232242.217724","233008.63428","233785.237474","Mapping"
"Mixed","Both","tile","34","m160done.wav","None","719.553937204","115","226892.76173","233775.723906","234542.630501","235291.864138","221458.875481","222225.567511","222992.399595","223758.991761","227659.317414","228408.731917","229175.349745","229942.277054","230708.827173","231475.529096","232242.217724","233008.63428","234552.188591","Mapping"
"Mixed","Both","tile","34","m150jaw.wav","None","735.507274279","115","226892.76173","233775.723906","234542.630501","235291.864138","236058.447648","222225.567511","222992.399595","223758.991761","227659.317414","228408.731917","229175.349745","229942.277054","230708.827173","231475.529096","232242.217724","233008.63428","235301.297322","Mapping"
"Mixed","Both","tile","34","m160lash.wav","None","734.554402763","115","226892.76173","233775.723906","234542.630501","235291.864138","236058.447648","236825.333528","222992.399595","223758.991761","227659.317414","228408.731917","229175.349745","229942.277054","230708.827173","231475.529096","232242.217724","233008.63428","236067.282581","Mapping"
"Mixed","Both","tile","34","m150tile.wav","None","732.48912557","115","226892.76173","233775.723906","234542.630501","235291.864138","236058.447648","236825.333528","237592.113363","223758.991761","227659.317414","228408.731917","229175.349745","229942.277054","230708.827173","231475.529096","232242.217724","233008.63428","236834.353347","Mapping"
"Mixed","Both","tile","34","m150knife.wav","space","527.176788077","115","226892.76173","233775.723906","234542.630501","235291.864138","236058.447648","236825.333528","237592.113363","238358.650805","227659.317414","228408.731917","229175.349745","229942.277054","230708.827173","231475.529096","232242.217724","233008.63428","237601.103192","Mapping"
"Mixed","Both","ball","11","m150cad.wav","None","727.686738363","115","241492.452618","233775.723906","234542.630501","235291.864138","236058.447648","236825.333528","237592.113363","238358.650805","227659.317414","228408.731917","229175.349745","229942.277054","230708.827173","231475.529096","232242.217724","233008.63428","238368.241667","Mapping"
"Mixed","Both","ball","11","m160knife.wav","None","720.346039161","115","241492.452618","233775.723906","234542.630501","235291.864138","236058.447648","236825.333528","237592.113363","238358.650805","242242.244622","228408.731917","229175.349745","229942.277054","230708.827173","231475.529096","232242.217724","233008.63428","241501.813455","Mapping"
"Mixed","Both","ball","11","m150bluff.wav","None","735.987420427","115","241492.452618","233775.723906","234542.630501","235291.864138","236058.447648","236825.333528","237592.113363","238358.650805","242242.244622","243008.483713","229175.349745","229942.277054","230708.827173","231475.529096","232242.217724","233008.63428","242251.144173","Mapping"
"Mixed","Both","ball","11","m160ball.wav","None","734.779789811","115","241492.452618","233775.723906","234542.630501","235291.864138","236058.447648","236825.333528","237592.113363","238358.650805","242242.244622","243008.483713","243775.265402","229942.277054","230708.827173","231475.529096","232242.217724","233008.63428","243017.575878","Mapping"
"Mixed","Both","ball","11","m150jaw.wav","space","407.491513994","115","241492.452618","233775.723906","234542.630501","235291.864138","236058.447648","236825.333528","237592.113363","238358.650805","242242.244622","243008.483713","243775.265402","244541.737918","230708.827173","231475.529096","232242.217724","233008.63428","243784.691165","Mapping"
"Mixed","Both","ball","11","m160jolt.wav","None","730.934602907","115","241492.452618","233775.723906","234542.630501","235291.864138","236058.447648","236825.333528","237592.113363","238358.650805","242242.244622","243008.483713","243775.265402","244541.737918","245308.544651","231475.529096","232242.217724","233008.63428","244550.631285","Mapping"
"Mixed","Both","ball","11","m150ball.wav","None","728.881383548","115","241492.452618","233775.723906","234542.630501","235291.864138","236058.447648","236825.333528","237592.113363","238358.650805","242242.244622","243008.483713","243775.265402","244541.737918","245308.544651","246075.410435","232242.217724","233008.63428","245317.699887","Mapping"
"Mixed","Both","ball","11","m150park.wav","space","538.699673023","115","241492.452618","233775.723906","234542.630501","235291.864138","236058.447648","236825.333528","237592.113363","238358.650805","242242.244622","243008.483713","243775.265402","244541.737918","245308.544651","246075.410435","246841.658182","233008.63428","246085.398585","Mapping"
"Mixed","Both","ball","11","m160greet.wav","None","725.291264243","115","241492.452618","233775.723906","234542.630501","235291.864138","236058.447648","236825.333528","237592.113363","238358.650805","242242.244622","243008.483713","243775.265402","244541.737918","245308.544651","246075.410435","246841.658182","247609.019881","246850.504246","Mapping"
"Mixed","Both","ball","11","m150ball.wav","None","722.550443839","115","241492.452618","248375.634926","234542.630501","235291.864138","236058.447648","236825.333528","237592.113363","238358.650805","242242.244622","243008.483713","243775.265402","244541.737918","245308.544651","246075.410435","246841.658182","247609.019881","247618.434823","Mapping"
"Mixed","Both","ball","11","m150priest.wav","space","559.206204023","115","241492.452618","248375.634926","249124.964716","235291.864138","236058.447648","236825.333528","237592.113363","238358.650805","242242.244622","243008.483713","243775.265402","244541.737918","245308.544651","246075.410435","246841.658182","247609.019881","248384.873949","Mapping"
"Mixed","Both","ball","11","m150greet.wav","None","736.631428124","115","241492.452618","248375.634926","249124.964716","249891.507105","236058.447648","236825.333528","237592.113363","238358.650805","242242.244622","243008.483713","243775.265402","244541.737918","245308.544651","246075.410435","246841.658182","247609.019881","249133.783881","Mapping"
"Mixed","Both","ball","11","m160jaw.wav","None","735.19037175","115","241492.452618","248375.634926","249124.964716","249891.507105","250658.237471","236825.333528","237592.113363","238358.650805","242242.244622","243008.483713","243775.265402","244541.737918","245308.544651","246075.410435","246841.658182","247609.019881","249900.293807","Mapping"
"Mixed","Both","ball","11","m160cad.wav","None","733.677278273","115","241492.452618","248375.634926","249124.964716","249891.507105","250658.237471","251424.891472","237592.113363","238358.650805","242242.244622","243008.483713","243775.265402","244541.737918","245308.544651","246075.410435","246841.658182","247609.019881","250667.047053","Mapping"
"Mixed","Both","ball","11","m160ball.wav","None","731.881909538","115","241492.452618","248375.634926","249124.964716","249891.507105","250658.237471","251424.891472","252191.847845","238358.650805","242242.244622","243008.483713","243775.265402","244541.737918","245308.544651","246075.410435","246841.658182","247609.019881","251433.882847","Mapping"
"Mixed","Both","ball","11","m160depth.wav","space","551.189651946","115","241492.452618","248375.634926","249124.964716","249891.507105","250658.237471","251424.891472","252191.847845","252958.3655","242242.244622","243008.483713","243775.265402","244541.737918","245308.544651","246075.410435","246841.658182","247609.019881","252200.78295","Mapping"
"Mixed","Both","done","46","m160tile.wav","None","727.28852299","115","256091.392216","248375.634926","249124.964716","249891.507105","250658.237471","251424.891472","252191.847845","252958.3655","242242.244622","243008.483713","243775.265402","244541.737918","245308.544651","246075.410435","246841.658182","247609.019881","252967.865465","Mapping"
"Mixed","Both","done","46","m150greet.wav","None","726.556091802","115","256091.392216","248375.634926","249124.964716","249891.507105","250658.237471","251424.891472","252191.847845","252958.3655","256858.552643","243008.483713","243775.265402","244541.737918","245308.544651","246075.410435","246841.658182","247609.019881","256100.064524","Mapping"
"Mixed","Both","done","46","m150done.wav","None","723.363878671","115","256091.392216","248375.634926","249124.964716","249891.507105","250658.237471","251424.891472","252191.847845","252958.3655","256858.552643","257625.270952","243775.265402","244541.737918","245308.544651","246075.410435","246841.658182","247609.019881","256868.221107","Mapping"
"Mixed","Both","done","46","m160depth.wav","space","461.180676706","115","256091.392216","248375.634926","249124.964716","249891.507105","250658.237471","251424.891472","252191.847845","252958.3655","256858.552643","257625.270952","258391.94072","244541.737918","245308.544651","246075.410435","246841.658182","247609.019881","257634.713101","Mapping"
"Mixed","Both","done","46","m160done.wav","None","719.837449025","115","256091.392216","248375.634926","249124.964716","249891.507105","250658.237471","251424.891472","252191.847845","252958.3655","256858.552643","257625.270952","258391.94072","259141.31163","245308.544651","246075.410435","246841.658182","247609.019881","258400.942298","Mapping"
"Mixed","Both","done","46","m160cling.wav","space","617.513487116","115","256091.392216","248375.634926","249124.964716","249891.507105","250658.237471","251424.891472","252191.847845","252958.3655","256858.552643","257625.270952","258391.94072","259141.31163","259908.278824","246075.410435","246841.658182","247609.019881","259150.328666","Mapping"
"Mixed","Both","done","46","m150reek.wav","None","732.852404239","115","256091.392216","248375.634926","249124.964716","249891.507105","250658.237471","251424.891472","252191.847845","252958.3655","256858.552643","257625.270952","258391.94072","259141.31163","259908.278824","260674.864497","246841.658182","247609.019881","259917.320285","Mapping"
"Mixed","Both","done","46","m150cling.wav","None","730.771359289","115","256091.392216","248375.634926","249124.964716","249891.507105","250658.237471","251424.891472","252191.847845","252958.3655","256858.552643","257625.270952","258391.94072","259141.31163","259908.278824","260674.864497","261442.015958","247609.019881","260684.436499","Mapping"
"Mixed","Both","done","46","m160done.wav","None","729.31360756","115","256091.392216","248375.634926","249124.964716","249891.507105","250658.237471","251424.891472","252191.847845","252958.3655","256858.552643","257625.270952","258391.94072","259141.31163","259908.278824","260674.864497","261442.015958","262208.232478","261450.991565","Mapping"
"Mixed","Both","done","46","m150knife.wav","space","534.557988867","115","256091.392216","262974.706231","249124.964716","249891.507105","250658.237471","251424.891472","252191.847845","252958.3655","256858.552643","257625.270952","258391.94072","259141.31163","259908.278824","260674.864497","261442.015958","262208.232478","262217.275485","Mapping"
"Mixed","Both","done","46","m150gnash.wav","None","725.742348004","115","256091.392216","262974.706231","263741.850581","249891.507105","250658.237471","251424.891472","252191.847845","252958.3655","256858.552643","257625.270952","258391.94072","259141.31163","259908.278824","260674.864497","261442.015958","262208.232478","262983.709664","Mapping"
"Mixed","Both","done","46","m160tile.wav","None","723.564222688","115","256091.392216","262974.706231","263741.850581","264508.325261","250658.237471","251424.891472","252191.847845","252958.3655","256858.552643","257625.270952","258391.94072","259141.31163","259908.278824","260674.864497","261442.015958","262208.232478","263751.006436","Mapping"
"Mixed","Both","done","46","m160dime.wav","None","722.530038329","115","256091.392216","262974.706231","263741.850581","264508.325261","265275.289672","251424.891472","252191.847845","252958.3655","256858.552643","257625.270952","258391.94072","259141.31163","259908.278824","260674.864497","261442.015958","262208.232478","264517.257893","Mapping"
"Mixed","Both","done","46","m150done.wav","None","720.209075371","115","256091.392216","262974.706231","263741.850581","264508.325261","265275.289672","266024.964499","252191.847845","252958.3655","256858.552643","257625.270952","258391.94072","259141.31163","259908.278824","260674.864497","261442.015958","262208.232478","265284.660712","Mapping"
"Mixed","Both","done","46","m160bluff.wav","space","549.726644531","115","256091.392216","262974.706231","263741.850581","264508.325261","265275.289672","266024.964499","266791.683426","252958.3655","256858.552643","257625.270952","258391.94072","259141.31163","259908.278824","260674.864497","261442.015958","262208.232478","266034.00596","Mapping"
"Mixed","Both","done","46","m150jolt.wav","None","733.57648775","115","256091.392216","262974.706231","263741.850581","264508.325261","265275.289672","266024.964499","266791.683426","267558.17944","256858.552643","257625.270952","258391.94072","259141.31163","259908.278824","260674.864497","261442.015958","262208.232478","266800.598436","Mapping"
"Mixed","Both","cave","14","m150ball.wav","None","731.78421054","115","270691.583038","262974.706231","263741.850581","264508.325261","265275.289672","266024.964499","266791.683426","267558.17944","256858.552643","257625.270952","258391.94072","259141.31163","259908.278824","260674.864497","261442.015958","262208.232478","267567.79349","Mapping"
"Mixed","Both","cave","14","m160knife.wav","None","721.958995564","115","270691.583038","262974.706231","263741.850581","264508.325261","265275.289672","266024.964499","266791.683426","267558.17944","271458.51313","257625.270952","258391.94072","259141.31163","259908.278824","260674.864497","261442.015958","262208.232478","270700.543496","Mapping"
"Mixed","Both","cave","14","m160gnash.wav","None","719.233943149","115","270691.583038","262974.706231","263741.850581","264508.325261","265275.289672","266024.964499","266791.683426","267558.17944","271458.51313","272208.241754","258391.94072","259141.31163","259908.278824","260674.864497","261442.015958","262208.232478","271468.441918","Mapping"
"Mixed","Both","cave","14","m160knife.wav","None","735.072267707","115","270691.583038","262974.706231","263741.850581","264508.325261","265275.289672","266024.964499","266791.683426","267558.17944","271458.51313","272208.241754","272974.418391","259141.31163","259908.278824","260674.864497","261442.015958","262208.232478","272217.755013","Mapping"
"Mixed","Both","cave","14","m150park.wav","None","734.677453525","115","270691.583038","262974.706231","263741.850581","264508.325261","265275.289672","266024.964499","266791.683426","267558.17944","271458.51313","272208.241754","272974.418391","273741.202554","259908.278824","260674.864497","261442.015958","262208.232478","272983.325053","Mapping"
"Mixed","Both","cave","14","m150cad.wav","None","733.144263737","115","270691.583038","262974.706231","263741.850581","264508.325261","265275.289672","266024.964499","266791.683426","267558.17944","271458.51313","272208.241754","272974.418391","273741.202554","274507.821618","260674.864497","261442.015958","262208.232478","273750.018937","Mapping"
"Mixed","Both","cave","14","m150cave.wav","None","731.960439356","115","270691.583038","262974.706231","263741.850581","264508.325261","265275.289672","266024.964499","266791.683426","267558.17944","271458.51313","272208.241754","272974.418391","273741.202554","274507.821618","275274.477474","261442.015958","262208.232478","274516.607084","Mapping"
"Mixed","Both","cave","14","m150romp.wav","space","604.098152602","115","270691.583038","262974.706231","263741.850581","264508.325261","265275.289672","266024.964499","266791.683426","267558.17944","271458.51313","272208.241754","272974.418391","273741.202554","274507.821618","275274.477474","276041.453943","262208.232478","275283.508732","Mapping"
"Mixed","Both","cave","14","m150park.wav","None","727.372309193","115","270691.583038","262974.706231","263741.850581","264508.325261","265275.289672","266024.964499","266791.683426","267558.17944","271458.51313","272208.241754","272974.418391","273741.202554","274507.821618","275274.477474","276041.453943","276808.017356","276050.490766","Mapping"
"Mixed","Both","cave","14","m150cave.wav","None","726.178591605","115","270691.583038","277574.459573","263741.850581","264508.325261","265275.289672","266024.964499","266791.683426","267558.17944","271458.51313","272208.241754","272974.418391","273741.202554","274507.821618","275274.477474","276041.453943","276808.017356","276817.135492","Mapping"
"Mixed","Both","cave","14","m160romp.wav","space","568.314755568","115","270691.583038","277574.459573","278341.560638","264508.325261","265275.289672","266024.964499","266791.683426","267558.17944","271458.51313","272208.241754","272974.418391","273741.202554","274507.821618","275274.477474","276041.453943","276808.017356","277583.21103","Mapping"
"Mixed","Both","cave","14","m160cave.wav","None","721.993623069","115","270691.583038","277574.459573","278341.560638","279108.179084","265275.289672","266024.964499","266791.683426","267558.17944","271458.51313","272208.241754","272974.418391","273741.202554","274507.821618","275274.477474","276041.453943","276808.017356","278350.588805","Mapping"
"Mixed","Both","cave","14","m160depth.wav","space","530.149179278","115","270691.583038","277574.459573","278341.560638","279108.179084","279857.75714","266024.964499","266791.683426","267558.17944","271458.51313","272208.241754","272974.418391","273741.202554","274507.821618","275274.477474","276041.453943","276808.017356","279117.395846","Mapping"
"Mixed","Both","cave","14","m160cave.wav","None","735.118643614","115","270691.583038","277574.459573","278341.560638","279108.179084","279857.75714","280624.280979","266791.683426","267558.17944","271458.51313","272208.241754","272974.418391","273741.202554","274507.821618","275274.477474","276041.453943","276808.017356","279867.064181","Mapping"
"Mixed","Both","cave","14","m150park.wav","space","630.155578954","115","270691.583038","277574.459573","278341.560638","279108.179084","279857.75714","280624.280979","281391.395957","267558.17944","271458.51313","272208.241754","272974.418391","273741.202554","274507.821618","275274.477474","276041.453943","276808.017356","280633.334189","Mapping"
"Mixed","Both","cave","14","m160knife.wav","None","731.112377485","115","270691.583038","277574.459573","278341.560638","279108.179084","279857.75714","280624.280979","281391.395957","282158.170845","271458.51313","272208.241754","272974.418391","273741.202554","274507.821618","275274.477474","276041.453943","276808.017356","281400.362289","Mapping"
"Mixed","Both","tile","32","m150jolt.wav","None","729.417180642","115","285291.606597","277574.459573","278341.560638","279108.179084","279857.75714","280624.280979","281391.395957","282158.170845","271458.51313","272208.241754","272974.418391","273741.202554","274507.821618","275274.477474","276041.453943","276808.017356","282167.331028","Mapping"
"Mixed","Both","tile","32","m160dime.wav","None","721.097329864","115","285291.606597","277574.459573","278341.560638","279108.179084","279857.75714","280624.280979","281391.395957","282158.170845","286058.090243","272208.241754","272974.418391","273741.202554","274507.821618","275274.477474","276041.453943","276808.017356","285301.147682","Mapping"
"Mixed","Both","tile","32","m150tile.wav","None","719.820753671","115","285291.606597","277574.459573","278341.560638","279108.179084","279857.75714","280624.280979","281391.395957","282158.170845","286058.090243","286807.961704","272974.418391","273741.202554","274507.821618","275274.477474","276041.453943","276808.017356","286067.676468","Mapping"
"Mixed","Both","tile","32","m150bluff.wav","space","542.209407315","115","285291.606597","277574.459573","278341.560638","279108.179084","279857.75714","280624.280979","281391.395957","282158.170845","286058.090243","286807.961704","287574.268195","273741.202554","274507.821618","275274.477474","276041.453943","276808.017356","286817.126526","Mapping"
"Mixed","Both","tile","32","m160tile.wav","None","734.122487484","115","285291.606597","277574.459573","278341.560638","279108.179084","279857.75714","280624.280979","281391.395957","282158.170845","286058.090243","286807.961704","287574.268195","288340.947239","274507.821618","275274.477474","276041.453943","276808.017356","287583.04624","Mapping"
"Mixed","Both","tile","32","m160park.wav","space","665.559002198","115","285291.606597","277574.459573","278341.560638","279108.179084","279857.75714","280624.280979","281391.395957","282158.170845","286058.090243","286807.961704","287574.268195","288340.947239","289107.535695","275274.477474","276041.453943","276808.017356","288349.745071","Mapping"
"Mixed","Both","tile","32","m150ball.wav","None","730.483828345","115","285291.606597","277574.459573","278341.560638","279108.179084","279857.75714","280624.280979","281391.395957","282158.170845","286058.090243","286807.961704","287574.268195","288340.947239","289107.535695","289874.225251","276041.453943","276808.017356","289116.369701","Mapping"
"Mixed","Both","tile","32","m160tile.wav","None","729.388427455","115","285291.606597","277574.459573","278341.560638","279108.179084","279857.75714","280624.280979","281391.395957","282158.170845","286058.090243","286807.961704","287574.268195","288340.947239","289107.535695","289874.225251","290640.911405","276808.017356","289883.09543","Mapping"
"Mixed","Both","tile","32","m160knife.wav","space","637.547601247","115","285291.606597","277574.459573","278341.560638","279108.179084","279857.75714","280624.280979","281391.395957","282158.170845","286058.090243","286807.961704","287574.268195","288340.947239","289107.535695","289874.225251","290640.911405","291407.701442","290649.750976","Mapping"
"Mixed","Both","tile","32","m160cave.wav","None","725.263438653","115","285291.606597","292174.75304","278341.560638","279108.179084","279857.75714","280624.280979","281391.395957","282158.170845","286058.090243","286807.961704","287574.268195","288340.947239","289107.535695","289874.225251","290640.911405","291407.701442","291416.837511","Mapping"
"Mixed","Both","tile","32","m160dime.wav","None","723.428186495","115","285291.606597","292174.75304","292941.389418","279108.179084","279857.75714","280624.280979","281391.395957","282158.170845","286058.090243","286807.961704","287574.268195","288340.947239","289107.535695","289874.225251","290640.911405","291407.701442","292184.214977","Mapping"
"Mixed","Both","tile","32","m150jaw.wav","None","721.707637655","115","285291.606597","292174.75304","292941.389418","293707.625726","279857.75714","280624.280979","281391.395957","282158.170845","286058.090243","286807.961704","287574.268195","288340.947239","289107.535695","289874.225251","290640.911405","291407.701442","292951.20474","Mapping"
"Mixed","Both","tile","32","m160dime.wav","None","721.79544298","115","285291.606597","292174.75304","292941.389418","293707.625726","294474.504805","280624.280979","281391.395957","282158.170845","286058.090243","286807.961704","287574.268195","288340.947239","289107.535695","289874.225251","290640.911405","291407.701442","293716.811262","Mapping"
"Mixed","Both","tile","32","m150tile.wav","None","720.212166896","115","285291.606597","292174.75304","292941.389418","293707.625726","294474.504805","295224.018862","281391.395957","282158.170845","286058.090243","286807.961704","287574.268195","288340.947239","289107.535695","289874.225251","290640.911405","291407.701442","294483.916346","Mapping"
"Mixed","Both","tile","32","m150lash.wav","space","438.284236938","115","285291.606597","292174.75304","292941.389418","293707.625726","294474.504805","295224.018862","295991.101068","282158.170845","286058.090243","286807.961704","287574.268195","288340.947239","289107.535695","289874.225251","290640.911405","291407.701442","295232.932325","Mapping"
"Mixed","Both","tile","32","m150jolt.wav","None","733.594110701","115","285291.606597","292174.75304","292941.389418","293707.625726","294474.504805","295224.018862","295991.101068","296757.506184","286058.090243","286807.961704","287574.268195","288340.947239","289107.535695","289874.225251","290640.911405","291407.701442","296000.091206","Mapping"
"Mixed","Both","tile","27","m160lash.wav","None","732.56549146","115","299891.43785","292174.75304","292941.389418","293707.625726","294474.504805","295224.018862","295991.101068","296757.506184","286058.090243","286807.961704","287574.268195","288340.947239","289107.535695","289874.225251","290640.911405","291407.701442","296766.641634","Mapping"
"Mixed","Both","tile","27","m160dime.wav","None","721.251297975","115","299891.43785","292174.75304","292941.389418","293707.625726","294474.504805","295224.018862","295991.101068","296757.506184","300657.921806","286807.961704","287574.268195","288340.947239","289107.535695","289874.225251","290640.911405","291407.701442","299900.984191","Mapping"
"Mixed","Both","tile","27","m160tile.wav","None","719.621337019","115","299891.43785","292174.75304","292941.389418","293707.625726","294474.504805","295224.018862","295991.101068","296757.506184","300657.921806","301407.719993","287574.268195","288340.947239","289107.535695","289874.225251","290640.911405","291407.701442","300667.99405","Mapping"
"Mixed","Both","tile","27","m150done.wav","space","446.239263751","115","299891.43785","292174.75304","292941.389418","293707.625726","294474.504805","295224.018862","295991.101068","296757.506184","300657.921806","301407.719993","302174.011024","288340.947239","289107.535695","289874.225251","290640.911405","291407.701442","301416.874611","Mapping"
"Mixed","Both","tile","27","m150lash.wav","None","734.438462649","115","299891.43785","292174.75304","292941.389418","293707.625726","294474.504805","295224.018862","295991.101068","296757.506184","300657.921806","301407.719993","302174.011024","302940.980073","289107.535695","289874.225251","290640.911405","291407.701442","302182.809475","Mapping"
"Mixed","Both","tile","27","m150bluff.wav","None","732.793970499","115","299891.43785","292174.75304","292941.389418","293707.625726","294474.504805","295224.018862","295991.101068","296757.506184","300657.921806","301407.719993","302174.011024","302940.980073","303707.484434","289874.225251","290640.911405","291407.701442","302949.991853","Mapping"
"Mixed","Both","tile","27","m150priest.wav","None","731.811108766","115","299891.43785","292174.75304","292941.389418","293707.625726","294474.504805","295224.018862","295991.101068","296757.506184","300657.921806","301407.719993","302174.011024","302940.980073","303707.484434","304474.039499","290640.911405","291407.701442","303717.121362","Mapping"
"Mixed","Both","tile","27","m150tile.wav","None","731.350749731","115","299891.43785","292174.75304","292941.389418","293707.625726","294474.504805","295224.018862","295991.101068","296757.506184","300657.921806","301407.719993","302174.011024","302940.980073","303707.484434","304474.039499","305240.943003","291407.701442","304483.043551","Mapping"
"Mixed","Both","tile","27","m160romp.wav","space","621.103606187","115","299891.43785","292174.75304","292941.389418","293707.625726","294474.504805","295224.018862","295991.101068","296757.506184","300657.921806","301407.719993","302174.011024","302940.980073","303707.484434","304474.039499","305240.943003","306007.43376","305249.987556","Mapping"
"Mixed","Both","tile","27","m160ball.wav","None","727.423941251","115","299891.43785","306774.108785","292941.389418","293707.625726","294474.504805","295224.018862","295991.101068","296757.506184","300657.921806","301407.719993","302174.011024","302940.980073","303707.484434","304474.039499","305240.943003","306007.43376","306016.994632","Mapping"
"Mixed","Both","tile","27","m150tile.wav","None","726.685017115","115","299891.43785","306774.108785","307540.901296","293707.625726","294474.504805","295224.018862","295991.101068","296757.506184","300657.921806","301407.719993","302174.011024","302940.980073","303707.484434","304474.039499","305240.943003","306007.43376","306783.358938","Mapping"
"Mixed","Both","tile","27","m150park.wav","space","673.278129427","115","299891.43785","306774.108785","307540.901296","308307.89786","294474.504805","295224.018862","295991.101068","296757.506184","300657.921806","301407.719993","302174.011024","302940.980073","303707.484434","304474.039499","305240.943003","306007.43376","307549.740867","Mapping"
"Mixed","Both","tile","27","m160tile.wav","None","722.172015812","115","299891.43785","306774.108785","307540.901296","308307.89786","309074.371613","295224.018862","295991.101068","296757.506184","300657.921806","301407.719993","302174.011024","302940.980073","303707.484434","304474.039499","305240.943003","306007.43376","308317.489959","Mapping"
"Mixed","Both","tile","27","m160cad.wav","space","587.326125009","115","299891.43785","306774.108785","307540.901296","308307.89786","309074.371613","309823.764474","295991.101068","296757.506184","300657.921806","301407.719993","302174.011024","302940.980073","303707.484434","304474.039499","305240.943003","306007.43376","309083.637225","Mapping"
"Mixed","Both","tile","27","m160bluff.wav","None","736.749841599","115","299891.43785","306774.108785","307540.901296","308307.89786","309074.371613","309823.764474","310590.403944","296757.506184","300657.921806","301407.719993","302174.011024","302940.980073","303707.484434","304474.039499","305240.943003","306007.43376","309832.597553","Mapping"
"Mixed","Both","tile","27","m150jolt.wav","None","735.573746497","115","299891.43785","306774.108785","307540.901296","308307.89786","309074.371613","309823.764474","310590.403944","311357.319505","300657.921806","301407.719993","302174.011024","302940.980073","303707.484434","304474.039499","305240.943003","306007.43376","310599.342141","Mapping"
"Mixed","Both","ball","5","m160cad.wav","None","734.071164858","115","314491.092565","306774.108785","307540.901296","308307.89786","309074.371613","309823.764474","310590.403944","311357.319505","300657.921806","301407.719993","302174.011024","302940.980073","303707.484434","304474.039499","305240.943003","306007.43376","311366.450317","Mapping"
"Mixed","Both","ball","5","m150ball.wav","None","721.127628814","115","314491.092565","306774.108785","307540.901296","308307.89786","309074.371613","309823.764474","310590.403944","311357.319505","315257.987412","301407.719993","302174.011024","302940.980073","303707.484434","304474.039499","305240.943003","306007.43376","314500.630559","Mapping"
"Mixed","Both","ball","5","m160lash.wav","space","579.092842527","115","314491.092565","306774.108785","307540.901296","308307.89786","309074.371613","309823.764474","310590.403944","311357.319505","315257.987412","316007.049458","302174.011024","302940.980073","303707.484434","304474.039499","305240.943003","306007.43376","315267.782947","Mapping"
"Mixed","Both","ball","5","m150reek.wav","None","735.350832809","115","314491.092565","306774.108785","307540.901296","308307.89786","309074.371613","309823.764474","310590.403944","311357.319505","315257.987412","316007.049458","316773.687073","302940.980073","303707.484434","304474.039499","305240.943003","306007.43376","316015.853165","Mapping"
"Mixed","Both","ball","5","m160ball.wav","None","734.162680339","115","314491.092565","306774.108785","307540.901296","308307.89786","309074.371613","309823.764474","310590.403944","311357.319505","315257.987412","316007.049458","316773.687073","317540.400435","303707.484434","304474.039499","305240.943003","306007.43376","316782.481195","Mapping"
"Mixed","Both","ball","5","m160reek.wav","space","665.519737173","115","314491.092565","306774.108785","307540.901296","308307.89786","309074.371613","309823.764474","310590.403944","311357.319505","315257.987412","316007.049458","316773.687073","317540.400435","318307.139768","304474.039499","305240.943003","306007.43376","317549.293493","Mapping"
"Mixed","Both","ball","5","m160jaw.wav","None","730.226596119","115","314491.092565","306774.108785","307540.901296","308307.89786","309074.371613","309823.764474","310590.403944","311357.319505","315257.987412","316007.049458","316773.687073","317540.400435","318307.139768","319073.792223","305240.943003","306007.43376","318316.211218","Mapping"
"Mixed","Both","ball","5","m150cad.wav","None","728.649812751","115","314491.092565","306774.108785","307540.901296","308307.89786","309074.371613","309823.764474","310590.403944","311357.319505","315257.987412","316007.049458","316773.687073","317540.400435","318307.139768","319073.792223","319840.047699","306007.43376","319083.364843","Mapping"
"Mixed","Both","ball","5","m160jolt.wav","None","732.314133551","115","314491.092565","306774.108785","307540.901296","308307.89786","309074.371613","309823.764474","310590.403944","311357.319505","315257.987412","316007.049458","316773.687073","317540.400435","318307.139768","319073.792223","319840.047699","320607.159276","319848.703621","Mapping"
"Mixed","Both","ball","5","m160gnash.wav","None","729.900727514","115","314491.092565","321373.659","307540.901296","308307.89786","309074.371613","309823.764474","310590.403944","311357.319505","315257.987412","316007.049458","316773.687073","317540.400435","318307.139768","319073.792223","319840.047699","320607.159276","320616.73468","Mapping"
"Mixed","Both","ball","5","m150knife.wav","None","729.966272367","115","314491.092565","321373.659","322140.641033","308307.89786","309074.371613","309823.764474","310590.403944","311357.319505","315257.987412","316007.049458","316773.687073","317540.400435","318307.139768","319073.792223","319840.047699","320607.159276","321382.452813","Mapping"
"Mixed","Both","ball","5","m150priest.wav","None","728.473893134","115","314491.092565","321373.659","322140.641033","322906.899293","309074.371613","309823.764474","310590.403944","311357.319505","315257.987412","316007.049458","316773.687073","317540.400435","318307.139768","319073.792223","319840.047699","320607.159276","322149.607984","Mapping"
"Mixed","Both","ball","5","m150ball.wav","None","728.611475322","115","314491.092565","321373.659","322140.641033","322906.899293","323673.771261","309823.764474","310590.403944","311357.319505","315257.987412","316007.049458","316773.687073","317540.400435","318307.139768","319073.792223","319840.047699","320607.159276","322915.746902","Mapping"
"Mixed","Both","ball","5","m150dime.wav","space","428.02617955","115","314491.092565","321373.659","322140.641033","322906.899293","323673.771261","324440.144223","310590.403944","311357.319505","315257.987412","316007.049458","316773.687073","317540.400435","318307.139768","319073.792223","319840.047699","320607.159276","323682.701419","Mapping"
"Mixed","Both","ball","5","m160ball.wav","None","725.219227141","115","314491.092565","321373.659","322140.641033","322906.899293","323673.771261","324440.144223","325207.337731","311357.319505","315257.987412","316007.049458","316773.687073","317540.400435","318307.139768","319073.792223","319840.047699","320607.159276","324449.091077","Mapping"
"Mixed","Both","ball","5","m150park.wav","None","723.419529619","115","314491.092565","321373.659","322140.641033","322906.899293","323673.771261","324440.144223","325207.337731","325973.976273","315257.987412","316007.049458","316773.687073","317540.400435","318307.139768","319073.792223","319840.047699","320607.159276","325216.458959","Mapping"
"Mixed","Both","ball","8","m150dime.wav","space","0.026588793844","115","329090.81499","321373.659","322140.641033","322906.899293","323673.771261","324440.144223","325207.337731","325973.976273","315257.987412","316007.049458","316773.687073","317540.400435","318307.139768","319073.792223","319840.047699","320607.159276","325983.270329","Mapping"
"Mixed","Both","ball","8","m150romp.wav","None","721.221617423","115","329090.81499","321373.659","322140.641033","322906.899293","323673.771261","324440.144223","325207.337731","325973.976273","329857.311622","316007.049458","316773.687073","317540.400435","318307.139768","319073.792223","319840.047699","320607.159276","329100.245082","Mapping"
"Mixed","Both","ball","8","m150tile.wav","None","720.001311041","115","329090.81499","321373.659","322140.641033","322906.899293","323673.771261","324440.144223","325207.337731","325973.976273","329857.311622","330606.959551","316773.687073","317540.400435","318307.139768","319073.792223","319840.047699","320607.159276","329866.909594","Mapping"
"Mixed","Both","ball","8","m150jolt.wav","None","736.540840473","115","329090.81499","321373.659","322140.641033","322906.899293","323673.771261","324440.144223","325207.337731","325973.976273","329857.311622","330606.959551","331373.391565","317540.400435","318307.139768","319073.792223","319840.047699","320607.159276","330615.967312","Mapping"
"Mixed","Both","ball","8","m150ball.wav","None","735.515931388","115","329090.81499","321373.659","322140.641033","322906.899293","323673.771261","324440.144223","325207.337731","325973.976273","329857.311622","330606.959551","331373.391565","332140.278373","318307.139768","319073.792223","319840.047699","320607.159276","331382.465798","Mapping"
"Mixed","Both","ball","8","m160priest.wav","space","409.173416207","115","329090.81499","321373.659","322140.641033","322906.899293","323673.771261","324440.144223","325207.337731","325973.976273","329857.311622","330606.959551","331373.391565","332140.278373","332906.944741","319073.792223","319840.047699","320607.159276","332149.423407","Mapping"
"Mixed","Both","ball","8","m160romp.wav","None","731.946217595","115","329090.81499","321373.659","322140.641033","322906.899293","323673.771261","324440.144223","325207.337731","325973.976273","329857.311622","330606.959551","331373.391565","332140.278373","332906.944741","333673.619147","319840.047699","320607.159276","332915.994241","Mapping"
"Mixed","Both","ball","8","m160ball.wav","None","730.919144116","115","329090.81499","321373.659","322140.641033","322906.899293","323673.771261","324440.144223","325207.337731","325973.976273","329857.311622","330606.959551","331373.391565","332140.278373","332906.944741","333673.619147","334440.10032","320607.159276","333682.660609","Mapping"
"Mixed","Both","ball","8","m160cave.wav","space","637.474636082","115","329090.81499","321373.659","322140.641033","322906.899293","323673.771261","324440.144223","325207.337731","325973.976273","329857.311622","330606.959551","331373.391565","332140.278373","332906.944741","333673.619147","334440.10032","335206.763597","334449.037281","Mapping"
"Mixed","Both","ball","8","m160knife.wav","None","727.423632052","115","329090.81499","335973.363801","322140.641033","322906.899293","323673.771261","324440.144223","325207.337731","325973.976273","329857.311622","330606.959551","331373.391565","332140.278373","332906.944741","333673.619147","334440.10032","335206.763597","335215.88637","Mapping"
"Mixed","Both","ball","8","m160jolt.wav","None","726.817961549","115","329090.81499","335973.363801","336740.37768","322906.899293","323673.771261","324440.144223","325207.337731","325973.976273","329857.311622","330606.959551","331373.391565","332140.278373","332906.944741","333673.619147","334440.10032","335206.763597","335982.14834","Mapping"
"Mixed","Both","ball","8","m160ball.wav","None","725.15275469","115","329090.81499","335973.363801","336740.37768","337507.651882","323673.771261","324440.144223","325207.337731","325973.976273","329857.311622","330606.959551","331373.391565","332140.278373","332906.944741","333673.619147","334440.10032","335206.763597","336749.391315","Mapping"
"Mixed","Both","ball","8","m150jolt.wav","space","593.307389645","115","329090.81499","335973.363801","336740.37768","337507.651882","338273.732058","324440.144223","325207.337731","325973.976273","329857.311622","330606.959551","331373.391565","332140.278373","332906.944741","333673.619147","334440.10032","335206.763597","337517.164214","Mapping"
"Mixed","Both","ball","8","m160cad.wav","None","720.68272857","115","329090.81499","335973.363801","336740.37768","337507.651882","338273.732058","339040.739134","325207.337731","325973.976273","329857.311622","330606.959551","331373.391565","332140.278373","332906.944741","333673.619147","334440.10032","335206.763597","338283.528829","Mapping"
"Mixed","Both","ball","8","m150ball.wav","None","719.427176053","115","329090.81499","335973.363801","336740.37768","337507.651882","338273.732058","339040.739134","339789.997814","325973.976273","329857.311622","330606.959551","331373.391565","332140.278373","332906.944741","333673.619147","334440.10032","335206.763597","339050.43326","Mapping"
"Mixed","Both","ball","8","m150depth.wav","space","503.538951045","115","329090.81499","335973.363801","336740.37768","337507.651882","338273.732058","339040.739134","339789.997814","340556.722616","329857.311622","330606.959551","331373.391565","332140.278373","332906.944741","333673.619147","334440.10032","335206.763597","339798.90293","Mapping"
"Mixed","Both","done","40","m150park.wav","None","733.891226118","115","343690.156822","335973.363801","336740.37768","337507.651882","338273.732058","339040.739134","339789.997814","340556.722616","329857.311622","330606.959551","331373.391565","332140.278373","332906.944741","333673.619147","334440.10032","335206.763597","340565.823438","Mapping"
"Mixed","Both","done","40","m150depth.wav","None","721.092692344","115","343690.156822","335973.363801","336740.37768","337507.651882","338273.732058","339040.739134","339789.997814","340556.722616","344457.207801","330606.959551","331373.391565","332140.278373","332906.944741","333673.619147","334440.10032","335206.763597","343699.230128","Mapping"
"Mixed","Both","done","40","m160done.wav","None","719.01288419","115","343690.156822","335973.363801","336740.37768","337507.651882","338273.732058","339040.739134","339789.997814","340556.722616","344457.207801","345206.708873","331373.391565","332140.278373","332906.944741","333673.619147","334440.10032","335206.763597","344466.860807","Mapping"
"Mixed","Both","done","40","m160park.wav","space","534.559843829","115","343690.156822","335973.363801","336740.37768","337507.651882","338273.732058","339040.739134","339789.997814","340556.722616","344457.207801","345206.708873","345973.352671","332140.278373","332906.944741","333673.619147","334440.10032","335206.763597","345215.774759","Mapping"
"Mixed","Both","done","40","m160ball.wav","None","733.215991873","115","343690.156822","335973.363801","336740.37768","337507.651882","338273.732058","339040.739134","339789.997814","340556.722616","344457.207801","345206.708873","345973.352671","346739.57352","332906.944741","333673.619147","334440.10032","335206.763597","345982.328278","Mapping"
"Mixed","Both","done","40","m160done.wav","None","733.955843374","115","343690.156822","335973.363801","336740.37768","337507.651882","338273.732058","339040.739134","339789.997814","340556.722616","344457.207801","345206.708873","345973.352671","346739.57352","347506.78496","333673.619147","334440.10032","335206.763597","346748.239336","Mapping"
"Mixed","Both","done","40","m160greet.wav","space","530.064156512","115","343690.156822","335973.363801","336740.37768","337507.651882","338273.732058","339040.739134","339789.997814","340556.722616","344457.207801","345206.708873","345973.352671","346739.57352","347506.78496","348273.208009","334440.10032","335206.763597","347516.207014","Mapping"
"Mixed","Both","done","40","m150done.wav","None","729.674412636","115","343690.156822","335973.363801","336740.37768","337507.651882","338273.732058","339040.739134","339789.997814","340556.722616","344457.207801","345206.708873","345973.352671","346739.57352","347506.78496","348273.208009","349039.806359","335206.763597","348282.186399","Mapping"
"Mixed","Both","done","40","m150cave.wav","space","605.542609701","115","343690.156822","335973.363801","336740.37768","337507.651882","338273.732058","339040.739134","339789.997814","340556.722616","344457.207801","345206.708873","345973.352671","346739.57352","347506.78496","348273.208009","349039.806359","349806.427278","349048.733426","Mapping"
"Mixed","Both","done","40","m150romp.wav","None","726.543725003","115","343690.156822","350573.337274","336740.37768","337507.651882","338273.732058","339040.739134","339789.997814","340556.722616","344457.207801","345206.708873","345973.352671","346739.57352","347506.78496","348273.208009","349039.806359","349806.427278","349815.243043","Mapping"
"Mixed","Both","done","40","m160park.wav","None","725.177179556","115","343690.156822","350573.337274","351339.710855","337507.651882","338273.732058","339040.739134","339789.997814","340556.722616","344457.207801","345206.708873","345973.352671","346739.57352","347506.78496","348273.208009","349039.806359","349806.427278","350582.318756","Mapping"
"Mixed","Both","done","40","m150jaw.wav","None","728.431227384","115","343690.156822","350573.337274","351339.710855","352106.519443","338273.732058","339040.739134","339789.997814","340556.722616","344457.207801","345206.708873","345973.352671","346739.57352","347506.78496","348273.208009","349039.806359","349806.427278","351348.572996","Mapping"
"Mixed","Both","done","40","m160dime.wav","None","727.045203792","115","343690.156822","350573.337274","351339.710855","352106.519443","352873.471796","339040.739134","339789.997814","340556.722616","344457.207801","345206.708873","345973.352671","346739.57352","347506.78496","348273.208009","349039.806359","349806.427278","352115.554411","Mapping"
"Mixed","Both","done","40","m150done.wav","None","725.955677452","115","343690.156822","350573.337274","351339.710855","352106.519443","352873.471796","353640.08344","339789.997814","340556.722616","344457.207801","345206.708873","345973.352671","346739.57352","347506.78496","348273.208009","349039.806359","349806.427278","352882.567671","Mapping"
"Mixed","Both","done","40","m150tile.wav","space","397.101130337","115","343690.156822","350573.337274","351339.710855","352106.519443","352873.471796","353640.08344","354406.700649","340556.722616","344457.207801","345206.708873","345973.352671","346739.57352","347506.78496","348273.208009","349039.806359","349806.427278","353649.092128","Mapping"
"Mixed","Both","done","40","m160greet.wav","None","722.388437251","115","343690.156822","350573.337274","351339.710855","352106.519443","352873.471796","353640.08344","354406.700649","355173.355886","344457.207801","345206.708873","345973.352671","346739.57352","347506.78496","348273.208009","349039.806359","349806.427278","354415.818785","Mapping"
"Mixed","Both","tile","29","m150done.wav","None","721.492762445","115","358290.363102","350573.337274","351339.710855","352106.519443","352873.471796","353640.08344","354406.700649","355173.355886","344457.207801","345206.708873","345973.352671","346739.57352","347506.78496","348273.208009","349039.806359","349806.427278","355182.581924","Mapping"
"Mixed","Both","tile","29","m160romp.wav","None","720.200109296","115","358290.363102","350573.337274","351339.710855","352106.519443","352873.471796","353640.08344","354406.700649","355173.355886","359056.908583","345206.708873","345973.352671","346739.57352","347506.78496","348273.208009","349039.806359","349806.427278","358299.99663","Mapping"
"Mixed","Both","tile","29","m160lash.wav","None","718.964344123","115","358290.363102","350573.337274","351339.710855","352106.519443","352873.471796","353640.08344","354406.700649","355173.355886","359056.908583","359806.50519","345973.352671","346739.57352","347506.78496","348273.208009","349039.806359","349806.427278","359067.082855","Mapping"
"Mixed","Both","tile","29","m160tile.wav","None","736.705629621","115","358290.363102","350573.337274","351339.710855","352106.519443","352873.471796","353640.08344","354406.700649","355173.355886","359056.908583","359806.50519","360572.63205","346739.57352","347506.78496","348273.208009","349039.806359","349806.427278","359815.444624","Mapping"
"Mixed","Both","tile","29","m150done.wav","space","584.633226274","115","358290.363102","350573.337274","351339.710855","352106.519443","352873.471796","353640.08344","354406.700649","355173.355886","359056.908583","359806.50519","360572.63205","361339.778255","347506.78496","348273.208009","349039.806359","349806.427278","360581.43081","Mapping"
"Mixed","Both","tile","29","m160gnash.wav","None","733.510324731","115","358290.363102","350573.337274","351339.710855","352106.519443","352873.471796","353640.08344","354406.700649","355173.355886","359056.908583","359806.50519","360572.63205","361339.778255","362106.426381","348273.208009","349039.806359","349806.427278","361348.965027","Mapping"
"Mixed","Both","tile","29","m150gnash.wav","None","732.842510566","115","358290.363102","350573.337274","351339.710855","352106.519443","352873.471796","353640.08344","354406.700649","355173.355886","359056.908583","359806.50519","360572.63205","361339.778255","362106.426381","362872.917139","349039.806359","349806.427278","362115.471243","Mapping"
"Mixed","Both","tile","29","m150greet.wav","None","732.258482371","115","358290.363102","350573.337274","351339.710855","352106.519443","352873.471796","353640.08344","354406.700649","355173.355886","359056.908583","359806.50519","360572.63205","361339.778255","362106.426381","362872.917139","363639.904737","349806.427278","362881.910987","Mapping"
"Mixed","Both","tile","29","m160depth.wav","None","731.129072839","115","358290.363102","350573.337274","351339.710855","352106.519443","352873.471796","353640.08344","354406.700649","355173.355886","359056.908583","359806.50519","360572.63205","361339.778255","362106.426381","362872.917139","363639.904737","364406.378181","363648.89704","Mapping"
"Mixed","Both","tile","29","m160cave.wav","None","730.56823248","115","358290.363102","365172.983951","351339.710855","352106.519443","352873.471796","353640.08344","354406.700649","355173.355886","359056.908583","359806.50519","360572.63205","361339.778255","362106.426381","362872.917139","363639.904737","364406.378181","364415.365228","Mapping"
"Mixed","Both","tile","29","m150tile.wav","None","729.440677678","115","358290.363102","365172.983951","365939.498206","352106.519443","352873.471796","353640.08344","354406.700649","355173.355886","359056.908583","359806.50519","360572.63205","361339.778255","362106.426381","362872.917139","363639.904737","364406.378181","365182.302431","Mapping"
"Mixed","Both","tile","29","m150reek.wav","space","537.306538783","115","358290.363102","365172.983951","365939.498206","366706.341421","352873.471796","353640.08344","354406.700649","355173.355886","359056.908583","359806.50519","360572.63205","361339.778255","362106.426381","362872.917139","363639.904737","364406.378181","365948.681886","Mapping"
"Mixed","Both","tile","29","m160tile.wav","None","727.012431715","115","358290.363102","365172.983951","365939.498206","366706.341421","367473.303358","353640.08344","354406.700649","355173.355886","359056.908583","359806.50519","360572.63205","361339.778255","362106.426381","362872.917139","363639.904737","364406.378181","366715.467286","Mapping"
"Mixed","Both","tile","29","m150cling.wav","space","667.160519399","115","358290.363102","365172.983951","365939.498206","366706.341421","367473.303358","368240.089685","354406.700649","355173.355886","359056.908583","359806.50519","360572.63205","361339.778255","362106.426381","362872.917139","363639.904737","364406.378181","367482.752309","Mapping"
