"Condition","Talker","Target","Trial","current_stimulus","response_response","response_time_response","subject_nr","time_Audio1","time_Audio10","time_Audio11","time_Audio12","time_Audio13","time_Audio14","time_Audio15","time_Audio16","time_Audio2","time_Audio3","time_Audio4","time_Audio5","time_Audio6","time_Audio7","time_Audio8","time_Audio9","time_response","title"
"Mixed","Both","tile","25","m160park.wav","NA","NA","120","89971.9956233","NA","NA","NA","NA","NA","NA","NA","NA","NA","NA","NA","NA","NA","NA","NA","NA","Mapping"
"Mixed","Both","tile","25","m160jaw.wav","None","717.538491357","120","89971.9956233","NA","NA","NA","NA","NA","NA","NA","90738.2083296","NA","NA","NA","NA","NA","NA","NA","89986.442095","Mapping"
"Mixed","Both","tile","25","m150romp.wav","None","722.577102657","120","89971.9956233","NA","NA","NA","NA","NA","NA","NA","90738.2083296","91505.0551521","NA","NA","NA","NA","NA","NA","90747.570123","Mapping"
"Mixed","Both","tile","25","m160park.wav","None","721.563938947","120","89971.9956233","NA","NA","NA","NA","NA","NA","NA","90738.2083296","91505.0551521","92271.4490343","NA","NA","NA","NA","NA","91514.6550096","Mapping"
"Mixed","Both","tile","25","m150cad.wav","None","721.548789414","120","89971.9956233","NA","NA","NA","NA","NA","NA","NA","90738.2083296","91505.0551521","92271.4490343","93038.140033","NA","NA","NA","NA","92280.6179031","Mapping"
"Mixed","Both","tile","25","m160tile.wav","space","563.216685026","120","89971.9956233","NA","NA","NA","NA","NA","NA","NA","90738.2083296","91505.0551521","92271.4490343","93038.140033","93787.9170412","NA","NA","NA","93047.0841322","Mapping"
"Mixed","Both","tile","25","m160greet.wav","None","737.043052213","120","89971.9956233","NA","NA","NA","NA","NA","NA","NA","90738.2083296","91505.0551521","92271.4490343","93038.140033","93787.9170412","94555.0513956","NA","NA","93797.2284392","Mapping"
"Mixed","Both","tile","25","m150greet.wav","space","5.84957504179","120","89971.9956233","NA","NA","NA","NA","NA","NA","NA","90738.2083296","91505.0551521","92271.4490343","93038.140033","93787.9170412","94555.0513956","95321.314188","NA","94564.4376138","Mapping"
"Mixed","Both","tile","25","m160reek.wav","None","735.000956862","120","89971.9956233","NA","NA","NA","NA","NA","NA","NA","90738.2083296","91505.0551521","92271.4490343","93038.140033","93787.9170412","94555.0513956","95321.314188","96087.7686685","95330.7251402","Mapping"
"Mixed","Both","tile","25","m150tile.wav","None","734.483090171","120","89971.9956233","96854.755856","NA","NA","NA","NA","NA","NA","90738.2083296","91505.0551521","92271.4490343","93038.140033","93787.9170412","94555.0513956","95321.314188","96087.7686685","96097.1854949","Mapping"
"Mixed","Both","tile","25","m150dime.wav","space","457.910730911","120","89971.9956233","96854.755856","97621.8568196","NA","NA","NA","NA","NA","90738.2083296","91505.0551521","92271.4490343","93038.140033","93787.9170412","94555.0513956","95321.314188","96087.7686685","96864.3337621","Mapping"
"Mixed","Both","tile","25","m150gnash.wav","None","731.099797413","120","89971.9956233","96854.755856","97621.8568196","98388.0831295","NA","NA","NA","NA","90738.2083296","91505.0551521","92271.4490343","93038.140033","93787.9170412","94555.0513956","95321.314188","96087.7686685","97632.1705602","Mapping"
"Mixed","Both","tile","25","m160tile.wav","None","732.205713342","120","89971.9956233","96854.755856","97621.8568196","98388.0831295","99154.5088568","NA","NA","NA","90738.2083296","91505.0551521","92271.4490343","93038.140033","93787.9170412","94555.0513956","95321.314188","96087.7686685","98397.1119424","Mapping"
"Mixed","Both","tile","25","m150cling.wav","space","550.746145484","120","89971.9956233","96854.755856","97621.8568196","98388.0831295","99154.5088568","99921.6027093","NA","NA","90738.2083296","91505.0551521","92271.4490343","93038.140033","93787.9170412","94555.0513956","95321.314188","96087.7686685","99163.470888","Mapping"
"Mixed","Both","tile","25","m150tile.wav","None","730.501854559","120","89971.9956233","96854.755856","97621.8568196","98388.0831295","99154.5088568","99921.6027093","100688.036784","NA","90738.2083296","91505.0551521","92271.4490343","93038.140033","93787.9170412","94555.0513956","95321.314188","96087.7686685","99931.0965202","Mapping"
"Mixed","Both","tile","25","m160park.wav","space","472.388119902","120","89971.9956233","96854.755856","97621.8568196","98388.0831295","99154.5088568","99921.6027093","100688.036784","101454.881443","90738.2083296","91505.0551521","92271.4490343","93038.140033","93787.9170412","94555.0513956","95321.314188","96087.7686685","100697.782881","Mapping"
"Mixed","Both","tile","27","m150greet.wav","None","729.409542284","120","104621.927002","96854.755856","97621.8568196","98388.0831295","99154.5088568","99921.6027093","100688.036784","101454.881443","90738.2083296","91505.0551521","92271.4490343","93038.140033","93787.9170412","94555.0513956","95321.314188","96087.7686685","101464.167797","Mapping"
"Mixed","Both","tile","27","m160dime.wav","None","722.59472555","120","104621.927002","96854.755856","97621.8568196","98388.0831295","99154.5088568","99921.6027093","100688.036784","101454.881443","105388.460322","91505.0551521","92271.4490343","93038.140033","93787.9170412","94555.0513956","95321.314188","96087.7686685","104631.733079","Mapping"
"Mixed","Both","tile","27","m160reek.wav","None","722.16930188","120","104621.927002","96854.755856","97621.8568196","98388.0831295","99154.5088568","99921.6027093","100688.036784","101454.881443","105388.460322","106154.56389","92271.4490343","93038.140033","93787.9170412","94555.0513956","95321.314188","96087.7686685","105398.101918","Mapping"
"Mixed","Both","tile","27","m150tile.wav","None","722.39376232","120","104621.927002","96854.755856","97621.8568196","98388.0831295","99154.5088568","99921.6027093","100688.036784","101454.881443","105388.460322","106154.56389","106922.173445","93038.140033","93787.9170412","94555.0513956","95321.314188","96087.7686685","106163.754401","Mapping"
"Mixed","Both","tile","27","m160dime.wav","space","598.785316572","120","104621.927002","96854.755856","97621.8568196","98388.0831295","99154.5088568","99921.6027093","100688.036784","101454.881443","105388.460322","106154.56389","106922.173445","107688.33792","93787.9170412","94555.0513956","95321.314188","96087.7686685","106931.324072","Mapping"
"Mixed","Both","tile","27","m160knife.wav","None","719.93520949","120","104621.927002","96854.755856","97621.8568196","98388.0831295","99154.5088568","99921.6027093","100688.036784","101454.881443","105388.460322","106154.56389","106922.173445","107688.33792","108454.518163","94555.0513956","95321.314188","96087.7686685","107697.956019","Mapping"
"Mixed","Both","tile","27","m160tile.wav","None","720.578910026","120","104621.927002","96854.755856","97621.8568196","98388.0831295","99154.5088568","99921.6027093","100688.036784","101454.881443","105388.460322","106154.56389","106922.173445","107688.33792","108454.518163","109204.987412","95321.314188","96087.7686685","108463.434127","Mapping"
"Mixed","Both","tile","27","m150park.wav","space","531.435127661","120","104621.927002","96854.755856","97621.8568196","98388.0831295","99154.5088568","99921.6027093","100688.036784","101454.881443","105388.460322","106154.56389","106922.173445","107688.33792","108454.518163","109204.987412","109970.883524","96087.7686685","109214.598709","Mapping"
"Mixed","Both","tile","27","m150dime.wav","None","736.071008607","120","104621.927002","96854.755856","97621.8568196","98388.0831295","99154.5088568","99921.6027093","100688.036784","101454.881443","105388.460322","106154.56389","106922.173445","107688.33792","108454.518163","109204.987412","109970.883524","110737.846905","109979.880492","Mapping"
"Mixed","Both","tile","27","m160tile.wav","space","454.820844403","120","104621.927002","111504.582425","97621.8568196","98388.0831295","99154.5088568","99921.6027093","100688.036784","101454.881443","105388.460322","106154.56389","106922.173445","107688.33792","108454.518163","109204.987412","109970.883524","110737.846905","110747.243017","Mapping"
"Mixed","Both","tile","27","m150depth.wav","space","696.015641734","120","104621.927002","111504.582425","112271.074624","98388.0831295","99154.5088568","99921.6027093","100688.036784","101454.881443","105388.460322","106154.56389","106922.173445","107688.33792","108454.518163","109204.987412","109970.883524","110737.846905","111514.013164","Mapping"
"Mixed","Both","tile","27","m150park.wav","None","733.799815294","120","104621.927002","111504.582425","112271.074624","113037.838279","99154.5088568","99921.6027093","100688.036784","101454.881443","105388.460322","106154.56389","106922.173445","107688.33792","108454.518163","109204.987412","109970.883524","110737.846905","112279.87774","Mapping"
"Mixed","Both","tile","27","m150tile.wav","None","732.623098476","120","104621.927002","111504.582425","112271.074624","113037.838279","113804.631305","99921.6027093","100688.036784","101454.881443","105388.460322","106154.56389","106922.173445","107688.33792","108454.518163","109204.987412","109970.883524","110737.846905","113047.071765","Mapping"
"Mixed","Both","tile","27","m160lash.wav","space","515.998371236","120","104621.927002","111504.582425","112271.074624","113037.838279","113804.631305","114571.063525","100688.036784","101454.881443","105388.460322","106154.56389","106922.173445","107688.33792","108454.518163","109204.987412","109970.883524","110737.846905","113814.014122","Mapping"
"Mixed","Both","tile","27","m160jolt.wav","None","731.57839902","120","104621.927002","111504.582425","112271.074624","113037.838279","113804.631305","114571.063525","115337.733809","101454.881443","105388.460322","106154.56389","106922.173445","107688.33792","108454.518163","109204.987412","109970.883524","110737.846905","114580.392237","Mapping"
"Mixed","Both","tile","27","m150cave.wav","None","731.51470907","120","104621.927002","111504.582425","112271.074624","113037.838279","113804.631305","114571.063525","115337.733809","116104.641848","105388.460322","106154.56389","106922.173445","107688.33792","108454.518163","109204.987412","109970.883524","110737.846905","115346.813636","Mapping"
"Mixed","Both","cave","24","m160reek.wav","None","729.91318698","120","119238.293816","111504.582425","112271.074624","113037.838279","113804.631305","114571.063525","115337.733809","116104.641848","105388.460322","106154.56389","106922.173445","107688.33792","108454.518163","109204.987412","109970.883524","110737.846905","116114.316217","Mapping"
"Mixed","Both","cave","24","m160reek.wav","None","722.600599867","120","119238.293816","111504.582425","112271.074624","113037.838279","113804.631305","114571.063525","115337.733809","116104.641848","120004.984506","106154.56389","106922.173445","107688.33792","108454.518163","109204.987412","109970.883524","110737.846905","119247.78268","Mapping"
"Mixed","Both","cave","24","m160gnash.wav","None","727.862434811","120","119238.293816","111504.582425","112271.074624","113037.838279","113804.631305","114571.063525","115337.733809","116104.641848","120004.984506","120771.806594","106922.173445","107688.33792","108454.518163","109204.987412","109970.883524","110737.846905","120009.654272","Mapping"
"Mixed","Both","cave","24","m150park.wav","None","721.973903826","120","119238.293816","111504.582425","112271.074624","113037.838279","113804.631305","114571.063525","115337.733809","116104.641848","120004.984506","120771.806594","121537.565433","107688.33792","108454.518163","109204.987412","109970.883524","110737.846905","120781.785809","Mapping"
"Mixed","Both","cave","24","m150bluff.wav","None","722.964497865","120","119238.293816","111504.582425","112271.074624","113037.838279","113804.631305","114571.063525","115337.733809","116104.641848","120004.984506","120771.806594","121537.565433","122305.004633","108454.518163","109204.987412","109970.883524","110737.846905","121546.776968","Mapping"
"Mixed","Both","cave","24","m150cave.wav","None","721.141297894","120","119238.293816","111504.582425","112271.074624","113037.838279","113804.631305","114571.063525","115337.733809","116104.641848","120004.984506","120771.806594","121537.565433","122305.004633","123071.702124","109204.987412","109970.883524","110737.846905","122314.730324","Mapping"
"Mixed","Both","cave","24","m150cling.wav","space","368.707494345","120","119238.293816","111504.582425","112271.074624","113037.838279","113804.631305","114571.063525","115337.733809","116104.641848","120004.984506","120771.806594","121537.565433","122305.004633","123071.702124","123838.057669","109970.883524","110737.846905","123081.152342","Mapping"
"Mixed","Both","cave","24","m160cave.wav","space","0.034318305552","120","119238.293816","111504.582425","112271.074624","113037.838279","113804.631305","114571.063525","115337.733809","116104.641848","120004.984506","120771.806594","121537.565433","122305.004633","123071.702124","123838.057669","124604.989205","110737.846905","123848.142002","Mapping"
"Mixed","Both","cave","24","m160done.wav","space","586.617149354","120","119238.293816","111504.582425","112271.074624","113037.838279","113804.631305","114571.063525","115337.733809","116104.641848","120004.984506","120771.806594","121537.565433","122305.004633","123071.702124","123838.057669","124604.989205","125354.255458","124615.24142","Mapping"
"Mixed","Both","cave","24","m160reek.wav","None","735.774510656","120","119238.293816","126120.967171","112271.074624","113037.838279","113804.631305","114571.063525","115337.733809","116104.641848","120004.984506","120771.806594","121537.565433","122305.004633","123071.702124","123838.057669","124604.989205","125354.255458","125363.735046","Mapping"
"Mixed","Both","cave","24","m150cave.wav","None","735.148432956","120","119238.293816","126120.967171","126887.299218","113037.838279","113804.631305","114571.063525","115337.733809","116104.641848","120004.984506","120771.806594","121537.565433","122305.004633","123071.702124","123838.057669","124604.989205","125354.255458","126130.365447","Mapping"
"Mixed","Both","cave","24","m150done.wav","space","625.551759906","120","119238.293816","126120.967171","126887.299218","127654.368337","113804.631305","114571.063525","115337.733809","116104.641848","120004.984506","120771.806594","121537.565433","122305.004633","123071.702124","123838.057669","124604.989205","125354.255458","126896.226313","Mapping"
"Mixed","Both","cave","24","m160cave.wav","None","733.190123865","120","119238.293816","126120.967171","126887.299218","127654.368337","128421.165382","114571.063525","115337.733809","116104.641848","120004.984506","120771.806594","121537.565433","122305.004633","123071.702124","123838.057669","124604.989205","125354.255458","127664.055691","Mapping"
"Mixed","Both","cave","24","m150tile.wav","space","595.013391867","120","119238.293816","126120.967171","126887.299218","127654.368337","128421.165382","129187.283172","115337.733809","116104.641848","120004.984506","120771.806594","121537.565433","122305.004633","123071.702124","123838.057669","124604.989205","125354.255458","128430.763694","Mapping"
"Mixed","Both","cave","24","m160jaw.wav","None","732.875693706","120","119238.293816","126120.967171","126887.299218","127654.368337","128421.165382","129187.283172","129954.496057","116104.641848","120004.984506","120771.806594","121537.565433","122305.004633","123071.702124","123838.057669","124604.989205","125354.255458","129196.388351","Mapping"
"Mixed","Both","cave","24","m150gnash.wav","None","731.750918145","120","119238.293816","126120.967171","126887.299218","127654.368337","128421.165382","129187.283172","129954.496057","130721.073589","120004.984506","120771.806594","121537.565433","122305.004633","123071.702124","123838.057669","124604.989205","125354.255458","129963.626897","Mapping"
"Mixed","Both","ball","8","m160park.wav","None","731.202443247","120","133854.611472","126120.967171","126887.299218","127654.368337","128421.165382","129187.283172","129954.496057","130721.073589","120004.984506","120771.806594","121537.565433","122305.004633","123071.702124","123838.057669","124604.989205","125354.255458","130730.669427","Mapping"
"Mixed","Both","ball","8","m150bluff.wav","None","721.209007024","120","133854.611472","126120.967171","126887.299218","127654.368337","128421.165382","129187.283172","129954.496057","130721.073589","134621.36245","120771.806594","121537.565433","122305.004633","123071.702124","123838.057669","124604.989205","125354.255458","133865.038061","Mapping"
"Mixed","Both","ball","8","m160ball.wav","None","720.078975428","120","133854.611472","126120.967171","126887.299218","127654.368337","128421.165382","129187.283172","129954.496057","130721.073589","134621.36245","135388.215456","121537.565433","122305.004633","123071.702124","123838.057669","124604.989205","125354.255458","134632.062349","Mapping"
"Mixed","Both","ball","8","m150jolt.wav","space","387.694497593","120","133854.611472","126120.967171","126887.299218","127654.368337","128421.165382","129187.283172","129954.496057","130721.073589","134621.36245","135388.215456","136154.233073","122305.004633","123071.702124","123838.057669","124604.989205","125354.255458","135397.949495","Mapping"
"Mixed","Both","ball","8","m160reek.wav","None","720.283957897","120","133854.611472","126120.967171","126887.299218","127654.368337","128421.165382","129187.283172","129954.496057","130721.073589","134621.36245","135388.215456","136154.233073","136904.461167","123071.702124","123838.057669","124604.989205","125354.255458","136163.473361","Mapping"
"Mixed","Both","ball","8","m150ball.wav","None","736.355139699","120","133854.611472","126120.967171","126887.299218","127654.368337","128421.165382","129187.283172","129954.496057","130721.073589","134621.36245","135388.215456","136154.233073","136904.461167","137670.448485","123838.057669","124604.989205","125354.255458","136913.546868","Mapping"
"Mixed","Both","ball","8","m160jaw.wav","space","394.379461184","120","133854.611472","126120.967171","126887.299218","127654.368337","128421.165382","129187.283172","129954.496057","130721.073589","134621.36245","135388.215456","136154.233073","136904.461167","137670.448485","138437.143812","124604.989205","125354.255458","137679.258712","Mapping"
"Mixed","Both","ball","8","m160lash.wav","None","735.378149315","120","133854.611472","126120.967171","126887.299218","127654.368337","128421.165382","129187.283172","129954.496057","130721.073589","134621.36245","135388.215456","136154.233073","136904.461167","137670.448485","138437.143812","139204.169337","125354.255458","138446.306188","Mapping"
"Mixed","Both","ball","8","m150lash.wav","None","734.153201396","120","133854.611472","126120.967171","126887.299218","127654.368337","128421.165382","129187.283172","129954.496057","130721.073589","134621.36245","135388.215456","136154.233073","136904.461167","137670.448485","138437.143812","139204.169337","139970.936084","139213.511653","Mapping"
"Mixed","Both","ball","8","m160ball.wav","None","733.313793491","120","133854.611472","140737.177852","126887.299218","127654.368337","128421.165382","129187.283172","129954.496057","130721.073589","134621.36245","135388.215456","136154.233073","136904.461167","137670.448485","138437.143812","139204.169337","139970.936084","139980.556656","Mapping"
"Mixed","Both","ball","8","m160park.wav","space","375.31609193","120","133854.611472","140737.177852","141504.147726","127654.368337","128421.165382","129187.283172","129954.496057","130721.073589","134621.36245","135388.215456","136154.233073","136904.461167","137670.448485","138437.143812","139204.169337","139970.936084","140746.280248","Mapping"
"Mixed","Both","ball","8","m150cave.wav","None","732.145115209","120","133854.611472","140737.177852","141504.147726","142270.888502","128421.165382","129187.283172","129954.496057","130721.073589","134621.36245","135388.215456","136154.233073","136904.461167","137670.448485","138437.143812","139204.169337","139970.936084","141513.632571","Mapping"
"Mixed","Both","ball","8","m150cave.wav","None","731.526148564","120","133854.611472","140737.177852","141504.147726","142270.888502","143037.481183","129187.283172","129954.496057","130721.073589","134621.36245","135388.215456","136154.233073","136904.461167","137670.448485","138437.143812","139204.169337","139970.936084","142280.421887","Mapping"
"Mixed","Both","ball","8","m150ball.wav","None","731.408044056","120","133854.611472","140737.177852","141504.147726","142270.888502","143037.481183","143804.204336","129954.496057","130721.073589","134621.36245","135388.215456","136154.233073","136904.461167","137670.448485","138437.143812","139204.169337","139970.936084","143047.005602","Mapping"
"Mixed","Both","ball","8","m160lash.wav","space","523.479458352","120","133854.611472","140737.177852","141504.147726","142270.888502","143037.481183","143804.204336","144570.561117","130721.073589","134621.36245","135388.215456","136154.233073","136904.461167","137670.448485","138437.143812","139204.169337","139970.936084","143814.064209","Mapping"
"Mixed","Both","ball","8","m150gnash.wav","None","731.265205599","120","133854.611472","140737.177852","141504.147726","142270.888502","143037.481183","143804.204336","144570.561117","145337.31426","134621.36245","135388.215456","136154.233073","136904.461167","137670.448485","138437.143812","139204.169337","139970.936084","144579.528404","Mapping"
"Mixed","Both","ball","12","m150depth.wav","None","731.331368792","120","148471.342493","140737.177852","141504.147726","142270.888502","143037.481183","143804.204336","144570.561117","145337.31426","134621.36245","135388.215456","136154.233073","136904.461167","137670.448485","138437.143812","139204.169337","139970.936084","145346.314938","Mapping"
"Mixed","Both","ball","12","m160jaw.wav","None","722.461471509","120","148471.342493","140737.177852","141504.147726","142270.888502","143037.481183","143804.204336","144570.561117","145337.31426","149237.245098","135388.215456","136154.233073","136904.461167","137670.448485","138437.143812","139204.169337","139970.936084","148481.094464","Mapping"
"Mixed","Both","ball","12","m160park.wav","None","723.543581029","120","148471.342493","140737.177852","141504.147726","142270.888502","143037.481183","143804.204336","144570.561117","145337.31426","149237.245098","150004.605149","136154.233073","136904.461167","137670.448485","138437.143812","139204.169337","139970.936084","149246.234027","Mapping"
"Mixed","Both","ball","12","m150ball.wav","None","721.629792999","120","148471.342493","140737.177852","141504.147726","142270.888502","143037.481183","143804.204336","144570.561117","145337.31426","149237.245098","150004.605149","150771.078489","136904.461167","137670.448485","138437.143812","139204.169337","139970.936084","150014.466259","Mapping"
"Mixed","Both","ball","12","m150knife.wav","space","333.064042672","120","148471.342493","140737.177852","141504.147726","142270.888502","143037.481183","143804.204336","144570.561117","145337.31426","149237.245098","150004.605149","150771.078489","151537.651383","137670.448485","138437.143812","139204.169337","139970.936084","150780.387723","Mapping"
"Mixed","Both","ball","12","m160dime.wav","None","720.483993588","120","148471.342493","140737.177852","141504.147726","142270.888502","143037.481183","143804.204336","144570.561117","145337.31426","149237.245098","150004.605149","150771.078489","151537.651383","152304.622803","138437.143812","139204.169337","139970.936084","151547.633071","Mapping"
"Mixed","Both","ball","12","m150knife.wav","None","720.097216719","120","148471.342493","140737.177852","141504.147726","142270.888502","143037.481183","143804.204336","144570.561117","145337.31426","149237.245098","150004.605149","150771.078489","151537.651383","152304.622803","153071.095215","139204.169337","139970.936084","152314.377866","Mapping"
"Mixed","Both","ball","12","m160ball.wav","None","719.612431654","120","148471.342493","140737.177852","141504.147726","142270.888502","143037.481183","143804.204336","144570.561117","145337.31426","149237.245098","150004.605149","150771.078489","151537.651383","152304.622803","153071.095215","153837.610603","139970.936084","153081.151723","Mapping"
"Mixed","Both","ball","12","m150knife.wav","space","361.892986752","120","148471.342493","140737.177852","141504.147726","142270.888502","143037.481183","143804.204336","144570.561117","145337.31426","149237.245098","150004.605149","150771.078489","151537.651383","152304.622803","153071.095215","153837.610603","154587.185411","153847.50634","Mapping"
"Mixed","Both","ball","12","m160ball.wav","None","736.413264414","120","148471.342493","155353.897434","141504.147726","142270.888502","143037.481183","143804.204336","144570.561117","145337.31426","149237.245098","150004.605149","150771.078489","151537.651383","152304.622803","153071.095215","153837.610603","154587.185411","154596.325836","Mapping"
"Mixed","Both","ball","12","m150jolt.wav","space","421.663152869","120","148471.342493","155353.897434","156120.28235","142270.888502","143037.481183","143804.204336","144570.561117","145337.31426","149237.245098","150004.605149","150771.078489","151537.651383","152304.622803","153071.095215","153837.610603","154587.185411","155363.682487","Mapping"
"Mixed","Both","ball","12","m150bluff.wav","None","735.039603664","120","148471.342493","155353.897434","156120.28235","156887.132574","143037.481183","143804.204336","144570.561117","145337.31426","149237.245098","150004.605149","150771.078489","151537.651383","152304.622803","153071.095215","153837.610603","154587.185411","156129.859329","Mapping"
"Mixed","Both","ball","12","m160bluff.wav","None","735.105766915","120","148471.342493","155353.897434","156120.28235","156887.132574","157653.87304","143804.204336","144570.561117","145337.31426","149237.245098","150004.605149","150771.078489","151537.651383","152304.622803","153071.095215","153837.610603","154587.185411","156896.199415","Mapping"
"Mixed","Both","ball","12","m150ball.wav","None","734.635513043","120","148471.342493","155353.897434","156120.28235","156887.132574","157653.87304","158420.21529","144570.561117","145337.31426","149237.245098","150004.605149","150771.078489","151537.651383","152304.622803","153071.095215","153837.610603","154587.185411","157663.360667","Mapping"
"Mixed","Both","ball","12","m160lash.wav","space","388.111882727","120","148471.342493","155353.897434","156120.28235","156887.132574","157653.87304","158420.21529","159186.783238","145337.31426","149237.245098","150004.605149","150771.078489","151537.651383","152304.622803","153071.095215","153837.610603","154587.185411","158429.200819","Mapping"
"Mixed","Both","ball","12","m160tile.wav","None","735.064646811","120","148471.342493","155353.897434","156120.28235","156887.132574","157653.87304","158420.21529","159186.783238","159953.866888","149237.245098","150004.605149","150771.078489","151537.651383","152304.622803","153071.095215","153837.610603","154587.185411","159195.678487","Mapping"
"Mixed","Both","cave","23","m160romp.wav","None","733.615238336","120","163087.536788","155353.897434","156120.28235","156887.132574","157653.87304","158420.21529","159186.783238","159953.866888","149237.245098","150004.605149","150771.078489","151537.651383","152304.622803","153071.095215","153837.610603","154587.185411","159963.591033","Mapping"
"Mixed","Both","cave","23","m150reek.wav","None","722.834026325","120","163087.536788","155353.897434","156120.28235","156887.132574","157653.87304","158420.21529","159186.783238","159953.866888","163854.075364","150004.605149","150771.078489","151537.651383","152304.622803","153071.095215","153837.610603","154587.185411","163097.061825","Mapping"
"Mixed","Both","cave","23","m160cave.wav","None","721.846833243","120","163087.536788","155353.897434","156120.28235","156887.132574","157653.87304","158420.21529","159186.783238","159953.866888","163854.075364","164621.026069","150771.078489","151537.651383","152304.622803","153071.095215","153837.610603","154587.185411","163864.271927","Mapping"
"Mixed","Both","cave","23","m150tile.wav","space","450.172101788","120","163087.536788","155353.897434","156120.28235","156887.132574","157653.87304","158420.21529","159186.783238","159953.866888","163854.075364","164621.026069","165387.673165","151537.651383","152304.622803","153071.095215","153837.610603","154587.185411","164631.04764","Mapping"
"Mixed","Both","cave","23","m150ball.wav","None","721.562393068","120","163087.536788","155353.897434","156120.28235","156887.132574","157653.87304","158420.21529","159186.783238","159953.866888","163854.075364","164621.026069","165387.673165","166154.365709","152304.622803","153071.095215","153837.610603","154587.185411","165396.600568","Mapping"
"Mixed","Both","cave","23","m150cling.wav","None","720.327860618","120","163087.536788","155353.897434","156120.28235","156887.132574","157653.87304","158420.21529","159186.783238","159953.866888","163854.075364","164621.026069","165387.673165","166154.365709","166920.45691","153071.095215","153837.610603","154587.185411","166164.074705","Mapping"
"Mixed","Both","cave","23","m150knife.wav","None","720.786675054","120","163087.536788","155353.897434","156120.28235","156887.132574","157653.87304","158420.21529","159186.783238","159953.866888","163854.075364","164621.026069","165387.673165","166154.365709","166920.45691","167687.448426","153837.610603","154587.185411","166929.770472","Mapping"
"Mixed","Both","cave","23","m150cave.wav","None","719.944793906","120","163087.536788","155353.897434","156120.28235","156887.132574","157653.87304","158420.21529","159186.783238","159953.866888","163854.075364","164621.026069","165387.673165","166154.365709","166920.45691","167687.448426","168454.285664","154587.185411","167697.01211","Mapping"
"Mixed","Both","cave","23","m160gnash.wav","space","305.187664053","120","163087.536788","155353.897434","156120.28235","156887.132574","157653.87304","158420.21529","159186.783238","159953.866888","163854.075364","164621.026069","165387.673165","166154.365709","166920.45691","167687.448426","168454.285664","169220.677691","168463.949521","Mapping"
"Mixed","Both","cave","23","m160knife.wav","None","721.166650124","120","163087.536788","169987.338391","156120.28235","156887.132574","157653.87304","158420.21529","159186.783238","159953.866888","163854.075364","164621.026069","165387.673165","166154.365709","166920.45691","167687.448426","168454.285664","169220.677691","169229.948897","Mapping"
"Mixed","Both","cave","23","m150bluff.wav","None","720.359705563","120","163087.536788","169987.338391","170754.394524","156887.132574","157653.87304","158420.21529","159186.783238","159953.866888","163854.075364","164621.026069","165387.673165","166154.365709","166920.45691","167687.448426","168454.285664","169220.677691","169997.037493","Mapping"
"Mixed","Both","cave","23","m160cave.wav","None","718.936267775","120","163087.536788","169987.338391","170754.394524","171520.848386","157653.87304","158420.21529","159186.783238","159953.866888","163854.075364","164621.026069","165387.673165","166154.365709","166920.45691","167687.448426","168454.285664","169220.677691","170764.464945","Mapping"
"Mixed","Both","cave","23","m160park.wav","space","342.52910025","120","163087.536788","169987.338391","170754.394524","171520.848386","172270.302926","158420.21529","159186.783238","159953.866888","163854.075364","164621.026069","165387.673165","166154.365709","166920.45691","167687.448426","168454.285664","169220.677691","171530.631584","Mapping"
"Mixed","Both","cave","23","m160done.wav","None","736.406771757","120","163087.536788","169987.338391","170754.394524","171520.848386","172270.302926","173036.86469","159186.783238","159953.866888","163854.075364","164621.026069","165387.673165","166154.365709","166920.45691","167687.448426","168454.285664","169220.677691","172279.245479","Mapping"
"Mixed","Both","cave","23","m150cave.wav","None","736.099761853","120","163087.536788","169987.338391","170754.394524","171520.848386","172270.302926","173036.86469","173803.412232","159953.866888","163854.075364","164621.026069","165387.673165","166154.365709","166920.45691","167687.448426","168454.285664","169220.677691","173045.899995","Mapping"
"Mixed","Both","cave","23","m160jolt.wav","space","500.056115154","120","163087.536788","169987.338391","170754.394524","171520.848386","172270.302926","173036.86469","173803.412232","174570.24174","163854.075364","164621.026069","165387.673165","166154.365709","166920.45691","167687.448426","168454.285664","169220.677691","173812.992611","Mapping"
"Mixed","Both","done","42","m150gnash.wav","None","734.521427774","120","177704.201337","169987.338391","170754.394524","171520.848386","172270.302926","173036.86469","173803.412232","174570.24174","163854.075364","164621.026069","165387.673165","166154.365709","166920.45691","167687.448426","168454.285664","169220.677691","174579.999277","Mapping"
"Mixed","Both","done","42","m150gnash.wav","None","721.569194866","120","177704.201337","169987.338391","170754.394524","171520.848386","172270.302926","173036.86469","173803.412232","174570.24174","178470.774231","164621.026069","165387.673165","166154.365709","166920.45691","167687.448426","168454.285664","169220.677691","177714.983167","Mapping"
"Mixed","Both","done","42","m160ball.wav","None","722.352642159","120","177704.201337","169987.338391","170754.394524","171520.848386","172270.302926","173036.86469","173803.412232","174570.24174","178470.774231","179237.263648","165387.673165","166154.365709","166920.45691","167687.448426","168454.285664","169220.677691","178480.521255","Mapping"
"Mixed","Both","done","42","m160jolt.wav","space","346.114592918","120","177704.201337","169987.338391","170754.394524","171520.848386","172270.302926","173036.86469","173803.412232","174570.24174","178470.774231","179237.263648","180003.608062","166154.365709","166920.45691","167687.448426","168454.285664","169220.677691","179246.852684","Mapping"
"Mixed","Both","done","42","m160tile.wav","None","727.677548712","120","177704.201337","169987.338391","170754.394524","171520.848386","172270.302926","173036.86469","173803.412232","174570.24174","178470.774231","179237.263648","180003.608062","180770.803633","166920.45691","167687.448426","168454.285664","169220.677691","180007.359582","Mapping"
"Mixed","Both","done","42","m160done.wav","None","720.78914853","120","177704.201337","169987.338391","170754.394524","171520.848386","172270.302926","173036.86469","173803.412232","174570.24174","178470.774231","179237.263648","180003.608062","180770.803633","181537.266461","167687.448426","168454.285664","169220.677691","180780.592396","Mapping"
"Mixed","Both","done","42","m150priest.wav","None","720.926112612","120","177704.201337","169987.338391","170754.394524","171520.848386","172270.302926","173036.86469","173803.412232","174570.24174","178470.774231","179237.263648","180003.608062","180770.803633","181537.266461","182303.702391","168454.285664","169220.677691","181546.897546","Mapping"
"Mixed","Both","done","42","m150dime.wav","space","0.0275165075436","120","177704.201337","169987.338391","170754.394524","171520.848386","172270.302926","173036.86469","173803.412232","174570.24174","178470.774231","179237.263648","180003.608062","180770.803633","181537.266461","182303.702391","183070.187789","169220.677691","182312.992147","Mapping"
"Mixed","Both","done","42","m160done.wav","None","720.483375248","120","177704.201337","169987.338391","170754.394524","171520.848386","172270.302926","173036.86469","173803.412232","174570.24174","178470.774231","179237.263648","180003.608062","180770.803633","181537.266461","182303.702391","183070.187789","183836.77305","183079.418184","Mapping"
"Mixed","Both","done","42","m160bluff.wav","space","555.295333965","120","177704.201337","184586.598908","170754.394524","171520.848386","172270.302926","173036.86469","173803.412232","174570.24174","178470.774231","179237.263648","180003.608062","180770.803633","181537.266461","182303.702391","183070.187789","183836.77305","183845.631817","Mapping"
"Mixed","Both","done","42","m150knife.wav","None","735.931261908","120","177704.201337","184586.598908","185353.083069","171520.848386","172270.302926","173036.86469","173803.412232","174570.24174","178470.774231","179237.263648","180003.608062","180770.803633","181537.266461","182303.702391","183070.187789","183836.77305","184596.216698","Mapping"
"Mixed","Both","done","42","m150done.wav","None","736.564450606","120","177704.201337","184586.598908","185353.083069","186119.976886","172270.302926","173036.86469","173803.412232","174570.24174","178470.774231","179237.263648","180003.608062","180770.803633","181537.266461","182303.702391","183070.187789","183836.77305","185361.854649","Mapping"
"Mixed","Both","done","42","m150knife.wav","space","495.220322162","120","177704.201337","184586.598908","185353.083069","186119.976886","186886.686126","173036.86469","173803.412232","174570.24174","178470.774231","179237.263648","180003.608062","180770.803633","181537.266461","182303.702391","183070.187789","183836.77305","186129.698249","Mapping"
"Mixed","Both","done","42","m160ball.wav","None","734.721772664","120","177704.201337","184586.598908","185353.083069","186119.976886","186886.686126","187653.43896","173803.412232","174570.24174","178470.774231","179237.263648","180003.608062","180770.803633","181537.266461","182303.702391","183070.187789","183836.77305","186895.693606","Mapping"
"Mixed","Both","done","42","m150done.wav","None","733.883601497","120","177704.201337","184586.598908","185353.083069","186119.976886","186886.686126","187653.43896","188420.158711","174570.24174","178470.774231","179237.263648","180003.608062","180770.803633","181537.266461","182303.702391","183070.187789","183836.77305","187663.046237","Mapping"
"Mixed","Both","done","42","m160knife.wav","space","731.448236678","120","177704.201337","184586.598908","185353.083069","186119.976886","186886.686126","187653.43896","188420.158711","189186.698215","178470.774231","179237.263648","180003.608062","180770.803633","181537.266461","182303.702391","183070.187789","183836.77305","188429.430226","Mapping"
"Mixed","Both","cave","14","m150priest.wav","None","733.40190819","120","192320.709443","184586.598908","185353.083069","186119.976886","186886.686126","187653.43896","188420.158711","189186.698215","178470.774231","179237.263648","180003.608062","180770.803633","181537.266461","182303.702391","183070.187789","183836.77305","189195.840185","Mapping"
"Mixed","Both","cave","14","m150cling.wav","None","721.923817648","120","192320.709443","184586.598908","185353.083069","186119.976886","186886.686126","187653.43896","188420.158711","189186.698215","193086.9407","179237.263648","180003.608062","180770.803633","181537.266461","182303.702391","183070.187789","183836.77305","192330.315175","Mapping"
"Mixed","Both","cave","14","m150reek.wav","None","721.913614892","120","192320.709443","184586.598908","185353.083069","186119.976886","186886.686126","187653.43896","188420.158711","189186.698215","193086.9407","193853.879038","180003.608062","180770.803633","181537.266461","182303.702391","183070.187789","183836.77305","193096.716787","Mapping"
"Mixed","Both","cave","14","m160depth.wav","None","721.201895969","120","192320.709443","184586.598908","185353.083069","186119.976886","186886.686126","187653.43896","188420.158711","189186.698215","193086.9407","193853.879038","194619.987862","180770.803633","181537.266461","182303.702391","183070.187789","183836.77305","193863.714177","Mapping"
"Mixed","Both","cave","14","m150knife.wav","None","721.900011238","120","192320.709443","184586.598908","185353.083069","186119.976886","186886.686126","187653.43896","188420.158711","189186.698215","193086.9407","193853.879038","194619.987862","195386.854162","181537.266461","182303.702391","183070.187789","183836.77305","194629.196305","Mapping"
"Mixed","Both","cave","14","m150bluff.wav","None","721.73645813","120","192320.709443","184586.598908","185353.083069","186119.976886","186886.686126","187653.43896","188420.158711","189186.698215","193086.9407","193853.879038","194619.987862","195386.854162","196153.879997","182303.702391","183070.187789","183836.77305","195395.754049","Mapping"
"Mixed","Both","cave","14","m160cave.wav","None","720.180075383","120","192320.709443","184586.598908","185353.083069","186119.976886","186886.686126","187653.43896","188420.158711","189186.698215","193086.9407","193853.879038","194619.987862","195386.854162","196153.879997","196920.615207","183070.187789","183836.77305","196163.637842","Mapping"
"Mixed","Both","cave","14","m160cling.wav","space","334.486552922","120","192320.709443","184586.598908","185353.083069","186119.976886","186886.686126","187653.43896","188420.158711","189186.698215","193086.9407","193853.879038","194619.987862","195386.854162","196153.879997","196920.615207","197687.044954","183836.77305","196930.27659","Mapping"
"Mixed","Both","cave","14","m160cave.wav","None","719.467738178","120","192320.709443","184586.598908","185353.083069","186119.976886","186886.686126","187653.43896","188420.158711","189186.698215","193086.9407","193853.879038","194619.987862","195386.854162","196153.879997","196920.615207","197687.044954","198436.671394","197696.649758","Mapping"
"Mixed","Both","cave","14","m150bluff.wav","space","482.955692569","120","192320.709443","199203.187709","185353.083069","186119.976886","186886.686126","187653.43896","188420.158711","189186.698215","193086.9407","193853.879038","194619.987862","195386.854162","196153.879997","196920.615207","197687.044954","198436.671394","198445.758641","Mapping"
"Mixed","Both","cave","14","m160bluff.wav","None","735.617450206","120","192320.709443","199203.187709","199969.857684","186119.976886","186886.686126","187653.43896","188420.158711","189186.698215","193086.9407","193853.879038","194619.987862","195386.854162","196153.879997","196920.615207","197687.044954","198436.671394","199212.601753","Mapping"
"Mixed","Both","cave","14","m150cave.wav","None","735.74668495","120","192320.709443","199203.187709","199969.857684","200753.091664","186886.686126","187653.43896","188420.158711","189186.698215","193086.9407","193853.879038","194619.987862","195386.854162","196153.879997","196920.615207","197687.044954","198436.671394","199979.229371","Mapping"
"Mixed","Both","cave","14","m160reek.wav","space","382.810473442","120","192320.709443","199203.187709","199969.857684","200753.091664","201520.339486","187653.43896","188420.158711","189186.698215","193086.9407","193853.879038","194619.987862","195386.854162","196153.879997","196920.615207","197687.044954","198436.671394","200761.843148","Mapping"
"Mixed","Both","cave","14","m150cave.wav","None","720.767506282","120","192320.709443","199203.187709","199969.857684","200753.091664","201520.339486","202286.434087","188420.158711","189186.698215","193086.9407","193853.879038","194619.987862","195386.854162","196153.879997","196920.615207","197687.044954","198436.671394","201530.221928","Mapping"
"Mixed","Both","cave","14","m160cling.wav","space","614.872575388","120","192320.709443","199203.187709","199969.857684","200753.091664","201520.339486","202286.434087","203053.740961","189186.698215","193086.9407","193853.879038","194619.987862","195386.854162","196153.879997","196920.615207","197687.044954","198436.671394","202289.827274","Mapping"
"Mixed","Both","cave","14","m160done.wav","None","719.634692185","120","192320.709443","199203.187709","199969.857684","200753.091664","201520.339486","202286.434087","203053.740961","203820.414955","193086.9407","193853.879038","194619.987862","195386.854162","196153.879997","196920.615207","197687.044954","198436.671394","203063.558477","Mapping"
"Mixed","Both","cave","20","m160ball.wav","None","719.449806085","120","206936.722871","199203.187709","199969.857684","200753.091664","201520.339486","202286.434087","203053.740961","203820.414955","193086.9407","193853.879038","194619.987862","195386.854162","196153.879997","196920.615207","197687.044954","198436.671394","203830.246384","Mapping"
"Mixed","Both","cave","20","m160cave.wav","None","722.535673296","120","206936.722871","199203.187709","199969.857684","200753.091664","201520.339486","202286.434087","203053.740961","203820.414955","207703.780241","193853.879038","194619.987862","195386.854162","196153.879997","196920.615207","197687.044954","198436.671394","206946.481026","Mapping"
"Mixed","Both","cave","20","m150dime.wav","space","390.749756654","120","206936.722871","199203.187709","199969.857684","200753.091664","201520.339486","202286.434087","203053.740961","203820.414955","207703.780241","208470.295629","194619.987862","195386.854162","196153.879997","196920.615207","197687.044954","198436.671394","207713.854372","Mapping"
"Mixed","Both","cave","20","m150priest.wav","None","721.480152686","120","206936.722871","199203.187709","199969.857684","200753.091664","201520.339486","202286.434087","203053.740961","203820.414955","207703.780241","208470.295629","209236.888001","195386.854162","196153.879997","196920.615207","197687.044954","198436.671394","208479.933824","Mapping"
"Mixed","Both","cave","20","m150cling.wav","None","721.793036966","120","206936.722871","199203.187709","199969.857684","200753.091664","201520.339486","202286.434087","203053.740961","203820.414955","207703.780241","208470.295629","209236.888001","210003.659695","196153.879997","196920.615207","197687.044954","198436.671394","209246.213931","Mapping"
"Mixed","Both","cave","20","m160greet.wav","None","721.494065598","120","206936.722871","199203.187709","199969.857684","200753.091664","201520.339486","202286.434087","203053.740961","203820.414955","207703.780241","208470.295629","209236.888001","210003.659695","210770.491986","196920.615207","197687.044954","198436.671394","210013.164945","Mapping"
"Mixed","Both","cave","20","m150priest.wav","None","720.681865059","120","206936.722871","199203.187709","199969.857684","200753.091664","201520.339486","202286.434087","203053.740961","203820.414955","207703.780241","208470.295629","209236.888001","210003.659695","210770.491986","211536.735919","197687.044954","198436.671394","210780.675873","Mapping"
"Mixed","Both","cave","20","m160dime.wav","None","721.307633561","120","206936.722871","199203.187709","199969.857684","200753.091664","201520.339486","202286.434087","203053.740961","203820.414955","207703.780241","208470.295629","209236.888001","210003.659695","210770.491986","211536.735919","212303.643339","198436.671394","211546.452026","Mapping"
"Mixed","Both","cave","20","m150cave.wav","None","720.959194237","120","206936.722871","199203.187709","199969.857684","200753.091664","201520.339486","202286.434087","203053.740961","203820.414955","207703.780241","208470.295629","209236.888001","210003.659695","210770.491986","211536.735919","212303.643339","213069.708879","212313.374905","Mapping"
"Mixed","Both","cave","20","m160depth.wav","space","425.641605922","120","206936.722871","213836.614444","199969.857684","200753.091664","201520.339486","202286.434087","203053.740961","203820.414955","207703.780241","208470.295629","209236.888001","210003.659695","210770.491986","211536.735919","212303.643339","213069.708879","213078.876511","Mapping"
"Mixed","Both","cave","20","m150cave.wav","None","720.052695659","120","206936.722871","213836.614444","214603.279781","200753.091664","201520.339486","202286.434087","203053.740961","203820.414955","207703.780241","208470.295629","209236.888001","210003.659695","210770.491986","211536.735919","212303.643339","213069.708879","213846.425468","Mapping"
"Mixed","Both","cave","20","m150reek.wav","space","555.476819223","120","206936.722871","213836.614444","214603.279781","215353.096982","201520.339486","202286.434087","203053.740961","203820.414955","207703.780241","208470.295629","209236.888001","210003.659695","210770.491986","211536.735919","212303.643339","213069.708879","214613.008255","Mapping"
"Mixed","Both","cave","20","m160reek.wav","None","736.780563369","120","206936.722871","213836.614444","214603.279781","215353.096982","216119.856617","202286.434087","203053.740961","203820.414955","207703.780241","208470.295629","209236.888001","210003.659695","210770.491986","211536.735919","212303.643339","213069.708879","215361.976155","Mapping"
"Mixed","Both","cave","20","m160cave.wav","None","736.620720301","120","206936.722871","213836.614444","214603.279781","215353.096982","216119.856617","216886.140125","203053.740961","203820.414955","207703.780241","208470.295629","209236.888001","210003.659695","210770.491986","211536.735919","212303.643339","213069.708879","216128.75434","Mapping"
"Mixed","Both","cave","20","m160cling.wav","space","529.517320392","120","206936.722871","213836.614444","214603.279781","215353.096982","216119.856617","216886.140125","217652.760632","203820.414955","207703.780241","208470.295629","209236.888001","210003.659695","210770.491986","211536.735919","212303.643339","213069.708879","216894.946641","Mapping"
"Mixed","Both","cave","20","m150gnash.wav","None","735.416177777","120","206936.722871","213836.614444","214603.279781","215353.096982","216119.856617","216886.140125","217652.760632","218419.462142","207703.780241","208470.295629","209236.888001","210003.659695","210770.491986","211536.735919","212303.643339","213069.708879","217661.960108","Mapping"
"Mixed","Both","done","44","m150reek.wav","None","735.257262248","120","221553.673406","213836.614444","214603.279781","215353.096982","216119.856617","216886.140125","217652.760632","218419.462142","207703.780241","208470.295629","209236.888001","210003.659695","210770.491986","211536.735919","212303.643339","213069.708879","218428.870312","Mapping"
"Mixed","Both","done","44","m160done.wav","None","722.431481583","120","221553.673406","213836.614444","214603.279781","215353.096982","216119.856617","216886.140125","217652.760632","218419.462142","222320.090477","208470.295629","209236.888001","210003.659695","210770.491986","211536.735919","212303.643339","213069.708879","221563.29336","Mapping"
"Mixed","Both","done","44","m150lash.wav","space","534.263452864","120","221553.673406","213836.614444","214603.279781","215353.096982","216119.856617","216886.140125","217652.760632","218419.462142","222320.090477","223086.58515","209236.888001","210003.659695","210770.491986","211536.735919","212303.643339","213069.708879","222330.105555","Mapping"
"Mixed","Both","done","44","m150park.wav","None","721.590837056","120","221553.673406","213836.614444","214603.279781","215353.096982","216119.856617","216886.140125","217652.760632","218419.462142","222320.090477","223086.58515","223853.422697","210003.659695","210770.491986","211536.735919","212303.643339","213069.708879","223096.385661","Mapping"
"Mixed","Both","done","44","m160cad.wav","None","721.486645401","120","221553.673406","213836.614444","214603.279781","215353.096982","216119.856617","216886.140125","217652.760632","218419.462142","222320.090477","223086.58515","223853.422697","224620.087107","210770.491986","211536.735919","212303.643339","213069.708879","223863.215479","Mapping"
"Mixed","Both","done","44","m160tile.wav","None","721.992454317","120","221553.673406","213836.614444","214603.279781","215353.096982","216119.856617","216886.140125","217652.760632","218419.462142","222320.090477","223086.58515","223853.422697","224620.087107","225386.412352","211536.735919","212303.643339","213069.708879","224629.20558","Mapping"
"Mixed","Both","done","44","m150done.wav","None","722.394071519","120","221553.673406","213836.614444","214603.279781","215353.096982","216119.856617","216886.140125","217652.760632","218419.462142","222320.090477","223086.58515","223853.422697","224620.087107","225386.412352","226153.385318","212303.643339","213069.708879","225395.356142","Mapping"
"Mixed","Both","done","44","m160lash.wav","space","372.938851826","120","221553.673406","213836.614444","214603.279781","215353.096982","216119.856617","216886.140125","217652.760632","218419.462142","222320.090477","223086.58515","223853.422697","224620.087107","225386.412352","226153.385318","226919.638835","213069.708879","226163.369788","Mapping"
"Mixed","Both","done","44","m160bluff.wav","None","721.71543428","120","221553.673406","213836.614444","214603.279781","215353.096982","216119.856617","216886.140125","217652.760632","218419.462142","222320.090477","223086.58515","223853.422697","224620.087107","225386.412352","226153.385318","226919.638835","227686.491532","226928.658064","Mapping"
"Mixed","Both","done","44","m150knife.wav","None","720.741226454","120","221553.673406","228452.709494","214603.279781","215353.096982","216119.856617","216886.140125","217652.760632","218419.462142","222320.090477","223086.58515","223853.422697","224620.087107","225386.412352","226153.385318","226919.638835","227686.491532","227696.178267","Mapping"
"Mixed","Both","done","44","m150priest.wav","None","721.89753782","120","221553.673406","228452.709494","229219.95917","215353.096982","216119.856617","216886.140125","217652.760632","218419.462142","222320.090477","223086.58515","223853.422697","224620.087107","225386.412352","226153.385318","226919.638835","227686.491532","228461.678327","Mapping"
"Mixed","Both","done","44","m160cad.wav","None","720.374545956","120","221553.673406","228452.709494","229219.95917","229986.477959","216119.856617","216886.140125","217652.760632","218419.462142","222320.090477","223086.58515","223853.422697","224620.087107","225386.412352","226153.385318","226919.638835","227686.491532","229229.830792","Mapping"
"Mixed","Both","done","44","m150done.wav","None","720.687739376","120","221553.673406","228452.709494","229219.95917","229986.477959","230753.368993","216886.140125","217652.760632","218419.462142","222320.090477","223086.58515","223853.422697","224620.087107","225386.412352","226153.385318","226919.638835","227686.491532","229996.146763","Mapping"
"Mixed","Both","done","44","m160reek.wav","space","493.081764493","120","221553.673406","228452.709494","229219.95917","229986.477959","230753.368993","231519.537797","217652.760632","218419.462142","222320.090477","223086.58515","223853.422697","224620.087107","225386.412352","226153.385318","226919.638835","227686.491532","230763.202896","Mapping"
"Mixed","Both","done","44","m160done.wav","None","719.992406666","120","221553.673406","228452.709494","229219.95917","229986.477959","230753.368993","231519.537797","232285.8077","218419.462142","222320.090477","223086.58515","223853.422697","224620.087107","225386.412352","226153.385318","226919.638835","227686.491532","231529.164862","Mapping"
"Mixed","Both","done","44","m150cave.wav","space","473.779094464","120","221553.673406","228452.709494","229219.95917","229986.477959","230753.368993","231519.537797","232285.8077","233036.097938","222320.090477","223086.58515","223853.422697","224620.087107","225386.412352","226153.385318","226919.638835","227686.491532","232294.432423","Mapping"
"Mixed","Both","ball","7","m160cave.wav","None","736.607116647","120","236169.905421","228452.709494","229219.95917","229986.477959","230753.368993","231519.537797","232285.8077","233036.097938","222320.090477","223086.58515","223853.422697","224620.087107","225386.412352","226153.385318","226919.638835","227686.491532","233045.064607","Mapping"
"Mixed","Both","ball","7","m160cave.wav","None","721.701521426","120","236169.905421","228452.709494","229219.95917","229986.477959","230753.368993","231519.537797","232285.8077","233036.097938","236936.499957","223086.58515","223853.422697","224620.087107","225386.412352","226153.385318","226919.638835","227686.491532","236179.955436","Mapping"
"Mixed","Both","ball","7","m150ball.wav","None","722.255870642","120","236169.905421","228452.709494","229219.95917","229986.477959","230753.368993","231519.537797","232285.8077","233036.097938","236936.499957","237703.317408","223853.422697","224620.087107","225386.412352","226153.385318","226919.638835","227686.491532","236946.151756","Mapping"
"Mixed","Both","ball","7","m150jaw.wav","space","318.982396566","120","236169.905421","228452.709494","229219.95917","229986.477959","230753.368993","231519.537797","232285.8077","233036.097938","236936.499957","237703.317408","238469.997585","224620.087107","225386.412352","226153.385318","226919.638835","227686.491532","237713.180063","Mapping"
"Mixed","Both","ball","7","m160done.wav","None","721.40193166","120","236169.905421","228452.709494","229219.95917","229986.477959","230753.368993","231519.537797","232285.8077","233036.097938","236936.499957","237703.317408","238469.997585","239235.963571","225386.412352","226153.385318","226919.638835","227686.491532","238479.836435","Mapping"
"Mixed","Both","ball","7","m150reek.wav","None","722.872982267","120","236169.905421","228452.709494","229219.95917","229986.477959","230753.368993","231519.537797","232285.8077","233036.097938","236936.499957","237703.317408","238469.997585","239235.963571","240003.170272","226153.385318","226919.638835","227686.491532","239245.085445","Mapping"
"Mixed","Both","ball","7","m150ball.wav","None","727.185034251","120","236169.905421","228452.709494","229219.95917","229986.477959","230753.368993","231519.537797","232285.8077","233036.097938","236936.499957","237703.317408","238469.997585","239235.963571","240003.170272","240769.79789","226919.638835","227686.491532","240007.5287","Mapping"
"Mixed","Both","ball","7","m150bluff.wav","space","412.251891627","120","236169.905421","228452.709494","229219.95917","229986.477959","230753.368993","231519.537797","232285.8077","233036.097938","236936.499957","237703.317408","238469.997585","239235.963571","240003.170272","240769.79789","241536.393663","227686.491532","240779.865219","Mapping"
"Mixed","Both","ball","7","m160ball.wav","None","721.06400429","120","236169.905421","228452.709494","229219.95917","229986.477959","230753.368993","231519.537797","232285.8077","233036.097938","236936.499957","237703.317408","238469.997585","239235.963571","240003.170272","240769.79789","241536.393663","242303.197819","241545.961675","Mapping"
"Mixed","Both","ball","7","m160priest.wav","space","622.713541146","120","236169.905421","243069.726501","229219.95917","229986.477959","230753.368993","231519.537797","232285.8077","233036.097938","236936.499957","237703.317408","238469.997585","239235.963571","240003.170272","240769.79789","241536.393663","242303.197819","242313.360374","Mapping"
"Mixed","Both","ball","7","m160ball.wav","None","719.886669132","120","236169.905421","243069.726501","243835.886957","229986.477959","230753.368993","231519.537797","232285.8077","233036.097938","236936.499957","237703.317408","238469.997585","239235.963571","240003.170272","240769.79789","241536.393663","242303.197819","243079.577099","Mapping"
"Mixed","Both","ball","7","m160dime.wav","space","563.039837405","120","236169.905421","243069.726501","243835.886957","244603.149001","230753.368993","231519.537797","232285.8077","233036.097938","236936.499957","237703.317408","238469.997585","239235.963571","240003.170272","240769.79789","241536.393663","242303.197819","243845.015943","Mapping"
"Mixed","Both","ball","7","m150reek.wav","None","718.941214553","120","236169.905421","243069.726501","243835.886957","244603.149001","245369.848038","231519.537797","232285.8077","233036.097938","236936.499957","237703.317408","238469.997585","239235.963571","240003.170272","240769.79789","241536.393663","242303.197819","244613.025569","Mapping"
"Mixed","Both","ball","7","m150tile.wav","None","719.370039122","120","236169.905421","243069.726501","243835.886957","244603.149001","245369.848038","246136.280567","232285.8077","233036.097938","236936.499957","237703.317408","238469.997585","239235.963571","240003.170272","240769.79789","241536.393663","242303.197819","245379.465518","Mapping"
"Mixed","Both","ball","7","m150done.wav","None","719.393536332","120","236169.905421","243069.726501","243835.886957","244603.149001","245369.848038","246136.280567","246902.451844","233036.097938","236936.499957","237703.317408","238469.997585","239235.963571","240003.170272","240769.79789","241536.393663","242303.197819","246146.218352","Mapping"
"Mixed","Both","ball","7","m160gnash.wav","None","720.963522675","120","236169.905421","243069.726501","243835.886957","244603.149001","245369.848038","246136.280567","246902.451844","247669.932164","236936.499957","237703.317408","238469.997585","239235.963571","240003.170272","240769.79789","241536.393663","242303.197819","246911.626896","Mapping"
"Mixed","Both","done","38","m150lash.wav","None","719.550596841","120","250786.231733","243069.726501","243835.886957","244603.149001","245369.848038","246136.280567","246902.451844","247669.932164","236936.499957","237703.317408","238469.997585","239235.963571","240003.170272","240769.79789","241536.393663","242303.197819","247679.916634","Mapping"
"Mixed","Both","done","38","m150cad.wav","None","722.652541124","120","250786.231733","243069.726501","243835.886957","244603.149001","245369.848038","246136.280567","246902.451844","247669.932164","251552.988276","237703.317408","238469.997585","239235.963571","240003.170272","240769.79789","241536.393663","242303.197819","250795.774702","Mapping"
"Mixed","Both","done","38","m160cling.wav","None","722.000492795","120","250786.231733","243069.726501","243835.886957","244603.149001","245369.848038","246136.280567","246902.451844","247669.932164","251552.988276","252319.65856","238469.997585","239235.963571","240003.170272","240769.79789","241536.393663","242303.197819","251563.290578","Mapping"
"Mixed","Both","done","38","m150dime.wav","None","722.802181437","120","250786.231733","243069.726501","243835.886957","244603.149001","245369.848038","246136.280567","246902.451844","247669.932164","251552.988276","252319.65856","253086.067901","239235.963571","240003.170272","240769.79789","241536.393663","242303.197819","252329.144642","Mapping"
"Mixed","Both","done","38","m160cad.wav","None","722.804036457","120","250786.231733","243069.726501","243835.886957","244603.149001","245369.848038","246136.280567","246902.451844","247669.932164","251552.988276","252319.65856","253086.067901","253852.305651","240003.170272","240769.79789","241536.393663","242303.197819","253095.918808","Mapping"
"Mixed","Both","done","38","m150done.wav","None","723.821837746","120","250786.231733","243069.726501","243835.886957","244603.149001","245369.848038","246136.280567","246902.451844","247669.932164","251552.988276","252319.65856","253086.067901","253852.305651","254619.155565","240769.79789","241536.393663","242303.197819","253861.680739","Mapping"
"Mixed","Both","done","38","m150bluff.wav","space","379.523024661","120","250786.231733","243069.726501","243835.886957","244603.149001","245369.848038","246136.280567","246902.451844","247669.932164","251552.988276","252319.65856","253086.067901","253852.305651","254619.155565","255385.703725","241536.393663","242303.197819","254628.40822","Mapping"
"Mixed","Both","done","38","m160done.wav","None","723.344163736","120","250786.231733","243069.726501","243835.886957","244603.149001","245369.848038","246136.280567","246902.451844","247669.932164","251552.988276","252319.65856","253086.067901","253852.305651","254619.155565","255385.703725","256153.042444","242303.197819","255394.517353","Mapping"
"Mixed","Both","done","38","m160bluff.wav","space","413.094082032","120","250786.231733","243069.726501","243835.886957","244603.149001","245369.848038","246136.280567","246902.451844","247669.932164","251552.988276","252319.65856","253086.067901","253852.305651","254619.155565","255385.703725","256153.042444","256919.629869","256162.789159","Mapping"
"Mixed","Both","done","38","m150jolt.wav","None","720.946208923","120","250786.231733","257685.603893","243835.886957","244603.149001","245369.848038","246136.280567","246902.451844","247669.932164","251552.988276","252319.65856","253086.067901","253852.305651","254619.155565","255385.703725","256153.042444","256919.629869","256929.473047","Mapping"
"Mixed","Both","done","38","m150done.wav","None","722.649449366","120","250786.231733","257685.603893","258452.21698","244603.149001","245369.848038","246136.280567","246902.451844","247669.932164","251552.988276","252319.65856","253086.067901","253852.305651","254619.155565","255385.703725","256153.042444","256919.629869","257694.671971","Mapping"
"Mixed","Both","done","38","m160cave.wav","space","434.31332265","120","250786.231733","257685.603893","258452.21698","259219.579814","245369.848038","246136.280567","246902.451844","247669.932164","251552.988276","252319.65856","253086.067901","253852.305651","254619.155565","255385.703725","256153.042444","256919.629869","258461.549402","Mapping"
"Mixed","Both","done","38","m150ball.wav","None","720.757921867","120","250786.231733","257685.603893","258452.21698","259219.579814","259986.137249","246136.280567","246902.451844","247669.932164","251552.988276","252319.65856","253086.067901","253852.305651","254619.155565","255385.703725","256153.042444","256919.629869","259229.215536","Mapping"
"Mixed","Both","done","38","m160done.wav","None","720.724221901","120","250786.231733","257685.603893","258452.21698","259219.579814","259986.137249","260752.860093","246902.451844","247669.932164","251552.988276","252319.65856","253086.067901","253852.305651","254619.155565","255385.703725","256153.042444","256919.629869","259996.047208","Mapping"
"Mixed","Both","done","38","m160jaw.wav","space","373.009961913","120","250786.231733","257685.603893","258452.21698","259219.579814","259986.137249","260752.860093","261519.561913","247669.932164","251552.988276","252319.65856","253086.067901","253852.305651","254619.155565","255385.703725","256153.042444","256919.629869","260762.807771","Mapping"
"Mixed","Both","done","38","m160ball.wav","None","719.608103216","120","250786.231733","257685.603893","258452.21698","259219.579814","259986.137249","260752.860093","261519.561913","262285.763179","251552.988276","252319.65856","253086.067901","253852.305651","254619.155565","255385.703725","256153.042444","256919.629869","261529.606053","Mapping"
"Mixed","Both","cave","21","m150cad.wav","None","721.496538958","120","265402.850524","257685.603893","258452.21698","259219.579814","259986.137249","260752.860093","261519.561913","262285.763179","251552.988276","252319.65856","253086.067901","253852.305651","254619.155565","255385.703725","256153.042444","256919.629869","262294.569696","Mapping"
"Mixed","Both","cave","21","m160cave.wav","None","722.740037425","120","265402.850524","257685.603893","258452.21698","259219.579814","259986.137249","260752.860093","261519.561913","262285.763179","266169.351071","252319.65856","253086.067901","253852.305651","254619.155565","255385.703725","256153.042444","256919.629869","265412.573433","Mapping"
"Mixed","Both","cave","21","m160romp.wav","space","660.455048666","120","265402.850524","257685.603893","258452.21698","259219.579814","259986.137249","260752.860093","261519.561913","262285.763179","266169.351071","266936.044543","253086.067901","253852.305651","254619.155565","255385.703725","256153.042444","256919.629869","266179.259485","Mapping"
"Mixed","Both","cave","21","m150cave.wav","None","722.097882652","120","265402.850524","257685.603893","258452.21698","259219.579814","259986.137249","260752.860093","261519.561913","262285.763179","266169.351071","266936.044543","267702.572916","253852.305651","254619.155565","255385.703725","256153.042444","256919.629869","266945.986966","Mapping"
"Mixed","Both","cave","21","m150cling.wav","space","655.085621111","120","265402.850524","257685.603893","258452.21698","259219.579814","259986.137249","260752.860093","261519.561913","262285.763179","266169.351071","266936.044543","267702.572916","268469.070063","254619.155565","255385.703725","256153.042444","256919.629869","267712.617366","Mapping"
"Mixed","Both","cave","21","m160lash.wav","None","722.731380549","120","265402.850524","257685.603893","258452.21698","259219.579814","259986.137249","260752.860093","261519.561913","262285.763179","266169.351071","266936.044543","267702.572916","268469.070063","269236.120631","255385.703725","256153.042444","256919.629869","268478.139378","Mapping"
"Mixed","Both","cave","21","m150park.wav","None","722.192180809","120","265402.850524","257685.603893","258452.21698","259219.579814","259986.137249","260752.860093","261519.561913","262285.763179","266169.351071","266936.044543","267702.572916","268469.070063","269236.120631","270002.095273","256153.042444","256919.629869","269245.651852","Mapping"
"Mixed","Both","cave","21","m160cave.wav","None","723.349419655","120","265402.850524","257685.603893","258452.21698","259219.579814","259986.137249","260752.860093","261519.561913","262285.763179","266169.351071","266936.044543","267702.572916","268469.070063","269236.120631","270002.095273","270768.911487","256919.629869","270011.363078","Mapping"
"Mixed","Both","cave","21","m160cad.wav","space","397.376286273","120","265402.850524","257685.603893","258452.21698","259219.579814","259986.137249","260752.860093","261519.561913","262285.763179","266169.351071","266936.044543","267702.572916","268469.070063","269236.120631","270002.095273","270768.911487","271535.855391","270778.253494","Mapping"
"Mixed","Both","cave","21","m150cave.wav","None","721.593310474","120","265402.850524","272301.98833","258452.21698","259219.579814","259986.137249","260752.860093","261519.561913","262285.763179","266169.351071","266936.044543","267702.572916","268469.070063","269236.120631","270002.095273","270768.911487","271535.855391","271545.661467","Mapping"
"Mixed","Both","cave","21","m150done.wav","space","672.259008803","120","265402.850524","272301.98833","273069.253774","259219.579814","259986.137249","260752.860093","261519.561913","262285.763179","266169.351071","266936.044543","267702.572916","268469.070063","269236.120631","270002.095273","270768.911487","271535.855391","272311.384132","Mapping"
"Mixed","Both","cave","21","m150reek.wav","None","720.822230156","120","265402.850524","272301.98833","273069.253774","273835.418868","259986.137249","260752.860093","261519.561913","262285.763179","266169.351071","266936.044543","267702.572916","268469.070063","269236.120631","270002.095273","270768.911487","271535.855391","273079.084585","Mapping"
"Mixed","Both","cave","21","m160reek.wav","None","722.41262201","120","265402.850524","272301.98833","273069.253774","273835.418868","274601.988361","260752.860093","261519.561913","262285.763179","266169.351071","266936.044543","267702.572916","268469.070063","269236.120631","270002.095273","270768.911487","271535.855391","273844.495293","Mapping"
"Mixed","Both","cave","21","m160cling.wav","None","722.691806208","120","265402.850524","272301.98833","273069.253774","273835.418868","274601.988361","275368.977403","261519.561913","262285.763179","266169.351071","266936.044543","267702.572916","268469.070063","269236.120631","270002.095273","270768.911487","271535.855391","274611.260185","Mapping"
"Mixed","Both","cave","21","m160tile.wav","None","722.741274105","120","265402.850524","272301.98833","273069.253774","273835.418868","274601.988361","275368.977403","276135.836902","262285.763179","266169.351071","266936.044543","267702.572916","268469.070063","269236.120631","270002.095273","270768.911487","271535.855391","275378.137306","Mapping"
"Mixed","Both","cave","21","m150gnash.wav","None","722.34707704","120","265402.850524","272301.98833","273069.253774","273835.418868","274601.988361","275368.977403","276135.836902","276901.991484","266169.351071","266936.044543","267702.572916","268469.070063","269236.120631","270002.095273","270768.911487","271535.855391","276145.562284","Mapping"
"Mixed","Both","ball","3","m150romp.wav","None","723.672197491","120","280035.79402","272301.98833","273069.253774","273835.418868","274601.988361","275368.977403","276135.836902","276901.991484","266169.351071","266936.044543","267702.572916","268469.070063","269236.120631","270002.095273","270768.911487","271535.855391","276911.294225","Mapping"
"Mixed","Both","ball","3","m160ball.wav","None","722.740037425","120","280035.79402","272301.98833","273069.253774","273835.418868","274601.988361","275368.977403","276135.836902","276901.991484","280802.409271","266936.044543","267702.572916","268469.070063","269236.120631","270002.095273","270768.911487","271535.855391","280045.390785","Mapping"
"Mixed","Both","ball","3","m150tile.wav","space","419.032389997","120","280035.79402","272301.98833","273069.253774","273835.418868","274601.988361","275368.977403","276135.836902","276901.991484","280802.409271","281569.33586","267702.572916","268469.070063","269236.120631","270002.095273","270768.911487","271535.855391","280812.483092","Mapping"
"Mixed","Both","ball","3","m150ball.wav","None","722.14271297","120","280035.79402","272301.98833","273069.253774","273835.418868","274601.988361","275368.977403","276135.836902","276901.991484","280802.409271","281569.33586","282335.939671","268469.070063","269236.120631","270002.095273","270768.911487","271535.855391","281579.306108","Mapping"
"Mixed","Both","ball","3","m160cling.wav","space","333.872533054","120","280035.79402","272301.98833","273069.253774","273835.418868","274601.988361","275368.977403","276135.836902","276901.991484","280802.409271","281569.33586","282335.939671","283102.302946","269236.120631","270002.095273","270768.911487","271535.855391","282345.584668","Mapping"
"Mixed","Both","ball","3","m160ball.wav","None","721.914233232","120","280035.79402","272301.98833","273069.253774","273835.418868","274601.988361","275368.977403","276135.836902","276901.991484","280802.409271","281569.33586","282335.939671","283102.302946","283869.328471","270002.095273","270768.911487","271535.855391","283112.601537","Mapping"
"Mixed","Both","ball","3","m150tile.wav","space","280.427142687","120","280035.79402","272301.98833","273069.253774","273835.418868","274601.988361","275368.977403","276135.836902","276901.991484","280802.409271","281569.33586","282335.939671","283102.302946","283869.328471","284635.694218","270768.911487","271535.855391","283879.052307","Mapping"
"Mixed","Both","ball","3","m160bluff.wav","None","721.582489379","120","280035.79402","272301.98833","273069.253774","273835.418868","274601.988361","275368.977403","276135.836902","276901.991484","280802.409271","281569.33586","282335.939671","283102.302946","283869.328471","284635.694218","285402.356773","271535.855391","284645.481435","Mapping"
"Mixed","Both","ball","3","m150park.wav","None","722.270711034","120","280035.79402","272301.98833","273069.253774","273835.418868","274601.988361","275368.977403","276135.836902","276901.991484","280802.409271","281569.33586","282335.939671","283102.302946","283869.328471","284635.694218","285402.356773","286168.661304","285412.396894","Mapping"
"Mixed","Both","ball","3","m160jaw.wav","None","723.671579151","120","280035.79402","286935.790402","273069.253774","273835.418868","274601.988361","275368.977403","276135.836902","276901.991484","280802.409271","281569.33586","282335.939671","283102.302946","283869.328471","284635.694218","285402.356773","286168.661304","286177.959407","Mapping"
"Mixed","Both","ball","3","m160cave.wav","None","723.24584634","120","280035.79402","286935.790402","287702.367006","273835.418868","274601.988361","275368.977403","276135.836902","276901.991484","280802.409271","281569.33586","282335.939671","283102.302946","283869.328471","284635.694218","285402.356773","286168.661304","286945.398607","Mapping"
"Mixed","Both","ball","3","m150ball.wav","None","723.412491148","120","280035.79402","286935.790402","287702.367006","288468.718532","274601.988361","275368.977403","276135.836902","276901.991484","280802.409271","281569.33586","282335.939671","283102.302946","283869.328471","284635.694218","285402.356773","286168.661304","287712.304173","Mapping"
"Mixed","Both","ball","3","m150jolt.wav","space","409.34070776","120","280035.79402","286935.790402","287702.367006","288468.718532","289235.581122","275368.977403","276135.836902","276901.991484","280802.409271","281569.33586","282335.939671","283102.302946","283869.328471","284635.694218","285402.356773","286168.661304","288478.051881","Mapping"
"Mixed","Both","ball","3","m160tile.wav","None","723.240590363","120","280035.79402","286935.790402","287702.367006","288468.718532","289235.581122","290002.359617","276135.836902","276901.991484","280802.409271","281569.33586","282335.939671","283102.302946","283869.328471","284635.694218","285402.356773","286168.661304","289245.333403","Mapping"
"Mixed","Both","ball","3","m150greet.wav","None","723.237807804","120","280035.79402","286935.790402","287702.367006","288468.718532","289235.581122","290002.359617","290768.359302","276901.991484","280802.409271","281569.33586","282335.939671","283102.302946","283869.328471","284635.694218","285402.356773","286168.661304","290012.387681","Mapping"
"Mixed","Both","ball","3","m160cave.wav","None","725.469426834","120","280035.79402","286935.790402","287702.367006","288468.718532","289235.581122","290002.359617","290768.359302","291534.992486","280802.409271","281569.33586","282335.939671","283102.302946","283869.328471","284635.694218","285402.356773","286168.661304","290777.294126","Mapping"
"Mixed","Both","done","41","m160jolt.wav","None","725.889903726","120","294668.997531","286935.790402","287702.367006","288468.718532","289235.581122","290002.359617","290768.359302","291534.992486","280802.409271","281569.33586","282335.939671","283102.302946","283869.328471","284635.694218","285402.356773","286168.661304","291543.814461","Mapping"
"Mixed","Both","done","41","m150bluff.wav","None","721.997091954","120","294668.997531","286935.790402","287702.367006","288468.718532","289235.581122","290002.359617","290768.359302","291534.992486","295435.486948","281569.33586","282335.939671","283102.302946","283869.328471","284635.694218","285402.356773","286168.661304","294678.774854","Mapping"
"Mixed","Both","done","41","m160park.wav","None","722.114887263","120","294668.997531","286935.790402","287702.367006","288468.718532","289235.581122","290002.359617","290768.359302","291534.992486","295435.486948","296201.778803","282335.939671","283102.302946","283869.328471","284635.694218","285402.356773","286168.661304","295445.624768","Mapping"
"Mixed","Both","done","41","m160done.wav","None","724.037332169","120","294668.997531","286935.790402","287702.367006","288468.718532","289235.581122","290002.359617","290768.359302","291534.992486","295435.486948","296201.778803","296968.205148","283102.302946","283869.328471","284635.694218","285402.356773","286168.661304","296211.029293","Mapping"
"Mixed","Both","done","41","m150priest.wav","space","534.312920761","120","294668.997531","286935.790402","287702.367006","288468.718532","289235.581122","290002.359617","290768.359302","291534.992486","295435.486948","296201.778803","296968.205148","297735.049188","283869.328471","284635.694218","285402.356773","286168.661304","296976.947975","Mapping"
"Mixed","Both","done","41","m150jaw.wav","None","723.175354593","120","294668.997531","286935.790402","287702.367006","288468.718532","289235.581122","290002.359617","290768.359302","291534.992486","295435.486948","296201.778803","296968.205148","297735.049188","298502.256817","284635.694218","285402.356773","286168.661304","297744.62864","Mapping"
"Mixed","Both","done","41","m160done.wav","None","722.707574139","120","294668.997531","286935.790402","287702.367006","288468.718532","289235.581122","290002.359617","290768.359302","291534.992486","295435.486948","296201.778803","296968.205148","297735.049188","298502.256817","299268.917207","285402.356773","286168.661304","298512.173269","Mapping"
"Mixed","Both","done","41","m160knife.wav","space","424.127270933","120","294668.997531","286935.790402","287702.367006","288468.718532","289235.581122","290002.359617","290768.359302","291534.992486","295435.486948","296201.778803","296968.205148","297735.049188","298502.256817","299268.917207","300035.597385","286168.661304","299279.122119","Mapping"
"Mixed","Both","done","41","m160cave.wav","None","722.293589904","120","294668.997531","286935.790402","287702.367006","288468.718532","289235.581122","290002.359617","290768.359302","291534.992486","295435.486948","296201.778803","296968.205148","297735.049188","298502.256817","299268.917207","300035.597385","300802.250355","300045.237126","Mapping"
"Mixed","Both","done","41","m160jolt.wav","None","723.180919769","120","294668.997531","301568.969489","287702.367006","288468.718532","289235.581122","290002.359617","290768.359302","291534.992486","295435.486948","296201.778803","296968.205148","297735.049188","298502.256817","299268.917207","300035.597385","300802.250355","300812.091368","Mapping"
"Mixed","Both","done","41","m150ball.wav","None","723.429186561","120","294668.997531","301568.969489","302334.748114","288468.718532","289235.581122","290002.359617","290768.359302","291534.992486","295435.486948","296201.778803","296968.205148","297735.049188","298502.256817","299268.917207","300035.597385","300802.250355","301578.866462","Mapping"
"Mixed","Both","done","41","m150cling.wav","None","725.736862456","120","294668.997531","301568.969489","302334.748114","303101.396138","289235.581122","290002.359617","290768.359302","291534.992486","295435.486948","296201.778803","296968.205148","297735.049188","298502.256817","299268.917207","300035.597385","300802.250355","302343.675209","Mapping"
"Mixed","Both","done","41","m150done.wav","None","726.264622819","120","294668.997531","301568.969489","302334.748114","303101.396138","303868.504212","290002.359617","290768.359302","291534.992486","295435.486948","296201.778803","296968.205148","297735.049188","298502.256817","299268.917207","300035.597385","300802.250355","303110.142675","Mapping"
"Mixed","Both","done","41","m150lash.wav","space","441.403922741","120","294668.997531","301568.969489","302334.748114","303101.396138","303868.504212","304634.980644","290768.359302","291534.992486","295435.486948","296201.778803","296968.205148","297735.049188","298502.256817","299268.917207","300035.597385","300802.250355","303877.769853","Mapping"
"Mixed","Both","done","41","m150done.wav","None","724.636202503","120","294668.997531","301568.969489","302334.748114","303101.396138","303868.504212","304634.980644","305401.532824","291534.992486","295435.486948","296201.778803","296968.205148","297735.049188","298502.256817","299268.917207","300035.597385","300802.250355","304644.410147","Mapping"
"Mixed","Both","done","41","m160park.wav","space","492.184231931","120","294668.997531","301568.969489","302334.748114","303101.396138","303868.504212","304634.980644","305401.532824","306168.656975","295435.486948","296201.778803","296968.205148","297735.049188","298502.256817","299268.917207","300035.597385","300802.250355","305410.97222","Mapping"
"Mixed","Both","ball","2","m150cling.wav","None","723.080438154","120","309301.975654","301568.969489","302334.748114","303101.396138","303868.504212","304634.980644","305401.532824","306168.656975","295435.486948","296201.778803","296968.205148","297735.049188","298502.256817","299268.917207","300035.597385","300802.250355","306178.615784","Mapping"
"Mixed","Both","ball","2","m150ball.wav","None","722.602764086","120","309301.975654","301568.969489","302334.748114","303101.396138","303868.504212","304634.980644","305401.532824","306168.656975","310068.263489","296201.778803","296968.205148","297735.049188","298502.256817","299268.917207","300035.597385","300802.250355","309312.071427","Mapping"
"Mixed","Both","ball","2","m150romp.wav","None","724.304767791","120","309301.975654","301568.969489","302334.748114","303101.396138","303868.504212","304634.980644","305401.532824","306168.656975","310068.263489","310834.912131","296968.205148","297735.049188","298502.256817","299268.917207","300035.597385","300802.250355","310077.590964","Mapping"
"Mixed","Both","ball","2","m150ball.wav","None","724.945376685","120","309301.975654","301568.969489","302334.748114","303101.396138","303868.504212","304634.980644","305401.532824","306168.656975","310068.263489","310834.912131","311601.879841","297735.049188","298502.256817","299268.917207","300035.597385","300802.250355","310844.14469","Mapping"
"Mixed","Both","ball","2","m160reek.wav","None","724.600338319","120","309301.975654","301568.969489","302334.748114","303101.396138","303868.504212","304634.980644","305401.532824","306168.656975","310068.263489","310834.912131","311601.879841","312368.897636","298502.256817","299268.917207","300035.597385","300802.250355","311611.559156","Mapping"
"Mixed","Both","ball","2","m160ball.wav","None","724.731737282","120","309301.975654","301568.969489","302334.748114","303101.396138","303868.504212","304634.980644","305401.532824","306168.656975","310068.263489","310834.912131","311601.879841","312368.897636","313134.952355","299268.917207","300035.597385","300802.250355","312378.501513","Mapping"
"Mixed","Both","ball","2","m150cave.wav","None","726.344389725","120","309301.975654","301568.969489","302334.748114","303101.396138","303868.504212","304634.980644","305401.532824","306168.656975","310068.263489","310834.912131","311601.879841","312368.897636","313134.952355","313901.624803","300035.597385","300802.250355","313144.259733","Mapping"
"Mixed","Both","ball","2","m150gnash.wav","None","726.741060149","120","309301.975654","301568.969489","302334.748114","303101.396138","303868.504212","304634.980644","305401.532824","306168.656975","310068.263489","310834.912131","311601.879841","312368.897636","313134.952355","313901.624803","314668.390313","300802.250355","313910.907757","Mapping"
"Mixed","Both","ball","2","m160done.wav","None","726.217937481","120","309301.975654","301568.969489","302334.748114","303101.396138","303868.504212","304634.980644","305401.532824","306168.656975","310068.263489","310834.912131","311601.879841","312368.897636","313134.952355","313901.624803","314668.390313","315434.877565","314678.394261","Mapping"
"Mixed","Both","ball","2","m160lash.wav","None","727.720214694","120","309301.975654","316201.641838","302334.748114","303101.396138","303868.504212","304634.980644","305401.532824","306168.656975","310068.263489","310834.912131","311601.879841","312368.897636","313134.952355","313901.624803","314668.390313","315434.877565","315444.175051","Mapping"
"Mixed","Both","ball","2","m160ball.wav","None","728.127706272","120","309301.975654","316201.641838","316967.920399","303101.396138","303868.504212","304634.980644","305401.532824","306168.656975","310068.263489","310834.912131","311601.879841","312368.897636","313134.952355","313901.624803","314668.390313","315434.877565","316210.865431","Mapping"
"Mixed","Both","ball","2","m160done.wav","space","342.196119658","120","309301.975654","316201.641838","316967.920399","317735.018271","303868.504212","304634.980644","305401.532824","306168.656975","310068.263489","310834.912131","311601.879841","312368.897636","313134.952355","313901.624803","314668.390313","315434.877565","316976.781021","Mapping"
"Mixed","Both","ball","2","m150cave.wav","None","727.557279868","120","309301.975654","316201.641838","316967.920399","317735.018271","318501.48048","304634.980644","305401.532824","306168.656975","310068.263489","310834.912131","311601.879841","312368.897636","313134.952355","313901.624803","314668.390313","315434.877565","317744.936887","Mapping"
"Mixed","Both","ball","2","m160cad.wav","None","728.621457354","120","309301.975654","316201.641838","316967.920399","317735.018271","318501.48048","319268.281545","305401.532824","306168.656975","310068.263489","310834.912131","311601.879841","312368.897636","313134.952355","313901.624803","314668.390313","315434.877565","318510.926988","Mapping"
"Mixed","Both","ball","2","m160romp.wav","None","729.088310385","120","309301.975654","316201.641838","316967.920399","317735.018271","318501.48048","319268.281545","320034.767871","306168.656975","310068.263489","310834.912131","311601.879841","312368.897636","313134.952355","313901.624803","314668.390313","315434.877565","319277.679203","Mapping"
"Mixed","Both","ball","2","m150knife.wav","None","730.051387858","120","309301.975654","316201.641838","316967.920399","317735.018271","318501.48048","319268.281545","320034.767871","320801.138874","310068.263489","310834.912131","311601.879841","312368.897636","313134.952355","313901.624803","314668.390313","315434.877565","320043.886962","Mapping"
"Mixed","Both","done","45","m160reek.wav","None","731.735150272","120","323935.138972","316201.641838","316967.920399","317735.018271","318501.48048","319268.281545","320034.767871","320801.138874","310068.263489","310834.912131","311601.879841","312368.897636","313134.952355","313901.624803","314668.390313","315434.877565","320809.780292","Mapping"
"Mixed","Both","done","45","m150greet.wav","None","722.434264142","120","323935.138972","316201.641838","316967.920399","317735.018271","318501.48048","319268.281545","320034.767871","320801.138874","324702.101117","310834.912131","311601.879841","312368.897636","313134.952355","313901.624803","314668.390313","315434.877565","323944.867755","Mapping"
"Mixed","Both","done","45","m150jolt.wav","None","722.535982437","120","323935.138972","316201.641838","316967.920399","317735.018271","318501.48048","319268.281545","320034.767871","320801.138874","324702.101117","325468.587442","311601.879841","312368.897636","313134.952355","313901.624803","314668.390313","315434.877565","324711.96068","Mapping"
"Mixed","Both","done","45","m150jaw.wav","None","723.565223219","120","323935.138972","316201.641838","316967.920399","317735.018271","318501.48048","319268.281545","320034.767871","320801.138874","324702.101117","325468.587442","326234.674314","312368.897636","313134.952355","313901.624803","314668.390313","315434.877565","325478.31808","Mapping"
"Mixed","Both","done","45","m150tile.wav","None","725.317622302","120","323935.138972","316201.641838","316967.920399","317735.018271","318501.48048","319268.281545","320034.767871","320801.138874","324702.101117","325468.587442","326234.674314","327001.743433","313134.952355","313901.624803","314668.390313","315434.877565","326243.760634","Mapping"
"Mixed","Both","done","45","m160done.wav","None","724.856643646","120","323935.138972","316201.641838","316967.920399","317735.018271","318501.48048","319268.281545","320034.767871","320801.138874","324702.101117","325468.587442","326234.674314","327001.743433","327767.744664","313901.624803","314668.390313","315434.877565","327011.638243","Mapping"
"Mixed","Both","done","45","m160bluff.wav","space","534.40969222","120","323935.138972","316201.641838","316967.920399","317735.018271","318501.48048","319268.281545","320034.767871","320801.138874","324702.101117","325468.587442","326234.674314","327001.743433","327767.744664","328534.613747","314668.390313","315434.877565","327776.395048","Mapping"
"Mixed","Both","done","45","m150done.wav","None","725.858058722","120","323935.138972","316201.641838","316967.920399","317735.018271","318501.48048","319268.281545","320034.767871","320801.138874","324702.101117","325468.587442","326234.674314","327001.743433","327767.744664","328534.613747","329301.032982","315434.877565","328543.807041","Mapping"
"Mixed","Both","done","45","m160greet.wav","space","457.027420343","120","323935.138972","316201.641838","316967.920399","317735.018271","318501.48048","319268.281545","320034.767871","320801.138874","324702.101117","325468.587442","326234.674314","327001.743433","327767.744664","328534.613747","329301.032982","330068.098699","329309.749838","Mapping"
"Mixed","Both","done","45","m160depth.wav","None","725.123151788","120","323935.138972","330834.266885","316967.920399","317735.018271","318501.48048","319268.281545","320034.767871","320801.138874","324702.101117","325468.587442","326234.674314","327001.743433","327767.744664","328534.613747","329301.032982","330068.098699","330077.640123","Mapping"
"Mixed","Both","done","45","m150ball.wav","None","726.876787608","120","323935.138972","330834.266885","331601.008897","317735.018271","318501.48048","319268.281545","320034.767871","320801.138874","324702.101117","325468.587442","326234.674314","327001.743433","327767.744664","328534.613747","329301.032982","330068.098699","330843.110502","Mapping"
"Mixed","Both","done","45","m150tile.wav","None","727.089499414","120","323935.138972","330834.266885","331601.008897","332367.792957","318501.48048","319268.281545","320034.767871","320801.138874","324702.101117","325468.587442","326234.674314","327001.743433","327767.744664","328534.613747","329301.032982","330068.098699","331610.208374","Mapping"
"Mixed","Both","done","45","m160done.wav","None","728.027842997","120","323935.138972","330834.266885","331601.008897","332367.792957","333134.218684","319268.281545","320034.767871","320801.138874","324702.101117","325468.587442","326234.674314","327001.743433","327767.744664","328534.613747","329301.032982","330068.098699","332376.629155","Mapping"
"Mixed","Both","done","45","m160ball.wav","space","415.66888435","120","323935.138972","330834.266885","331601.008897","332367.792957","333134.218684","333901.0383","320034.767871","320801.138874","324702.101117","325468.587442","326234.674314","327001.743433","327767.744664","328534.613747","329301.032982","330068.098699","333143.058592","Mapping"
"Mixed","Both","done","45","m150done.wav","None","727.497300133","120","323935.138972","330834.266885","331601.008897","332367.792957","333134.218684","333901.0383","334667.57502","320801.138874","324702.101117","325468.587442","326234.674314","327001.743433","327767.744664","328534.613747","329301.032982","330068.098699","333910.189855","Mapping"
"Mixed","Both","done","45","m160jolt.wav","space","658.174270939","120","323935.138972","330834.266885","331601.008897","332367.792957","333134.218684","333901.0383","334667.57502","335434.538711","324702.101117","325468.587442","326234.674314","327001.743433","327767.744664","328534.613747","329301.032982","330068.098699","334676.515719","Mapping"
"Mixed","Both","ball","1","m150bluff.wav","None","726.947588497","120","338568.387623","330834.266885","331601.008897","332367.792957","333134.218684","333901.0383","334667.57502","335434.538711","324702.101117","325468.587442","326234.674314","327001.743433","327767.744664","328534.613747","329301.032982","330068.098699","335443.744062","Mapping"
"Mixed","Both","ball","1","m160reek.wav","None","721.858581877","120","338568.387623","330834.266885","331601.008897","332367.792957","333134.218684","333901.0383","334667.57502","335434.538711","339334.91074","325468.587442","326234.674314","327001.743433","327767.744664","328534.613747","329301.032982","330068.098699","338578.171439","Mapping"
"Mixed","Both","ball","1","m150depth.wav","None","722.485896258","120","338568.387623","330834.266885","331601.008897","332367.792957","333134.218684","333901.0383","334667.57502","335434.538711","339334.91074","340101.810431","326234.674314","327001.743433","327767.744664","328534.613747","329301.032982","330068.098699","339344.742787","Mapping"
"Mixed","Both","ball","1","m150ball.wav","None","723.077037255","120","338568.387623","330834.266885","331601.008897","332367.792957","333134.218684","333901.0383","334667.57502","335434.538711","339334.91074","340101.810431","340867.956665","327001.743433","327767.744664","328534.613747","329301.032982","330068.098699","340111.530248","Mapping"
"Mixed","Both","ball","1","m150tile.wav","space","361.315140326","120","338568.387623","330834.266885","331601.008897","332367.792957","333134.218684","333901.0383","334667.57502","335434.538711","339334.91074","340101.810431","340867.956665","341635.185627","327767.744664","328534.613747","329301.032982","330068.098699","340877.275792","Mapping"
"Mixed","Both","ball","1","m150done.wav","None","723.00407209","120","338568.387623","330834.266885","331601.008897","332367.792957","333134.218684","333901.0383","334667.57502","335434.538711","339334.91074","340101.810431","340867.956665","341635.185627","342401.216538","328534.613747","329301.032982","330068.098699","341644.904516","Mapping"
"Mixed","Both","ball","1","m160ball.wav","None","724.619507091","120","338568.387623","330834.266885","331601.008897","332367.792957","333134.218684","333901.0383","334667.57502","335434.538711","339334.91074","340101.810431","340867.956665","341635.185627","342401.216538","343167.631754","329301.032982","330068.098699","342410.546487","Mapping"
"Mixed","Both","ball","1","m150cling.wav","space","382.104938035","120","338568.387623","330834.266885","331601.008897","332367.792957","333134.218684","333901.0383","334667.57502","335434.538711","339334.91074","340101.810431","340867.956665","341635.185627","342401.216538","343167.631754","343934.755287","330068.098699","343176.481555","Mapping"
"Mixed","Both","ball","1","m160ball.wav","None","723.845025816","120","338568.387623","330834.266885","331601.008897","332367.792957","333134.218684","333901.0383","334667.57502","335434.538711","339334.91074","340101.810431","340867.956665","341635.185627","342401.216538","343167.631754","343934.755287","344701.174522","343944.419144","Mapping"
"Mixed","Both","ball","1","m160cling.wav","space","383.817453694","120","338568.387623","345467.482454","331601.008897","332367.792957","333134.218684","333901.0383","334667.57502","335434.538711","339334.91074","340101.810431","340867.956665","341635.185627","342401.216538","343167.631754","343934.755287","344701.174522","344710.757993","Mapping"
"Mixed","Both","ball","1","m160tile.wav","None","725.581966224","120","338568.387623","345467.482454","346234.394821","332367.792957","333134.218684","333901.0383","334667.57502","335434.538711","339334.91074","340101.810431","340867.956665","341635.185627","342401.216538","343167.631754","343934.755287","344701.174522","345476.169938","Mapping"
"Mixed","Both","ball","1","m150tile.wav","None","725.164272008","120","338568.387623","345467.482454","346234.394821","347001.139307","333134.218684","333901.0383","334667.57502","335434.538711","339334.91074","340101.810431","340867.956665","341635.185627","342401.216538","343167.631754","343934.755287","344701.174522","346244.003954","Mapping"
"Mixed","Both","ball","1","m150ball.wav","None","726.292139268","120","338568.387623","345467.482454","346234.394821","347001.139307","347767.835871","333901.0383","334667.57502","335434.538711","339334.91074","340101.810431","340867.956665","341635.185627","342401.216538","343167.631754","343934.755287","344701.174522","347010.417932","Mapping"
"Mixed","Both","ball","1","m160dime.wav","space","317.164143373","120","338568.387623","345467.482454","346234.394821","347001.139307","347767.835871","348534.333017","334667.57502","335434.538711","339334.91074","340101.810431","340867.956665","341635.185627","342401.216538","343167.631754","343934.755287","344701.174522","347777.342357","Mapping"
