"Condition","Talker","Target","Trial","current_stimulus","response_response","response_time_response","subject_nr","time_Audio1","time_Audio10","time_Audio11","time_Audio12","time_Audio13","time_Audio14","time_Audio15","time_Audio16","time_Audio2","time_Audio3","time_Audio4","time_Audio5","time_Audio6","time_Audio7","time_Audio8","time_Audio9","time_response","title"
"Mixed","Both","done","37","m150bluff.wav","NA","NA","175","109172.448463","NA","NA","NA","NA","NA","NA","NA","NA","NA","NA","NA","NA","NA","NA","NA","NA","Mapping"
"Mixed","Both","done","37","m160park.wav","None","718.03744277","175","109172.448463","NA","NA","NA","NA","NA","NA","NA","109939.558494","NA","NA","NA","NA","NA","NA","NA","109185.999524","Mapping"
"Mixed","Both","done","37","m160ball.wav","None","720.360260922","175","109172.448463","NA","NA","NA","NA","NA","NA","NA","109939.558494","110705.5824","NA","NA","NA","NA","NA","NA","109949.66011","Mapping"
"Mixed","Both","done","37","m150dime.wav","None","720.633879304","175","109172.448463","NA","NA","NA","NA","NA","NA","NA","109939.558494","110705.5824","111472.239802","NA","NA","NA","NA","NA","110715.269415","Mapping"
"Mixed","Both","done","37","m160bluff.wav","space","364.270337392","175","109172.448463","NA","NA","NA","NA","NA","NA","NA","109939.558494","110705.5824","111472.239802","112239.140214","NA","NA","NA","NA","111481.98185","Mapping"
"Mixed","Both","done","37","m160bluff.wav","None","718.338268343","175","109172.448463","NA","NA","NA","NA","NA","NA","NA","109939.558494","110705.5824","111472.239802","112239.140214","112988.589345","NA","NA","NA","112249.014278","Mapping"
"Mixed","Both","done","37","m160done.wav","None","735.280959867","175","109172.448463","NA","NA","NA","NA","NA","NA","NA","109939.558494","110705.5824","111472.239802","112239.140214","112988.589345","113755.307653","NA","NA","112997.836097","Mapping"
"Mixed","Both","done","37","m160park.wav","space","730.129206553","175","109172.448463","NA","NA","NA","NA","NA","NA","NA","109939.558494","110705.5824","111472.239802","112239.140214","112988.589345","113755.307653","114521.757909","NA","113764.144751","Mapping"
"Mixed","Both","done","37","m150done.wav","None","732.838182244","175","109172.448463","NA","NA","NA","NA","NA","NA","NA","109939.558494","110705.5824","111472.239802","112239.140214","112988.589345","113755.307653","114521.757909","115288.421185","114531.511396","Mapping"
"Mixed","Both","done","37","m150bluff.wav","space","476.692205295","175","109172.448463","116055.128982","NA","NA","NA","NA","NA","NA","109939.558494","110705.5824","111472.239802","112239.140214","112988.589345","113755.307653","114521.757909","115288.421185","115297.508713","Mapping"
"Mixed","Both","done","37","m160park.wav","None","731.444429141","175","109172.448463","116055.128982","116821.762268","NA","NA","NA","NA","NA","109939.558494","110705.5824","111472.239802","112239.140214","112988.589345","113755.307653","114521.757909","115288.421185","116064.243099","Mapping"
"Mixed","Both","done","37","m160done.wav","None","730.255039874","175","109172.448463","116055.128982","116821.762268","117588.337739","NA","NA","NA","NA","109939.558494","110705.5824","111472.239802","112239.140214","112988.589345","113755.307653","114521.757909","115288.421185","116830.94564","Mapping"
"Mixed","Both","done","37","m150ball.wav","space","368.25681664","175","109172.448463","116055.128982","116821.762268","117588.337739","118355.082019","NA","NA","NA","109939.558494","110705.5824","111472.239802","112239.140214","112988.589345","113755.307653","114521.757909","115288.421185","117597.929529","Mapping"
"Mixed","Both","done","37","m150done.wav","None","728.423188906","175","109172.448463","116055.128982","116821.762268","117588.337739","118355.082019","119121.713141","NA","NA","109939.558494","110705.5824","111472.239802","112239.140214","112988.589345","113755.307653","114521.757909","115288.421185","118364.182223","Mapping"
"Mixed","Both","done","37","m150reek.wav","space","427.110717632","175","109172.448463","116055.128982","116821.762268","117588.337739","118355.082019","119121.713141","119888.22956","NA","109939.558494","110705.5824","111472.239802","112239.140214","112988.589345","113755.307653","114521.757909","115288.421185","119131.052336","Mapping"
"Mixed","Both","done","37","m150cad.wav","None","726.870211773","175","109172.448463","116055.128982","116821.762268","117588.337739","118355.082019","119121.713141","119888.22956","120655.079267","109939.558494","110705.5824","111472.239802","112239.140214","112988.589345","113755.307653","114521.757909","115288.421185","119897.249379","Mapping"
"Mixed","Both","tile","25","m160reek.wav","None","725.38587125","175","123805.336824","116055.128982","116821.762268","117588.337739","118355.082019","119121.713141","119888.22956","120655.079267","109939.558494","110705.5824","111472.239802","112239.140214","112988.589345","113755.307653","114521.757909","115288.421185","120664.646941","Mapping"
"Mixed","Both","tile","25","m160tile.wav","None","723.317193333","175","123805.336824","116055.128982","116821.762268","117588.337739","118355.082019","119121.713141","119888.22956","120655.079267","124571.904256","110705.5824","111472.239802","112239.140214","112988.589345","113755.307653","114521.757909","115288.421185","123814.872035","Mapping"
"Mixed","Both","tile","25","m150depth.wav","space","616.643782705","175","123805.336824","116055.128982","116821.762268","117588.337739","118355.082019","119121.713141","119888.22956","120655.079267","124571.904256","125338.571243","111472.239802","112239.140214","112988.589345","113755.307653","114521.757909","115288.421185","124581.381652","Mapping"
"Mixed","Both","tile","25","m160cave.wav","None","722.282700241","175","123805.336824","116055.128982","116821.762268","117588.337739","118355.082019","119121.713141","119888.22956","120655.079267","124571.904256","125338.571243","126105.586358","112239.140214","112988.589345","113755.307653","114521.757909","115288.421185","125348.089449","Mapping"
"Mixed","Both","tile","25","m160ball.wav","None","721.747830044","175","123805.336824","116055.128982","116821.762268","117588.337739","118355.082019","119121.713141","119888.22956","120655.079267","124571.904256","125338.571243","126105.586358","126871.966741","112988.589345","113755.307653","114521.757909","115288.421185","126114.565057","Mapping"
"Mixed","Both","tile","25","m150park.wav","None","721.269539557","175","123805.336824","116055.128982","116821.762268","117588.337739","118355.082019","119121.713141","119888.22956","120655.079267","124571.904256","125338.571243","126105.586358","126871.966741","127638.287762","113755.307653","114521.757909","115288.421185","126881.44228","Mapping"
"Mixed","Both","tile","25","m150tile.wav","None","721.042297315","175","123805.336824","116055.128982","116821.762268","117588.337739","118355.082019","119121.713141","119888.22956","120655.079267","124571.904256","125338.571243","126105.586358","126871.966741","127638.287762","128405.089857","114521.757909","115288.421185","127647.632522","Mapping"
"Mixed","Both","tile","25","m150depth.wav","space","471.113484353","175","123805.336824","116055.128982","116821.762268","117588.337739","118355.082019","119121.713141","119888.22956","120655.079267","124571.904256","125338.571243","126105.586358","126871.966741","127638.287762","128405.089857","129154.828064","115288.421185","128414.817991","Mapping"
"Mixed","Both","tile","25","m160tile.wav","None","736.733455211","175","123805.336824","116055.128982","116821.762268","117588.337739","118355.082019","119121.713141","119888.22956","120655.079267","124571.904256","125338.571243","126105.586358","126871.966741","127638.287762","128405.089857","129154.828064","129921.074266","129163.573028","Mapping"
"Mixed","Both","tile","25","m160cling.wav","space","644.163598306","175","123805.336824","130687.980243","116821.762268","117588.337739","118355.082019","119121.713141","119888.22956","120655.079267","124571.904256","125338.571243","126105.586358","126871.966741","127638.287762","128405.089857","129154.828064","129921.074266","129929.817065","Mapping"
"Mixed","Both","tile","25","m150priest.wav","None","735.139976721","175","123805.336824","130687.980243","131454.812018","117588.337739","118355.082019","119121.713141","119888.22956","120655.079267","124571.904256","125338.571243","126105.586358","126871.966741","127638.287762","128405.089857","129154.828064","129921.074266","130696.979037","Mapping"
"Mixed","Both","tile","25","m160bluff.wav","None","733.872984536","175","123805.336824","130687.980243","131454.812018","132221.369866","118355.082019","119121.713141","119888.22956","120655.079267","124571.904256","125338.571243","126105.586358","126871.966741","127638.287762","128405.089857","129154.828064","129921.074266","131464.168217","Mapping"
"Mixed","Both","tile","25","m150depth.wav","None","733.568449505","175","123805.336824","130687.980243","131454.812018","132221.369866","132988.062823","119121.713141","119888.22956","120655.079267","124571.904256","125338.571243","126105.586358","126871.966741","127638.287762","128405.089857","129154.828064","129921.074266","132230.472543","Mapping"
"Mixed","Both","tile","25","m150tile.wav","None","733.036671299","175","123805.336824","130687.980243","131454.812018","132221.369866","132988.062823","133754.825343","119888.22956","120655.079267","124571.904256","125338.571243","126105.586358","126871.966741","127638.287762","128405.089857","129154.828064","129921.074266","132996.975049","Mapping"
"Mixed","Both","tile","25","m160jaw.wav","space","482.085113414","175","123805.336824","130687.980243","131454.812018","132221.369866","132988.062823","133754.825343","134521.389375","120655.079267","124571.904256","125338.571243","126105.586358","126871.966741","127638.287762","128405.089857","129154.828064","129921.074266","133763.8161","Mapping"
"Mixed","Both","tile","25","m150bluff.wav","None","730.689119548","175","123805.336824","130687.980243","131454.812018","132221.369866","132988.062823","133754.825343","134521.389375","135288.11294","124571.904256","125338.571243","126105.586358","126871.966741","127638.287762","128405.089857","129154.828064","129921.074266","134530.810191","Mapping"
"Mixed","Both","done","41","m150greet.wav","None","730.185785331","175","138421.608362","130687.980243","131454.812018","132221.369866","132988.062823","133754.825343","134521.389375","135288.11294","124571.904256","125338.571243","126105.586358","126871.966741","127638.287762","128405.089857","129154.828064","129921.074266","135297.189028","Mapping"
"Mixed","Both","done","41","m160jaw.wav","None","722.129350062","175","138421.608362","130687.980243","131454.812018","132221.369866","132988.062823","133754.825343","134521.389375","135288.11294","139188.264218","125338.571243","126105.586358","126871.966741","127638.287762","128405.089857","129154.828064","129921.074266","138431.190876","Mapping"
"Mixed","Both","done","41","m150cad.wav","None","721.381460316","175","138421.608362","130687.980243","131454.812018","132221.369866","132988.062823","133754.825343","134521.389375","135288.11294","139188.264218","139955.010353","126105.586358","126871.966741","127638.287762","128405.089857","129154.828064","129921.074266","139198.129935","Mapping"
"Mixed","Both","done","41","m150dime.wav","None","720.828967635","175","138421.608362","130687.980243","131454.812018","132221.369866","132988.062823","133754.825343","134521.389375","135288.11294","139188.264218","139955.010353","140721.596954","126871.966741","127638.287762","128405.089857","129154.828064","129921.074266","139964.650991","Mapping"
"Mixed","Both","done","41","m150cad.wav","space","570.577594452","175","138421.608362","130687.980243","131454.812018","132221.369866","132988.062823","133754.825343","134521.389375","135288.11294","139188.264218","139955.010353","140721.596954","141488.165623","127638.287762","128405.089857","129154.828064","129921.074266","140731.178231","Mapping"
"Mixed","Both","done","41","m150romp.wav","None","719.730165787","175","138421.608362","130687.980243","131454.812018","132221.369866","132988.062823","133754.825343","134521.389375","135288.11294","139188.264218","139955.010353","140721.596954","141488.165623","142237.867657","128405.089857","129154.828064","129921.074266","141497.454113","Mapping"
"Mixed","Both","done","41","m160jaw.wav","None","735.46213517","175","138421.608362","130687.980243","131454.812018","132221.369866","132988.062823","133754.825343","134521.389375","135288.11294","139188.264218","139955.010353","140721.596954","141488.165623","142237.867657","143004.418394","129154.828064","129921.074266","142247.58157","Mapping"
"Mixed","Both","done","41","m160done.wav","None","735.384223517","175","138421.608362","130687.980243","131454.812018","132221.369866","132988.062823","133754.825343","134521.389375","135288.11294","139188.264218","139955.010353","140721.596954","141488.165623","142237.867657","143004.418394","143771.064666","129921.074266","143013.621244","Mapping"
"Mixed","Both","done","41","m160cave.wav","space","417.552319355","175","138421.608362","130687.980243","131454.812018","132221.369866","132988.062823","133754.825343","134521.389375","135288.11294","139188.264218","139955.010353","140721.596954","141488.165623","142237.867657","143004.418394","143771.064666","144537.838935","143780.166106","Mapping"
"Mixed","Both","done","41","m150ball.wav","None","733.318637591","175","138421.608362","145304.603002","131454.812018","132221.369866","132988.062823","133754.825343","134521.389375","135288.11294","139188.264218","139955.010353","140721.596954","141488.165623","142237.867657","143004.418394","143771.064666","144537.838935","144547.078576","Mapping"
"Mixed","Both","done","41","m150done.wav","None","732.829215936","175","138421.608362","145304.603002","146071.128386","132221.369866","132988.062823","133754.825343","134521.389375","135288.11294","139188.264218","139955.010353","140721.596954","141488.165623","142237.867657","143004.418394","143771.064666","144537.838935","145313.597159","Mapping"
"Mixed","Both","done","41","m160jaw.wav","space","493.539362215","175","138421.608362","145304.603002","146071.128386","146837.809904","132988.062823","133754.825343","134521.389375","135288.11294","139188.264218","139955.010353","140721.596954","141488.165623","142237.867657","143004.418394","143771.064666","144537.838935","146080.167683","Mapping"
"Mixed","Both","done","41","m150done.wav","None","731.20018281","175","138421.608362","145304.603002","146071.128386","146837.809904","147604.565004","133754.825343","134521.389375","135288.11294","139188.264218","139955.010353","140721.596954","141488.165623","142237.867657","143004.418394","143771.064666","144537.838935","146846.79324","Mapping"
"Mixed","Both","done","41","m160park.wav","space","391.852915287","175","138421.608362","145304.603002","146071.128386","146837.809904","147604.565004","148371.079568","134521.389375","135288.11294","139188.264218","139955.010353","140721.596954","141488.165623","142237.867657","143004.418394","143771.064666","144537.838935","147613.825978","Mapping"
"Mixed","Both","done","41","m160done.wav","None","729.701619595","175","138421.608362","145304.603002","146071.128386","146837.809904","147604.565004","148371.079568","149137.679772","135288.11294","139188.264218","139955.010353","140721.596954","141488.165623","142237.867657","143004.418394","143771.064666","144537.838935","148380.222747","Mapping"
"Mixed","Both","done","41","m160bluff.wav","space","354.88414811","175","138421.608362","145304.603002","146071.128386","146837.809904","147604.565004","148371.079568","149137.679772","149904.653149","139188.264218","139955.010353","140721.596954","141488.165623","142237.867657","143004.418394","143771.064666","144537.838935","149146.718451","Mapping"
"Mixed","Both","done","46","m150knife.wav","None","727.870696224","175","153038.059221","145304.603002","146071.128386","146837.809904","147604.565004","148371.079568","149137.679772","149904.653149","139188.264218","139955.010353","140721.596954","141488.165623","142237.867657","143004.418394","143771.064666","144537.838935","149913.677606","Mapping"
"Mixed","Both","done","46","m160tile.wav","None","722.210662439","175","153038.059221","145304.603002","146071.128386","146837.809904","147604.565004","148371.079568","149137.679772","149904.653149","153804.805046","139955.010353","140721.596954","141488.165623","142237.867657","143004.418394","143771.064666","144537.838935","153047.932976","Mapping"
"Mixed","Both","done","46","m160cad.wav","None","721.747830044","175","153038.059221","145304.603002","146071.128386","146837.809904","147604.565004","148371.079568","149137.679772","149904.653149","153804.805046","154571.461521","140721.596954","141488.165623","142237.867657","143004.418394","143771.064666","144537.838935","153814.378285","Mapping"
"Mixed","Both","done","46","m150lash.wav","None","721.245114692","175","153038.059221","145304.603002","146071.128386","146837.809904","147604.565004","148371.079568","149137.679772","149904.653149","153804.805046","154571.461521","155338.203636","141488.165623","142237.867657","143004.418394","143771.064666","144537.838935","154580.954374","Mapping"
"Mixed","Both","done","46","m160done.wav","None","720.816600602","175","153038.059221","145304.603002","146071.128386","146837.809904","147604.565004","148371.079568","149137.679772","149904.653149","153804.805046","154571.461521","155338.203636","156104.829502","142237.867657","143004.418394","143771.064666","144537.838935","155347.605283","Mapping"
"Mixed","Both","done","46","m150lash.wav","space","507.287058048","175","153038.059221","145304.603002","146071.128386","146837.809904","147604.565004","148371.079568","149137.679772","149904.653149","153804.805046","154571.461521","155338.203636","156104.829502","156871.352722","143004.418394","143771.064666","144537.838935","156114.211362","Mapping"
"Mixed","Both","done","46","m150ball.wav","None","719.363486394","175","153038.059221","145304.603002","146071.128386","146837.809904","147604.565004","148371.079568","149137.679772","149904.653149","153804.805046","154571.461521","155338.203636","156104.829502","156871.352722","157621.153692","143771.064666","144537.838935","156881.022733","Mapping"
"Mixed","Both","done","46","m160lash.wav","None","736.125311349","175","153038.059221","145304.603002","146071.128386","146837.809904","147604.565004","148371.079568","149137.679772","149904.653149","153804.805046","154571.461521","155338.203636","156104.829502","156871.352722","157621.153692","158387.37516","144537.838935","157630.337373","Mapping"
"Mixed","Both","done","46","m160done.wav","None","736.052037682","175","153038.059221","145304.603002","146071.128386","146837.809904","147604.565004","148371.079568","149137.679772","149904.653149","153804.805046","154571.461521","155338.203636","156104.829502","156871.352722","157621.153692","158387.37516","159154.362449","158396.409201","Mapping"
"Mixed","Both","done","46","m150park.wav","space","378.085123375","175","153038.059221","159920.830946","146071.128386","146837.809904","147604.565004","148371.079568","149137.679772","149904.653149","153804.805046","154571.461521","155338.203636","156104.829502","156871.352722","157621.153692","158387.37516","159154.362449","159163.362172","Mapping"
"Mixed","Both","done","46","m160cling.wav","None","733.997272328","175","153038.059221","159920.830946","160687.445991","146837.809904","147604.565004","148371.079568","149137.679772","149904.653149","153804.805046","154571.461521","155338.203636","156104.829502","156871.352722","157621.153692","158387.37516","159154.362449","159930.414697","Mapping"
"Mixed","Both","done","46","m150done.wav","None","734.552238602","175","153038.059221","159920.830946","160687.445991","161453.852654","147604.565004","148371.079568","149137.679772","149904.653149","153804.805046","154571.461521","155338.203636","156104.829502","156871.352722","157621.153692","158387.37516","159154.362449","160696.374604","Mapping"
"Mixed","Both","done","46","m150priest.wav","space","438.730065245","175","153038.059221","159920.830946","160687.445991","161453.852654","162220.753993","148371.079568","149137.679772","149904.653149","153804.805046","154571.461521","155338.203636","156104.829502","156871.352722","157621.153692","158387.37516","159154.362449","161462.685423","Mapping"
"Mixed","Both","done","46","m160cave.wav","None","735.000230372","175","153038.059221","159920.830946","160687.445991","161453.852654","162220.753993","162987.429327","149137.679772","149904.653149","153804.805046","154571.461521","155338.203636","156104.829502","156871.352722","157621.153692","158387.37516","159154.362449","162229.845849","Mapping"
"Mixed","Both","done","46","m150done.wav","None","734.52997813","175","153038.059221","159920.830946","160687.445991","161453.852654","162220.753993","162987.429327","163754.287073","149904.653149","153804.805046","154571.461521","155338.203636","156104.829502","156871.352722","157621.153692","158387.37516","159154.362449","162996.413282","Mapping"
"Mixed","Both","done","46","m160jolt.wav","space","417.772450484","175","153038.059221","159920.830946","160687.445991","161453.852654","162220.753993","162987.429327","163754.287073","164520.842138","153804.805046","154571.461521","155338.203636","156104.829502","156871.352722","157621.153692","158387.37516","159154.362449","163763.585457","Mapping"
"Mixed","Both","cave","13","m150reek.wav","None","732.482942287","175","167654.589228","159920.830946","160687.445991","161453.852654","162220.753993","162987.429327","163754.287073","164520.842138","153804.805046","154571.461521","155338.203636","156104.829502","156871.352722","157621.153692","158387.37516","159154.362449","164530.255844","Mapping"
"Mixed","Both","cave","13","m160dime.wav","None","722.236014903","175","167654.589228","159920.830946","160687.445991","161453.852654","162220.753993","162987.429327","163754.287073","164520.842138","168421.099154","154571.461521","155338.203636","156104.829502","156871.352722","157621.153692","158387.37516","159154.362449","167664.613551","Mapping"
"Mixed","Both","cave","13","m150dime.wav","None","722.638558596","175","167654.589228","159920.830946","160687.445991","161453.852654","162220.753993","162987.429327","163754.287073","164520.842138","168421.099154","169187.816535","155338.203636","156104.829502","156871.352722","157621.153692","158387.37516","159154.362449","168430.43402","Mapping"
"Mixed","Both","cave","13","m160cave.wav","None","721.949101891","175","167654.589228","159920.830946","160687.445991","161453.852654","162220.753993","162987.429327","163754.287073","164520.842138","168421.099154","169187.816535","169954.492178","156104.829502","156871.352722","157621.153692","158387.37516","159154.362449","169197.340307","Mapping"
"Mixed","Both","cave","13","m160depth.wav","space","497.204919346","175","167654.589228","159920.830946","160687.445991","161453.852654","162220.753993","162987.429327","163754.287073","164520.842138","168421.099154","169187.816535","169954.492178","170721.019109","156871.352722","157621.153692","158387.37516","159154.362449","169964.030481","Mapping"
"Mixed","Both","cave","13","m150knife.wav","None","720.774553251","175","167654.589228","159920.830946","160687.445991","161453.852654","162220.753993","162987.429327","163754.287073","164520.842138","168421.099154","169187.816535","169954.492178","170721.019109","171487.692897","157621.153692","158387.37516","159154.362449","170730.411482","Mapping"
"Mixed","Both","cave","13","m160cave.wav","None","720.077676699","175","167654.589228","159920.830946","160687.445991","161453.852654","162220.753993","162987.429327","163754.287073","164520.842138","168421.099154","169187.816535","169954.492178","170721.019109","171487.692897","172254.504576","158387.37516","159154.362449","171497.153288","Mapping"
"Mixed","Both","cave","13","m150priest.wav","space","509.111179505","175","167654.589228","159920.830946","160687.445991","161453.852654","162220.753993","162987.429327","163754.287073","164520.842138","168421.099154","169187.816535","169954.492178","170721.019109","171487.692897","172254.504576","173003.865593","159154.362449","172264.087399","Mapping"
"Mixed","Both","cave","13","m160depth.wav","None","736.140769906","175","167654.589228","159920.830946","160687.445991","161453.852654","162220.753993","162987.429327","163754.287073","164520.842138","168421.099154","169187.816535","169954.492178","170721.019109","171487.692897","172254.504576","173003.865593","173770.531033","173012.950647","Mapping"
"Mixed","Both","cave","13","m150cling.wav","None","735.544065945","175","167654.589228","174536.99953","160687.445991","161453.852654","162220.753993","162987.429327","163754.287073","164520.842138","168421.099154","169187.816535","169954.492178","170721.019109","171487.692897","172254.504576","173003.865593","173770.531033","173779.588571","Mapping"
"Mixed","Both","cave","13","m150cave.wav","None","740.907602943","175","167654.589228","174536.99953","175304.051127","161453.852654","162220.753993","162987.429327","163754.287073","164520.842138","168421.099154","169187.816535","169954.492178","170721.019109","171487.692897","172254.504576","173003.865593","173770.531033","174540.234409","Mapping"
"Mixed","Both","cave","13","m160romp.wav","space","524.032496382","175","167654.589228","174536.99953","175304.051127","176070.611758","162220.753993","162987.429327","163754.287073","164520.842138","168421.099154","169187.816535","169954.492178","170721.019109","171487.692897","172254.504576","173003.865593","173770.531033","175313.103409","Mapping"
"Mixed","Both","cave","13","m150cave.wav","None","732.874355745","175","167654.589228","174536.99953","175304.051127","176070.611758","176837.343052","162987.429327","163754.287073","164520.842138","168421.099154","169187.816535","169954.492178","170721.019109","171487.692897","172254.504576","173003.865593","173770.531033","176080.241266","Mapping"
"Mixed","Both","cave","13","m160jolt.wav","space","614.660436288","175","167654.589228","174536.99953","175304.051127","176070.611758","176837.343052","177604.007256","163754.287073","164520.842138","168421.099154","169187.816535","169954.492178","170721.019109","171487.692897","172254.504576","173003.865593","173770.531033","176846.463352","Mapping"
"Mixed","Both","cave","13","m160cad.wav","None","731.940033846","175","167654.589228","174536.99953","175304.051127","176070.611758","176837.343052","177604.007256","178370.528312","164520.842138","168421.099154","169187.816535","169954.492178","170721.019109","171487.692897","172254.504576","173003.865593","173770.531033","177613.023674","Mapping"
"Mixed","Both","cave","13","m150romp.wav","None","731.590359006","175","167654.589228","174536.99953","175304.051127","176070.611758","176837.343052","177604.007256","178370.528312","179137.207047","168421.099154","169187.816535","169954.492178","170721.019109","171487.692897","172254.504576","173003.865593","173770.531033","178379.592652","Mapping"
"Mixed","Both","done","45","m160tile.wav","None","731.471945532","175","182270.857983","174536.99953","175304.051127","176070.611758","176837.343052","177604.007256","178370.528312","179137.207047","168421.099154","169187.816535","169954.492178","170721.019109","171487.692897","172254.504576","173003.865593","173770.531033","179146.182963","Mapping"
"Mixed","Both","done","45","m160bluff.wav","None","721.984966192","175","182270.857983","174536.99953","175304.051127","176070.611758","176837.343052","177604.007256","178370.528312","179137.207047","183037.370074","169187.816535","169954.492178","170721.019109","171487.692897","172254.504576","173003.865593","173770.531033","182280.612707","Mapping"
"Mixed","Both","done","45","m160done.wav","None","721.855422482","175","182270.857983","174536.99953","175304.051127","176070.611758","176837.343052","177604.007256","178370.528312","179137.207047","183037.370074","183804.352417","169954.492178","170721.019109","171487.692897","172254.504576","173003.865593","173770.531033","183046.946405","Mapping"
"Mixed","Both","done","45","m150lash.wav","space","438.969056122","175","182270.857983","174536.99953","175304.051127","176070.611758","176837.343052","177604.007256","178370.528312","179137.207047","183037.370074","183804.352417","184570.810093","170721.019109","171487.692897","172254.504576","173003.865593","173770.531033","183814.023045","Mapping"
"Mixed","Both","done","45","m160cling.wav","None","720.017387532","175","182270.857983","174536.99953","175304.051127","176070.611758","176837.343052","177604.007256","178370.528312","179137.207047","183037.370074","183804.352417","184570.810093","185337.37567","171487.692897","172254.504576","173003.865593","173770.531033","184580.42878","Mapping"
"Mixed","Both","done","45","m160knife.wav","None","719.735731371","175","182270.857983","174536.99953","175304.051127","176070.611758","176837.343052","177604.007256","178370.528312","179137.207047","183037.370074","183804.352417","184570.810093","185337.37567","186104.170654","172254.504576","173003.865593","173770.531033","185347.087418","Mapping"
"Mixed","Both","done","45","m150done.wav","None","719.440470915","175","182270.857983","174536.99953","175304.051127","176070.611758","176837.343052","177604.007256","178370.528312","179137.207047","183037.370074","183804.352417","184570.810093","185337.37567","186104.170654","186870.892982","173003.865593","173770.531033","186113.702154","Mapping"
"Mixed","Both","done","45","m150cave.wav","space","396.669833921","175","182270.857983","174536.99953","175304.051127","176070.611758","176837.343052","177604.007256","178370.528312","179137.207047","183037.370074","183804.352417","184570.810093","185337.37567","186104.170654","186870.892982","187620.276568","173770.531033","186880.269277","Mapping"
"Mixed","Both","done","45","m150cave.wav","None","735.15667161","175","182270.857983","174536.99953","175304.051127","176070.611758","176837.343052","177604.007256","178370.528312","179137.207047","183037.370074","183804.352417","184570.810093","185337.37567","186104.170654","186870.892982","187620.276568","188386.880483","187629.810542","Mapping"
"Mixed","Both","done","45","m160cling.wav","None","735.260244925","175","182270.857983","189153.681341","175304.051127","176070.611758","176837.343052","177604.007256","178370.528312","179137.207047","183037.370074","183804.352417","184570.810093","185337.37567","186104.170654","186870.892982","187620.276568","188386.880483","188395.857945","Mapping"
"Mixed","Both","done","45","m160done.wav","None","734.515446704","175","182270.857983","189153.681341","189920.323593","176070.611758","176837.343052","177604.007256","178370.528312","179137.207047","183037.370074","183804.352417","184570.810093","185337.37567","186104.170654","186870.892982","187620.276568","188386.880483","189162.797313","Mapping"
"Mixed","Both","done","45","m150gnash.wav","space","411.115332972","175","182270.857983","189153.681341","189920.323593","190686.959353","176837.343052","177604.007256","178370.528312","179137.207047","183037.370074","183804.352417","184570.810093","185337.37567","186104.170654","186870.892982","187620.276568","188386.880483","189929.779964","Mapping"
"Mixed","Both","done","45","m150park.wav","None","732.954122126","175","182270.857983","189153.681341","189920.323593","190686.959353","191453.760211","177604.007256","178370.528312","179137.207047","183037.370074","183804.352417","184570.810093","185337.37567","186104.170654","186870.892982","187620.276568","188386.880483","190696.599682","Mapping"
"Mixed","Both","done","45","m150gnash.wav","None","732.899089344","175","182270.857983","189153.681341","189920.323593","190686.959353","191453.760211","192220.292707","178370.528312","179137.207047","183037.370074","183804.352417","184570.810093","185337.37567","186104.170654","186870.892982","187620.276568","188386.880483","191462.875564","Mapping"
"Mixed","Both","done","45","m150done.wav","None","732.367930003","175","182270.857983","189153.681341","189920.323593","190686.959353","191453.760211","192220.292707","192987.057701","179137.207047","183037.370074","183804.352417","184570.810093","185337.37567","186104.170654","186870.892982","187620.276568","188386.880483","192229.75959","Mapping"
"Mixed","Both","done","45","m160reek.wav","space","448.663490359","175","182270.857983","189153.681341","189920.323593","190686.959353","191453.760211","192220.292707","192987.057701","193753.494353","183037.370074","183804.352417","184570.810093","185337.37567","186104.170654","186870.892982","187620.276568","188386.880483","192996.138118","Mapping"
"Mixed","Both","cave","21","m150greet.wav","None","731.345493812","175","196887.140961","189153.681341","189920.323593","190686.959353","191453.760211","192220.292707","192987.057701","193753.494353","183037.370074","183804.352417","184570.810093","185337.37567","186104.170654","186870.892982","187620.276568","188386.880483","193762.716062","Mapping"
"Mixed","Both","cave","21","m150cave.wav","None","722.433576826","175","196887.140961","189153.681341","189920.323593","190686.959353","191453.760211","192220.292707","192987.057701","193753.494353","197654.025296","183804.352417","184570.810093","185337.37567","186104.170654","186870.892982","187620.276568","188386.880483","196896.808498","Mapping"
"Mixed","Both","cave","21","m150jolt.wav","space","524.898181669","175","196887.140961","189153.681341","189920.323593","190686.959353","191453.760211","192220.292707","192987.057701","193753.494353","197654.025296","198420.441852","184570.810093","185337.37567","186104.170654","186870.892982","187620.276568","188386.880483","197663.833506","Mapping"
"Mixed","Both","cave","21","m150jaw.wav","None","721.142778173","175","196887.140961","189153.681341","189920.323593","190686.959353","191453.760211","192220.292707","192987.057701","193753.494353","197654.025296","198420.441852","199187.112548","185337.37567","186104.170654","186870.892982","187620.276568","188386.880483","198429.726942","Mapping"
"Mixed","Both","cave","21","m160knife.wav","None","720.336763654","175","196887.140961","189153.681341","189920.323593","190686.959353","191453.760211","192220.292707","192987.057701","193753.494353","197654.025296","198420.441852","199187.112548","199953.936903","186104.170654","186870.892982","187620.276568","188386.880483","199196.692898","Mapping"
"Mixed","Both","cave","21","m160knife.wav","None","719.650090206","175","196887.140961","189153.681341","189920.323593","190686.959353","191453.760211","192220.292707","192987.057701","193753.494353","197654.025296","198420.441852","199187.112548","199953.936903","200720.398289","186870.892982","187620.276568","188386.880483","199963.549716","Mapping"
"Mixed","Both","cave","21","m150jolt.wav","None","719.647925813","175","196887.140961","189153.681341","189920.323593","190686.959353","191453.760211","192220.292707","192987.057701","193753.494353","197654.025296","198420.441852","199187.112548","199953.936903","200720.398289","201487.207804","187620.276568","188386.880483","200730.084995","Mapping"
"Mixed","Both","cave","21","m150cave.wav","None","719.132534228","175","196887.140961","189153.681341","189920.323593","190686.959353","191453.760211","192220.292707","192987.057701","193753.494353","197654.025296","198420.441852","199187.112548","199953.936903","200720.398289","201487.207804","202237.178201","188386.880483","201496.606051","Mapping"
"Mixed","Both","cave","21","m160done.wav","space","582.03555271","175","196887.140961","189153.681341","189920.323593","190686.959353","191453.760211","192220.292707","192987.057701","193753.494353","197654.025296","198420.441852","199187.112548","199953.936903","200720.398289","201487.207804","202237.178201","203003.275072","202246.610457","Mapping"
"Mixed","Both","cave","21","m160greet.wav","None","735.54097442","175","196887.140961","203770.057998","189920.323593","190686.959353","191453.760211","192220.292707","192987.057701","193753.494353","197654.025296","198420.441852","199187.112548","199953.936903","200720.398289","201487.207804","202237.178201","203003.275072","203012.447004","Mapping"
"Mixed","Both","cave","21","m160cave.wav","None","734.95972855","175","196887.140961","203770.057998","204536.656966","190686.959353","191453.760211","192220.292707","192987.057701","193753.494353","197654.025296","198420.441852","199187.112548","199953.936903","200720.398289","201487.207804","202237.178201","203003.275072","203779.281562","Mapping"
"Mixed","Both","cave","21","m160priest.wav","space","538.46439207","175","196887.140961","203770.057998","204536.656966","205303.334464","191453.760211","192220.292707","192987.057701","193753.494353","197654.025296","198420.441852","199187.112548","199953.936903","200720.398289","201487.207804","202237.178201","203003.275072","204546.185993","Mapping"
"Mixed","Both","cave","21","m150lash.wav","None","739.384306129","175","196887.140961","203770.057998","204536.656966","205303.334464","206070.041333","192220.292707","192987.057701","193753.494353","197654.025296","198420.441852","199187.112548","199953.936903","200720.398289","201487.207804","202237.178201","203003.275072","205306.631487","Mapping"
"Mixed","Both","cave","21","m160gnash.wav","None","733.145191334","175","196887.140961","203770.057998","204536.656966","205303.334464","206070.041333","206836.691006","192987.057701","193753.494353","197654.025296","198420.441852","199187.112548","199953.936903","200720.398289","201487.207804","202237.178201","203003.275072","206079.1032","Mapping"
"Mixed","Both","cave","21","m160cave.wav","None","732.623306569","175","196887.140961","203770.057998","204536.656966","205303.334464","206070.041333","206836.691006","207603.502994","193753.494353","197654.025296","198420.441852","199187.112548","199953.936903","200720.398289","201487.207804","202237.178201","203003.275072","206846.340301","Mapping"
"Mixed","Both","cave","21","m150cling.wav","None","732.675866224","175","196887.140961","203770.057998","204536.656966","205303.334464","206070.041333","206836.691006","207603.502994","208370.001172","197654.025296","198420.441852","199187.112548","199953.936903","200720.398289","201487.207804","202237.178201","203003.275072","207612.574445","Mapping"
"Mixed","Both","tile","29","m150priest.wav","space","1.42034143209","175","211503.850288","203770.057998","204536.656966","205303.334464","206070.041333","206836.691006","207603.502994","208370.001172","197654.025296","198420.441852","199187.112548","199953.936903","200720.398289","201487.207804","202237.178201","203003.275072","208379.155172","Mapping"
"Mixed","Both","tile","29","m160cad.wav","None","722.800256219","175","211503.850288","203770.057998","204536.656966","205303.334464","206070.041333","206836.691006","207603.502994","208370.001172","212270.27952","198420.441852","199187.112548","199953.936903","200720.398289","201487.207804","202237.178201","203003.275072","211513.318099","Mapping"
"Mixed","Both","tile","29","m150priest.wav","None","722.831482068","175","211503.850288","203770.057998","204536.656966","205303.334464","206070.041333","206836.691006","207603.502994","208370.001172","212270.27952","213037.086253","199187.112548","199953.936903","200720.398289","201487.207804","202237.178201","203003.275072","212280.096697","Mapping"
"Mixed","Both","tile","29","m160jolt.wav","None","723.106337246","175","211503.850288","203770.057998","204536.656966","205303.334464","206070.041333","206836.691006","207603.502994","208370.001172","212270.27952","213037.086253","213803.843208","199953.936903","200720.398289","201487.207804","202237.178201","203003.275072","213046.625483","Mapping"
"Mixed","Both","tile","29","m160gnash.wav","None","722.489227541","175","211503.850288","203770.057998","204536.656966","205303.334464","206070.041333","206836.691006","207603.502994","208370.001172","212270.27952","213037.086253","213803.843208","214570.219881","200720.398289","201487.207804","202237.178201","203003.275072","213813.353376","Mapping"
"Mixed","Both","tile","29","m150tile.wav","None","722.695446108","175","211503.850288","203770.057998","204536.656966","205303.334464","206070.041333","206836.691006","207603.502994","208370.001172","212270.27952","213037.086253","213803.843208","214570.219881","215336.937262","201487.207804","202237.178201","203003.275072","214579.721082","Mapping"
"Mixed","Both","tile","29","m160depth.wav","space","465.152315795","175","211503.850288","203770.057998","204536.656966","205303.334464","206070.041333","206836.691006","207603.502994","208370.001172","212270.27952","213037.086253","213803.843208","214570.219881","215336.937262","216103.654025","202237.178201","203003.275072","215355.263813","Mapping"
"Mixed","Both","tile","29","m160tile.wav","None","720.729723107","175","211503.850288","203770.057998","204536.656966","205303.334464","206070.041333","206836.691006","207603.502994","208370.001172","212270.27952","213037.086253","213803.843208","214570.219881","215336.937262","216103.654025","216870.2431","203003.275072","216113.725342","Mapping"
"Mixed","Both","tile","29","m150priest.wav","space","484.413187951","175","211503.850288","203770.057998","204536.656966","205303.334464","206070.041333","206836.691006","207603.502994","208370.001172","212270.27952","213037.086253","213803.843208","214570.219881","215336.937262","216103.654025","216870.2431","217636.810223","216880.024412","Mapping"
"Mixed","Both","tile","29","m160bluff.wav","None","719.571250957","175","211503.850288","218403.767214","204536.656966","205303.334464","206070.041333","206836.691006","207603.502994","208370.001172","212270.27952","213037.086253","213803.843208","214570.219881","215336.937262","216103.654025","216870.2431","217636.810223","217646.888342","Mapping"
"Mixed","Both","tile","29","m150cling.wav","None","719.527966809","175","211503.850288","218403.767214","219170.245295","205303.334464","206070.041333","206836.691006","207603.502994","208370.001172","212270.27952","213037.086253","213803.843208","214570.219881","215336.937262","216103.654025","216870.2431","217636.810223","218413.365495","Mapping"
"Mixed","Both","tile","29","m160tile.wav","None","719.045965467","175","211503.850288","218403.767214","219170.245295","219936.777481","206070.041333","206836.691006","207603.502994","208370.001172","212270.27952","213037.086253","213803.843208","214570.219881","215336.937262","216103.654025","216870.2431","217636.810223","219180.347529","Mapping"
"Mixed","Both","tile","29","m150cad.wav","space","458.0400954","175","211503.850288","218403.767214","219170.245295","219936.777481","220686.868765","206836.691006","207603.502994","208370.001172","212270.27952","213037.086253","213803.843208","214570.219881","215336.937262","216103.654025","216870.2431","217636.810223","219946.311456","Mapping"
"Mixed","Both","tile","29","m150tile.wav","None","734.399816021","175","211503.850288","218403.767214","219170.245295","219936.777481","220686.868765","221452.857425","207603.502994","208370.001172","212270.27952","213037.086253","213803.843208","214570.219881","215336.937262","216103.654025","216870.2431","217636.810223","220697.316655","Mapping"
"Mixed","Both","tile","29","m160done.wav","space","429.95696608","175","211503.850288","218403.767214","219170.245295","219936.777481","220686.868765","221452.857425","222219.689201","208370.001172","212270.27952","213037.086253","213803.843208","214570.219881","215336.937262","216103.654025","216870.2431","217636.810223","221462.388617","Mapping"
"Mixed","Both","tile","29","m150park.wav","None","734.69383968","175","211503.850288","218403.767214","219170.245295","219936.777481","220686.868765","221452.857425","222219.689201","222986.405964","212270.27952","213037.086253","213803.843208","214570.219881","215336.937262","216103.654025","216870.2431","217636.810223","222229.031178","Mapping"
"Mixed","Both","done","39","m150gnash.wav","None","734.273363836","175","226119.97837","218403.767214","219170.245295","219936.777481","220686.868765","221452.857425","222219.689201","222986.405964","212270.27952","213037.086253","213803.843208","214570.219881","215336.937262","216103.654025","216870.2431","217636.810223","222995.731864","Mapping"
"Mixed","Both","done","39","m150ball.wav","None","721.82976082","175","226119.97837","218403.767214","219170.245295","219936.777481","220686.868765","221452.857425","222219.689201","222986.405964","226886.651849","213037.086253","213803.843208","214570.219881","215336.937262","216103.654025","216870.2431","217636.810223","226129.960955","Mapping"
"Mixed","Both","done","39","m150knife.wav","None","721.966724843","175","226119.97837","218403.767214","219170.245295","219936.777481","220686.868765","221452.857425","222219.689201","222986.405964","226886.651849","227653.673148","213803.843208","214570.219881","215336.937262","216103.654025","216870.2431","217636.810223","226896.388022","Mapping"
"Mixed","Both","done","39","m150done.wav","None","721.661261749","175","226119.97837","218403.767214","219170.245295","219936.777481","220686.868765","221452.857425","222219.689201","222986.405964","226886.651849","227653.673148","228420.31169","214570.219881","215336.937262","216103.654025","216870.2431","217636.810223","227663.055936","Mapping"
"Mixed","Both","done","39","m160bluff.wav","space","381.972048897","175","226119.97837","218403.767214","219170.245295","219936.777481","220686.868765","221452.857425","222219.689201","222986.405964","226886.651849","227653.673148","228420.31169","229186.639204","215336.937262","216103.654025","216870.2431","217636.810223","228430.229657","Mapping"
"Mixed","Both","done","39","m150dime.wav","None","720.015224069","175","226119.97837","218403.767214","219170.245295","219936.777481","220686.868765","221452.857425","222219.689201","222986.405964","226886.651849","227653.673148","228420.31169","229186.639204","229953.42955","216103.654025","216870.2431","217636.810223","229196.484515","Mapping"
"Mixed","Both","done","39","m160done.wav","space","400.980326347","175","226119.97837","218403.767214","219170.245295","219936.777481","220686.868765","221452.857425","222219.689201","222986.405964","226886.651849","227653.673148","228420.31169","229186.639204","229953.42955","230719.66493","216870.2431","217636.810223","229963.150883","Mapping"
"Mixed","Both","done","39","m160dime.wav","space","643.484653905","175","226119.97837","218403.767214","219170.245295","219936.777481","220686.868765","221452.857425","222219.689201","222986.405964","226886.651849","227653.673148","228420.31169","229186.639204","229953.42955","230719.66493","231469.466209","217636.810223","230728.694024","Mapping"
"Mixed","Both","done","39","m150romp.wav","space","724.965705071","175","226119.97837","218403.767214","219170.245295","219936.777481","220686.868765","221452.857425","222219.689201","222986.405964","226886.651849","227653.673148","228420.31169","229186.639204","229953.42955","230719.66493","231469.466209","232236.107843","231479.181977","Mapping"
"Mixed","Both","done","39","m150priest.wav","None","734.691366088","175","226119.97837","233003.028661","219170.245295","219936.777481","220686.868765","221452.857425","222219.689201","222986.405964","226886.651849","227653.673148","228420.31169","229186.639204","229953.42955","230719.66493","231469.466209","232236.107843","232245.318422","Mapping"
"Mixed","Both","done","39","m160done.wav","None","733.709741384","175","226119.97837","233003.028661","233769.334842","219936.777481","220686.868765","221452.857425","222219.689201","222986.405964","226886.651849","227653.673148","228420.31169","229186.639204","229953.42955","230719.66493","231469.466209","232236.107843","233012.580567","Mapping"
"Mixed","Both","done","39","m160knife.wav","space","465.847337153","175","226119.97837","233003.028661","233769.334842","234536.160124","220686.868765","221452.857425","222219.689201","222986.405964","226886.651849","227653.673148","228420.31169","229186.639204","229953.42955","230719.66493","231469.466209","232236.107843","233778.241194","Mapping"
"Mixed","Both","done","39","m150done.wav","None","732.88703151","175","226119.97837","233003.028661","233769.334842","234536.160124","235302.96562","221452.857425","222219.689201","222986.405964","226886.651849","227653.673148","228420.31169","229186.639204","229953.42955","230719.66493","231469.466209","232236.107843","234545.833845","Mapping"
"Mixed","Both","done","39","m160romp.wav","space","411.423578393","175","226119.97837","233003.028661","233769.334842","234536.160124","235302.96562","236069.509556","222219.689201","222986.405964","226886.651849","227653.673148","228420.31169","229186.639204","229953.42955","230719.66493","231469.466209","232236.107843","235312.649543","Mapping"
"Mixed","Both","done","39","m160jaw.wav","None","731.979298871","175","226119.97837","233003.028661","233769.334842","234536.160124","235302.96562","236069.509556","236836.08379","222986.405964","226886.651849","227653.673148","228420.31169","229186.639204","229953.42955","230719.66493","231469.466209","232236.107843","236078.955106","Mapping"
"Mixed","Both","done","39","m160jolt.wav","None","732.068650424","175","226119.97837","233003.028661","233769.334842","234536.160124","235302.96562","236069.509556","236836.08379","237602.699453","226886.651849","227653.673148","228420.31169","229186.639204","229953.42955","230719.66493","231469.466209","232236.107843","236845.475235","Mapping"
"Mixed","Both","done","44","m150romp.wav","None","731.919937767","175","240736.379761","233003.028661","233769.334842","234536.160124","235302.96562","236069.509556","236836.08379","237602.699453","226886.651849","227653.673148","228420.31169","229186.639204","229953.42955","230719.66493","231469.466209","232236.107843","237612.085951","Mapping"
"Mixed","Both","done","44","m160done.wav","None","721.633127425","175","240736.379761","233003.028661","233769.334842","234536.160124","235302.96562","236069.509556","236836.08379","237602.699453","241502.780858","227653.673148","228420.31169","229186.639204","229953.42955","230719.66493","231469.466209","232236.107843","240746.889795","Mapping"
"Mixed","Both","done","44","m160dime.wav","space","459.835464135","175","240736.379761","233003.028661","233769.334842","234536.160124","235302.96562","236069.509556","236836.08379","237602.699453","241502.780858","242269.809268","228420.31169","229186.639204","229953.42955","230719.66493","231469.466209","232236.107843","241512.124381","Mapping"
"Mixed","Both","done","44","m160priest.wav","None","720.96160287","175","240736.379761","233003.028661","233769.334842","234536.160124","235302.96562","236069.509556","236836.08379","237602.699453","241502.780858","242269.809268","243036.329397","229186.639204","229953.42955","230719.66493","231469.466209","232236.107843","242279.875638","Mapping"
"Mixed","Both","done","44","m150jaw.wav","None","721.353015862","175","240736.379761","233003.028661","233769.334842","234536.160124","235302.96562","236069.509556","236836.08379","237602.699453","241502.780858","242269.809268","243036.329397","243803.111705","229953.42955","230719.66493","231469.466209","232236.107843","243046.086903","Mapping"
"Mixed","Both","done","44","m150park.wav","None","721.037350129","175","240736.379761","233003.028661","233769.334842","234536.160124","235302.96562","236069.509556","236836.08379","237602.699453","241502.780858","242269.809268","243036.329397","243803.111705","244569.806207","230719.66493","231469.466209","232236.107843","243812.836438","Mapping"
"Mixed","Both","done","44","m150done.wav","None","720.837624278","175","240736.379761","233003.028661","233769.334842","234536.160124","235302.96562","236069.509556","236836.08379","237602.699453","241502.780858","242269.809268","243036.329397","243803.111705","244569.806207","245336.503801","231469.466209","232236.107843","244579.55382","Mapping"
"Mixed","Both","done","44","m160ball.wav","space","377.568185795","175","240736.379761","233003.028661","233769.334842","234536.160124","235302.96562","236069.509556","236836.08379","237602.699453","241502.780858","242269.809268","243036.329397","243803.111705","244569.806207","245336.503801","246103.137706","232236.107843","245346.332727","Mapping"
"Mixed","Both","done","44","m160done.wav","None","719.915361144","175","240736.379761","233003.028661","233769.334842","234536.160124","235302.96562","236069.509556","236836.08379","237602.699453","241502.780858","242269.809268","243036.329397","243803.111705","244569.806207","245336.503801","246103.137706","246869.692772","246112.837706","Mapping"
"Mixed","Both","done","44","m150ball.wav","space","388.779424131","175","240736.379761","247619.446129","233769.334842","234536.160124","235302.96562","236069.509556","236836.08379","237602.699453","241502.780858","242269.809268","243036.329397","243803.111705","244569.806207","245336.503801","246103.137706","246869.692772","246879.054536","Mapping"
"Mixed","Both","done","44","m160ball.wav","None","735.997313634","175","240736.379761","247619.446129","248386.179587","234536.160124","235302.96562","236069.509556","236836.08379","237602.699453","241502.780858","242269.809268","243036.329397","243803.111705","244569.806207","245336.503801","246103.137706","246869.692772","247628.76059","Mapping"
"Mixed","Both","done","44","m160cave.wav","None","734.76773221","175","240736.379761","247619.446129","248386.179587","249152.674363","235302.96562","236069.509556","236836.08379","237602.699453","241502.780858","242269.809268","243036.329397","243803.111705","244569.806207","245336.503801","246103.137706","246869.692772","248396.437026","Mapping"
"Mixed","Both","done","44","m150done.wav","None","736.069042236","175","240736.379761","247619.446129","248386.179587","249152.674363","249919.197893","236069.509556","236836.08379","237602.699453","241502.780858","242269.809268","243036.329397","243803.111705","244569.806207","245336.503801","246103.137706","246869.692772","249161.842586","Mapping"
"Mixed","Both","done","44","m150cad.wav","space","371.256105602","175","240736.379761","247619.446129","248386.179587","249152.674363","249919.197893","250685.701327","236836.08379","237602.699453","241502.780858","242269.809268","243036.329397","243803.111705","244569.806207","245336.503801","246103.137706","246869.692772","249928.569552","Mapping"
"Mixed","Both","done","44","m150bluff.wav","None","735.258698929","175","240736.379761","247619.446129","248386.179587","249152.674363","249919.197893","250685.701327","251452.364294","237602.699453","241502.780858","242269.809268","243036.329397","243803.111705","244569.806207","245336.503801","246103.137706","246869.692772","250695.030628","Mapping"
"Mixed","Both","done","44","m160greet.wav","None","740.442296956","175","240736.379761","247619.446129","248386.179587","249152.674363","249919.197893","250685.701327","251452.364294","252219.106409","241502.780858","242269.809268","243036.329397","243803.111705","244569.806207","245336.503801","246103.137706","246869.692772","251456.582034","Mapping"
"Mixed","Both","done","40","m150ball.wav","None","735.361653846","175","255353.109185","247619.446129","248386.179587","249152.674363","249919.197893","250685.701327","251452.364294","252219.106409","241502.780858","242269.809268","243036.329397","243803.111705","244569.806207","245336.503801","246103.137706","246869.692772","252228.447459","Mapping"
"Mixed","Both","done","40","m150done.wav","None","720.984481741","175","255353.109185","247619.446129","248386.179587","249152.674363","249919.197893","250685.701327","251452.364294","252219.106409","256119.537489","242269.809268","243036.329397","243803.111705","244569.806207","245336.503801","246103.137706","246869.692772","255363.230279","Mapping"
"Mixed","Both","done","40","m160gnash.wav","space","465.876708273","175","255353.109185","247619.446129","248386.179587","249152.674363","249919.197893","250685.701327","251452.364294","252219.106409","256119.537489","256885.54099","243036.329397","243803.111705","244569.806207","245336.503801","246103.137706","246869.692772","256129.798329","Mapping"
"Mixed","Both","done","40","m150done.wav","None","725.393600762","175","255353.109185","247619.446129","248386.179587","249152.674363","249919.197893","250685.701327","251452.364294","252219.106409","256119.537489","256885.54099","257652.337519","243803.111705","244569.806207","245336.503801","246103.137706","246869.692772","256894.468057","Mapping"
"Mixed","Both","done","40","m150cave.wav","space","414.092052728","175","255353.109185","247619.446129","248386.179587","249152.674363","249919.197893","250685.701327","251452.364294","252219.106409","256119.537489","256885.54099","257652.337519","258419.09633","244569.806207","245336.503801","246103.137706","246869.692772","257661.597875","Mapping"
"Mixed","Both","done","40","m150cave.wav","None","723.187340889","175","255353.109185","247619.446129","248386.179587","249152.674363","249919.197893","250685.701327","251452.364294","252219.106409","256119.537489","256885.54099","257652.337519","258419.09633","259185.93367","245336.503801","246103.137706","246869.692772","258428.827247","Mapping"
"Mixed","Both","done","40","m160greet.wav","None","722.826226614","175","255353.109185","247619.446129","248386.179587","249152.674363","249919.197893","250685.701327","251452.364294","252219.106409","256119.537489","256885.54099","257652.337519","258419.09633","259185.93367","259952.90241","246103.137706","246869.692772","259195.9852","Mapping"
"Mixed","Both","done","40","m160done.wav","None","722.638558131","175","255353.109185","247619.446129","248386.179587","249152.674363","249919.197893","250685.701327","251452.364294","252219.106409","256119.537489","256885.54099","257652.337519","258419.09633","259185.93367","259952.90241","260719.418828","246869.692772","259962.828106","Mapping"
"Mixed","Both","done","40","m160romp.wav","space","450.474936515","175","255353.109185","247619.446129","248386.179587","249152.674363","249919.197893","250685.701327","251452.364294","252219.106409","256119.537489","256885.54099","257652.337519","258419.09633","259185.93367","259952.90241","260719.418828","261485.887635","260729.14449","Mapping"
"Mixed","Both","done","40","m150cling.wav","None","722.25982137","175","255353.109185","262252.822055","248386.179587","249152.674363","249919.197893","250685.701327","251452.364294","252219.106409","256119.537489","256885.54099","257652.337519","258419.09633","259185.93367","259952.90241","260719.418828","261485.887635","261495.579287","Mapping"
"Mixed","Both","done","40","m150priest.wav","None","721.840891521","175","255353.109185","262252.822055","263019.423497","249152.674363","249919.197893","250685.701327","251452.364294","252219.106409","256119.537489","256885.54099","257652.337519","258419.09633","259185.93367","259952.90241","260719.418828","261485.887635","262262.652217","Mapping"
"Mixed","Both","done","40","m160done.wav","None","721.907672938","175","255353.109185","262252.822055","263019.423497","263786.008552","249919.197893","250685.701327","251452.364294","252219.106409","256119.537489","256885.54099","257652.337519","258419.09633","259185.93367","259952.90241","260719.418828","261485.887635","263029.172037","Mapping"
"Mixed","Both","done","40","m160lash.wav","space","495.582997333","175","255353.109185","262252.822055","263019.423497","263786.008552","264552.863516","250685.701327","251452.364294","252219.106409","256119.537489","256885.54099","257652.337519","258419.09633","259185.93367","259952.90241","260719.418828","261485.887635","263795.944761","Mapping"
"Mixed","Both","done","40","m150cave.wav","None","720.773315988","175","255353.109185","262252.822055","263019.423497","263786.008552","264552.863516","265319.330776","251452.364294","252219.106409","256119.537489","256885.54099","257652.337519","258419.09633","259185.93367","259952.90241","260719.418828","261485.887635","264562.626896","Mapping"
"Mixed","Both","done","40","m160bluff.wav","None","720.963148866","175","255353.109185","262252.822055","263019.423497","263786.008552","264552.863516","265319.330776","266086.005182","252219.106409","256119.537489","256885.54099","257652.337519","258419.09633","259185.93367","259952.90241","260719.418828","261485.887635","265329.501647","Mapping"
"Mixed","Both","done","40","m160reek.wav","None","721.716912929","175","255353.109185","262252.822055","263019.423497","263786.008552","264552.863516","265319.330776","266086.005182","266852.823354","256119.537489","256885.54099","257652.337519","258419.09633","259185.93367","259952.90241","260719.418828","261485.887635","266095.501437","Mapping"
"Mixed","Both","cave","24","m150dime.wav","None","721.472975332","175","269985.893045","262252.822055","263019.423497","263786.008552","264552.863516","265319.330776","266086.005182","266852.823354","256119.537489","256885.54099","257652.337519","258419.09633","259185.93367","259952.90241","260719.418828","261485.887635","266862.482543","Mapping"
"Mixed","Both","cave","24","m150cave.wav","None","722.088230308","175","269985.893045","262252.822055","263019.423497","263786.008552","264552.863516","265319.330776","266086.005182","266852.823354","270752.521075","256885.54099","257652.337519","258419.09633","259185.93367","259952.90241","260719.418828","261485.887635","269995.934372","Mapping"
"Mixed","Both","cave","24","m150knife.wav","space","569.142412394","175","269985.893045","262252.822055","263019.423497","263786.008552","264552.863516","265319.330776","266086.005182","266852.823354","270752.521075","271519.48394","257652.337519","258419.09633","259185.93367","259952.90241","260719.418828","261485.887635","270762.308571","Mapping"
"Mixed","Both","cave","24","m160knife.wav","None","721.999187954","175","269985.893045","262252.822055","263019.423497","263786.008552","264552.863516","265319.330776","266086.005182","266852.823354","270752.521075","271519.48394","272285.666143","258419.09633","259185.93367","259952.90241","260719.418828","261485.887635","271528.815406","Mapping"
"Mixed","Both","cave","24","m150priest.wav","None","722.083901521","175","269985.893045","262252.822055","263019.423497","263786.008552","264552.863516","265319.330776","266086.005182","266852.823354","270752.521075","271519.48394","272285.666143","273052.741547","259185.93367","259952.90241","260719.418828","261485.887635","272295.321622","Mapping"
"Mixed","Both","cave","24","m150cad.wav","None","721.422580071","175","269985.893045","262252.822055","263019.423497","263786.008552","264552.863516","265319.330776","266086.005182","266852.823354","270752.521075","271519.48394","272285.666143","273052.741547","273819.262912","259952.90241","260719.418828","261485.887635","273062.346012","Mapping"
"Mixed","Both","cave","24","m160reek.wav","None","721.314060502","175","269985.893045","262252.822055","263019.423497","263786.008552","264552.863516","265319.330776","266086.005182","266852.823354","270752.521075","271519.48394","272285.666143","273052.741547","273819.262912","274585.665246","260719.418828","261485.887635","273829.268375","Mapping"
"Mixed","Both","cave","24","m160cling.wav","None","721.602209844","175","269985.893045","262252.822055","263019.423497","263786.008552","264552.863516","265319.330776","266086.005182","266852.823354","270752.521075","271519.48394","272285.666143","273052.741547","273819.262912","274585.665246","275352.622546","261485.887635","274595.9063","Mapping"
"Mixed","Both","cave","24","m150bluff.wav","None","721.551814582","175","269985.893045","262252.822055","263019.423497","263786.008552","264552.863516","265319.330776","266086.005182","266852.823354","270752.521075","271519.48394","272285.666143","273052.741547","273819.262912","274585.665246","275352.622546","276119.115777","275362.772393","Mapping"
"Mixed","Both","cave","24","m150cave.wav","None","722.403895576","175","269985.893045","276885.740716","263019.423497","263786.008552","264552.863516","265319.330776","266086.005182","266852.823354","270752.521075","271519.48394","272285.666143","273052.741547","273819.262912","274585.665246","275352.622546","276119.115777","276128.641712","Mapping"
"Mixed","Both","cave","24","m160gnash.wav","space","547.342609614","175","269985.893045","276885.740716","277652.552395","263786.008552","264552.863516","265319.330776","266086.005182","266852.823354","270752.521075","271519.48394","272285.666143","273052.741547","273819.262912","274585.665246","275352.622546","276119.115777","276895.973112","Mapping"
"Mixed","Both","cave","24","m160cave.wav","None","720.942433923","175","269985.893045","276885.740716","277652.552395","278419.075306","264552.863516","265319.330776","266086.005182","266852.823354","270752.521075","271519.48394","272285.666143","273052.741547","273819.262912","274585.665246","275352.622546","276119.115777","277662.257651","Mapping"
"Mixed","Both","cave","24","m150depth.wav","space","566.291217227","175","269985.893045","276885.740716","277652.552395","278419.075306","279185.712612","265319.330776","266086.005182","266852.823354","270752.521075","271519.48394","272285.666143","273052.741547","273819.262912","274585.665246","275352.622546","276119.115777","278428.983998","Mapping"
"Mixed","Both","cave","24","m160knife.wav","None","719.724601135","175","269985.893045","276885.740716","277652.552395","278419.075306","279185.712612","279952.540368","266086.005182","266852.823354","270752.521075","271519.48394","272285.666143","273052.741547","273819.262912","274585.665246","275352.622546","276119.115777","279195.823503","Mapping"
"Mixed","Both","cave","24","m160cave.wav","None","720.156206749","175","269985.893045","276885.740716","277652.552395","278419.075306","279185.712612","279952.540368","280719.028034","266852.823354","270752.521075","271519.48394","272285.666143","273052.741547","273819.262912","274585.665246","275352.622546","276119.115777","279962.274068","Mapping"
"Mixed","Both","cave","24","m160dime.wav","space","530.723004602","175","269985.893045","276885.740716","277652.552395","278419.075306","279185.712612","279952.540368","280719.028034","281485.84095","270752.521075","271519.48394","272285.666143","273052.741547","273819.262912","274585.665246","275352.622546","276119.115777","280728.532327","Mapping"
"Mixed","Both","tile","32","m160park.wav","None","719.551773276","175","284602.415941","276885.740716","277652.552395","278419.075306","279185.712612","279952.540368","280719.028034","281485.84095","270752.521075","271519.48394","272285.666143","273052.741547","273819.262912","274585.665246","275352.622546","276119.115777","281495.173961","Mapping"
"Mixed","Both","tile","32","m160cling.wav","None","722.656181082","175","284602.415941","276885.740716","277652.552395","278419.075306","279185.712612","279952.540368","280719.028034","281485.84095","285368.971934","271519.48394","272285.666143","273052.741547","273819.262912","274585.665246","275352.622546","276119.115777","284612.149641","Mapping"
"Mixed","Both","tile","32","m160done.wav","None","722.574559506","175","284602.415941","276885.740716","277652.552395","278419.075306","279185.712612","279952.540368","280719.028034","281485.84095","285368.971934","286135.689934","272285.666143","273052.741547","273819.262912","274585.665246","275352.622546","276119.115777","285379.096429","Mapping"
"Mixed","Both","tile","32","m150done.wav","None","722.660819069","175","284602.415941","276885.740716","277652.552395","278419.075306","279185.712612","279952.540368","280719.028034","281485.84095","285368.971934","286135.689934","286902.436377","273052.741547","273819.262912","274585.665246","275352.622546","276119.115777","286145.996531","Mapping"
"Mixed","Both","tile","32","m160jolt.wav","None","723.490330391","175","284602.415941","276885.740716","277652.552395","278419.075306","279185.712612","279952.540368","280719.028034","281485.84095","285368.971934","286135.689934","286902.436377","287668.630019","273819.262912","274585.665246","275352.622546","276119.115777","286912.109789","Mapping"
"Mixed","Both","tile","32","m150tile.wav","None","724.224307574","175","284602.415941","276885.740716","277652.552395","278419.075306","279185.712612","279952.540368","280719.028034","281485.84095","285368.971934","286135.689934","286902.436377","287668.630019","288435.165298","274585.665246","275352.622546","276119.115777","287678.503157","Mapping"
"Mixed","Both","tile","32","m150dime.wav","space","494.622705039","175","284602.415941","276885.740716","277652.552395","278419.075306","279185.712612","279952.540368","280719.028034","281485.84095","285368.971934","286135.689934","286902.436377","287668.630019","288435.165298","289201.622046","275352.622546","276119.115777","288444.487488","Mapping"
"Mixed","Both","tile","32","m160tile.wav","None","724.128154572","175","284602.415941","276885.740716","277652.552395","278419.075306","279185.712612","279952.540368","280719.028034","281485.84095","285368.971934","286135.689934","286902.436377","287668.630019","288435.165298","289201.622046","289968.55925","276119.115777","289211.595356","Mapping"
"Mixed","Both","tile","32","m150knife.wav","space","521.095351316","175","284602.415941","276885.740716","277652.552395","278419.075306","279185.712612","279952.540368","280719.028034","281485.84095","285368.971934","286135.689934","286902.436377","287668.630019","288435.165298","289201.622046","289968.55925","290735.473265","289977.960588","Mapping"
"Mixed","Both","tile","32","m150ball.wav","None","722.813859116","175","284602.415941","291502.318644","277652.552395","278419.075306","279185.712612","279952.540368","280719.028034","281485.84095","285368.971934","286135.689934","286902.436377","287668.630019","288435.165298","289201.622046","289968.55925","290735.473265","290745.586939","Mapping"
"Mixed","Both","tile","32","m160tile.wav","None","723.257213831","175","284602.415941","291502.318644","292268.88855","278419.075306","279185.712612","279952.540368","280719.028034","281485.84095","285368.971934","286135.689934","286902.436377","287668.630019","288435.165298","289201.622046","289968.55925","290735.473265","291512.057291","Mapping"
"Mixed","Both","tile","32","m160cad.wav","space","500.091978814","175","284602.415941","291502.318644","292268.88855","293035.479789","279185.712612","279952.540368","280719.028034","281485.84095","285368.971934","286135.689934","286902.436377","287668.630019","288435.165298","289201.622046","289968.55925","290735.473265","292278.923694","Mapping"
"Mixed","Both","tile","32","m150jaw.wav","None","722.930108663","175","284602.415941","291502.318644","292268.88855","293035.479789","293802.261787","279952.540368","280719.028034","281485.84095","285368.971934","286135.689934","286902.436377","287668.630019","288435.165298","289201.622046","289968.55925","290735.473265","293045.032004","Mapping"
"Mixed","Both","tile","32","m160cave.wav","None","721.861605998","175","284602.415941","291502.318644","292268.88855","293035.479789","293802.261787","294568.947015","280719.028034","281485.84095","285368.971934","286135.689934","286902.436377","287668.630019","288435.165298","289201.622046","289968.55925","290735.473265","293812.91435","Mapping"
"Mixed","Both","tile","32","m150tile.wav","None","723.012657836","175","284602.415941","291502.318644","292268.88855","293035.479789","293802.261787","294568.947015","295335.51352","281485.84095","285368.971934","286135.689934","286902.436377","287668.630019","288435.165298","289201.622046","289968.55925","290735.473265","294578.897445","Mapping"
"Mixed","Both","tile","32","m150jaw.wav","space","465.563206933","175","284602.415941","291502.318644","292268.88855","293035.479789","293802.261787","294568.947015","295335.51352","296102.054363","285368.971934","286135.689934","286902.436377","287668.630019","288435.165298","289201.622046","289968.55925","290735.473265","295345.433033","Mapping"
"Mixed","Both","cave","17","m160knife.wav","None","722.161194775","175","299235.310795","291502.318644","292268.88855","293035.479789","293802.261787","294568.947015","295335.51352","296102.054363","285368.971934","286135.689934","286902.436377","287668.630019","288435.165298","289201.622046","289968.55925","290735.473265","296112.374874","Mapping"
"Mixed","Both","cave","17","m150lash.wav","None","722.440378275","175","299235.310795","291502.318644","292268.88855","293035.479789","293802.261787","294568.947015","295335.51352","296102.054363","300002.233776","286135.689934","286902.436377","287668.630019","288435.165298","289201.622046","289968.55925","290735.473265","299245.09118","Mapping"
"Mixed","Both","cave","17","m160cave.wav","None","722.042163368","175","299235.310795","291502.318644","292268.88855","293035.479789","293802.261787","294568.947015","295335.51352","296102.054363","300002.233776","300768.72608","286902.436377","287668.630019","288435.165298","289201.622046","289968.55925","290735.473265","300012.364455","Mapping"
"Mixed","Both","cave","17","m150depth.wav","space","464.405971579","175","299235.310795","291502.318644","292268.88855","293035.479789","293802.261787","294568.947015","295335.51352","296102.054363","300002.233776","300768.72608","301535.303096","287668.630019","288435.165298","289201.622046","289968.55925","290735.473265","300778.492861","Mapping"
"Mixed","Both","cave","17","m150reek.wav","None","722.154393326","175","299235.310795","291502.318644","292268.88855","293035.479789","293802.261787","294568.947015","295335.51352","296102.054363","300002.233776","300768.72608","301535.303096","302302.146311","288435.165298","289201.622046","289968.55925","290735.473265","301544.78853","Mapping"
"Mixed","Both","cave","17","m150jaw.wav","None","721.812756732","175","299235.310795","291502.318644","292268.88855","293035.479789","293802.261787","294568.947015","295335.51352","296102.054363","300002.233776","300768.72608","301535.303096","302302.146311","303068.331914","289201.622046","289968.55925","290735.473265","302311.989149","Mapping"
"Mixed","Both","cave","17","m150cave.wav","None","723.165698349","175","299235.310795","291502.318644","292268.88855","293035.479789","293802.261787","294568.947015","295335.51352","296102.054363","300002.233776","300768.72608","301535.303096","302302.146311","303068.331914","303835.230472","289968.55925","290735.473265","303077.709447","Mapping"
"Mixed","Both","cave","17","m160tile.wav","space","613.873899914","175","299235.310795","291502.318644","292268.88855","293035.479789","293802.261787","294568.947015","295335.51352","296102.054363","300002.233776","300768.72608","301535.303096","302302.146311","303068.331914","303835.230472","304602.10213","290735.473265","303844.955824","Mapping"
"Mixed","Both","cave","17","m160cave.wav","None","721.096711699","175","299235.310795","291502.318644","292268.88855","293035.479789","293802.261787","294568.947015","295335.51352","296102.054363","300002.233776","300768.72608","301535.303096","302302.146311","303068.331914","303835.230472","304602.10213","305368.609583","304612.038339","Mapping"
"Mixed","Both","cave","17","m160cad.wav","space","720.025735442","175","299235.310795","306135.236686","292268.88855","293035.479789","293802.261787","294568.947015","295335.51352","296102.054363","300002.233776","300768.72608","301535.303096","302302.146311","303068.331914","303835.230472","304602.10213","305368.609583","305378.82683","Mapping"
"Mixed","Both","cave","17","m160lash.wav","None","721.053427551","175","299235.310795","306135.236686","306902.011574","293035.479789","293802.261787","294568.947015","295335.51352","296102.054363","300002.233776","300768.72608","301535.303096","302302.146311","303068.331914","303835.230472","304602.10213","305368.609583","306144.907624","Mapping"
"Mixed","Both","cave","17","m150cling.wav","None","721.078779083","175","299235.310795","306135.236686","306902.011574","307668.717516","293802.261787","294568.947015","295335.51352","296102.054363","300002.233776","300768.72608","301535.303096","302302.146311","303068.331914","303835.230472","304602.10213","305368.609583","306911.757641","Mapping"
"Mixed","Both","cave","17","m150jaw.wav","None","721.60344664","175","299235.310795","306135.236686","306902.011574","307668.717516","308435.113357","294568.947015","295335.51352","296102.054363","300002.233776","300768.72608","301535.303096","302302.146311","303068.331914","303835.230472","304602.10213","305368.609583","307678.223046","Mapping"
"Mixed","Both","cave","17","m160cad.wav","None","721.536664758","175","299235.310795","306135.236686","306902.011574","307668.717516","308435.113357","309201.939567","295335.51352","296102.054363","300002.233776","300768.72608","301535.303096","302302.146311","303068.331914","303835.230472","304602.10213","305368.609583","308444.94321","Mapping"
"Mixed","Both","cave","17","m150cave.wav","None","721.586132888","175","299235.310795","306135.236686","306902.011574","307668.717516","308435.113357","309201.939567","309968.474227","296102.054363","300002.233776","300768.72608","301535.303096","302302.146311","303068.331914","303835.230472","304602.10213","305368.609583","309211.88165","Mapping"
"Mixed","Both","cave","17","m160cad.wav","space","536.097362638","175","299235.310795","306135.236686","306902.011574","307668.717516","308435.113357","309201.939567","309968.474227","310735.216652","300002.233776","300768.72608","301535.303096","302302.146311","303068.331914","303835.230472","304602.10213","305368.609583","309978.603978","Mapping"
"Mixed","Both","ball","8","m150jolt.wav","None","725.894152187","175","313868.457315","306135.236686","306902.011574","307668.717516","308435.113357","309201.939567","309968.474227","310735.216652","300002.233776","300768.72608","301535.303096","302302.146311","303068.331914","303835.230472","304602.10213","305368.609583","310740.226185","Mapping"
"Mixed","Both","ball","8","m150ball.wav","None","721.95930453","175","313868.457315","306135.236686","306902.011574","307668.717516","308435.113357","309201.939567","309968.474227","310735.216652","314635.139451","300768.72608","301535.303096","302302.146311","303068.331914","303835.230472","304602.10213","305368.609583","313878.280366","Mapping"
"Mixed","Both","ball","8","m160dime.wav","space","389.46393365","175","313868.457315","306135.236686","306902.011574","307668.717516","308435.113357","309201.939567","309968.474227","310735.216652","314635.139451","315402.240825","301535.303096","302302.146311","303068.331914","303835.230472","304602.10213","305368.609583","314645.182324","Mapping"
"Mixed","Both","ball","8","m150greet.wav","None","720.288533252","175","313868.457315","306135.236686","306902.011574","307668.717516","308435.113357","309201.939567","309968.474227","310735.216652","314635.139451","315402.240825","316168.565866","302302.146311","303068.331914","303835.230472","304602.10213","305368.609583","315412.364083","Mapping"
"Mixed","Both","ball","8","m160greet.wav","None","721.266756766","175","313868.457315","306135.236686","306902.011574","307668.717516","308435.113357","309201.939567","309968.474227","310735.216652","314635.139451","315402.240825","316168.565866","316934.849787","303068.331914","303835.230472","304602.10213","305368.609583","316178.241751","Mapping"
"Mixed","Both","ball","8","m150park.wav","None","722.088539042","175","313868.457315","306135.236686","306902.011574","307668.717516","308435.113357","309201.939567","309968.474227","310735.216652","314635.139451","315402.240825","316168.565866","316934.849787","317701.70475","303835.230472","304602.10213","305368.609583","316944.490425","Mapping"
"Mixed","Both","ball","8","m150ball.wav","None","722.168923821","175","313868.457315","306135.236686","306902.011574","307668.717516","308435.113357","309201.939567","309968.474227","310735.216652","314635.139451","315402.240825","316168.565866","316934.849787","317701.70475","318468.0301","304602.10213","305368.609583","317711.400731","Mapping"
"Mixed","Both","ball","8","m150priest.wav","space","389.001410455","175","313868.457315","306135.236686","306902.011574","307668.717516","308435.113357","309201.939567","309968.474227","310735.216652","314635.139451","315402.240825","316168.565866","316934.849787","317701.70475","318468.0301","319235.001313","305368.609583","318477.623126","Mapping"
"Mixed","Both","ball","8","m160jaw.wav","None","721.413613763","175","313868.457315","306135.236686","306902.011574","307668.717516","308435.113357","309201.939567","309968.474227","310735.216652","314635.139451","315402.240825","316168.565866","316934.849787","317701.70475","318468.0301","319235.001313","320001.584822","319244.892072","Mapping"
"Mixed","Both","ball","8","m150jaw.wav","None","722.488300409","175","313868.457315","320767.764551","306902.011574","307668.717516","308435.113357","309201.939567","309968.474227","310735.216652","314635.139451","315402.240825","316168.565866","316934.849787","317701.70475","318468.0301","319235.001313","320001.584822","320010.967301","Mapping"
"Mixed","Both","ball","8","m160ball.wav","None","727.901304141","175","313868.457315","320767.764551","321534.616114","307668.717516","308435.113357","309201.939567","309968.474227","310735.216652","314635.139451","315402.240825","316168.565866","316934.849787","317701.70475","318468.0301","319235.001313","320001.584822","320776.744487","Mapping"
"Mixed","Both","ball","8","m160reek.wav","space","466.199485119","175","313868.457315","320767.764551","321534.616114","322301.456546","308435.113357","309201.939567","309968.474227","310735.216652","314635.139451","315402.240825","316168.565866","316934.849787","317701.70475","318468.0301","319235.001313","320001.584822","321544.334973","Mapping"
"Mixed","Both","ball","8","m160greet.wav","None","726.298859809","175","313868.457315","320767.764551","321534.616114","322301.456546","323067.894744","309201.939567","309968.474227","310735.216652","314635.139451","315402.240825","316168.565866","316934.849787","317701.70475","318468.0301","319235.001313","320001.584822","322310.836861","Mapping"
"Mixed","Both","ball","8","m160park.wav","None","726.783643477","175","313868.457315","320767.764551","321534.616114","322301.456546","323067.894744","323834.568532","309968.474227","310735.216652","314635.139451","315402.240825","316168.565866","316934.849787","317701.70475","318468.0301","319235.001313","320001.584822","323077.313705","Mapping"
"Mixed","Both","ball","8","m160ball.wav","None","727.239364758","175","313868.457315","320767.764551","321534.616114","322301.456546","323067.894744","323834.568532","324601.390105","310735.216652","314635.139451","315402.240825","316168.565866","316934.849787","317701.70475","318468.0301","319235.001313","320001.584822","323843.969561","Mapping"
"Mixed","Both","ball","8","m150tile.wav","space","399.676543195","175","313868.457315","320767.764551","321534.616114","322301.456546","323067.894744","323834.568532","324601.390105","325367.91889","314635.139451","315402.240825","316168.565866","316934.849787","317701.70475","318468.0301","319235.001313","320001.584822","324610.80381","Mapping"
"Mixed","Both","ball","2","m160greet.wav","None","726.233933587","175","328501.503973","320767.764551","321534.616114","322301.456546","323067.894744","323834.568532","324601.390105","325367.91889","314635.139451","315402.240825","316168.565866","316934.849787","317701.70475","318468.0301","319235.001313","320001.584822","325377.463376","Mapping"
"Mixed","Both","ball","2","m160ball.wav","None","722.576105036","175","328501.503973","320767.764551","321534.616114","322301.456546","323067.894744","323834.568532","324601.390105","325367.91889","329268.192601","315402.240825","316168.565866","316934.849787","317701.70475","318468.0301","319235.001313","320001.584822","328511.399061","Mapping"
"Mixed","Both","ball","2","m150dime.wav","space","379.962114152","175","328501.503973","320767.764551","321534.616114","322301.456546","323067.894744","323834.568532","324601.390105","325367.91889","329268.192601","330034.534028","316168.565866","316934.849787","317701.70475","318468.0301","319235.001313","320001.584822","329278.418505","Mapping"
"Mixed","Both","ball","2","m150ball.wav","None","723.165080417","175","328501.503973","320767.764551","321534.616114","322301.456546","323067.894744","323834.568532","324601.390105","325367.91889","329268.192601","330034.534028","330801.699092","316934.849787","317701.70475","318468.0301","319235.001313","320001.584822","330043.69854","Mapping"
"Mixed","Both","ball","2","m150bluff.wav","space","326.59572782","175","328501.503973","320767.764551","321534.616114","322301.456546","323067.894744","323834.568532","324601.390105","325367.91889","329268.192601","330034.534028","330801.699092","331568.27951","317701.70475","318468.0301","319235.001313","320001.584822","330811.767627","Mapping"
"Mixed","Both","ball","2","m150greet.wav","None","721.661261749","175","328501.503973","320767.764551","321534.616114","322301.456546","323067.894744","323834.568532","324601.390105","325367.91889","329268.192601","330034.534028","330801.699092","331568.27951","332334.633303","318468.0301","319235.001313","320001.584822","331578.079373","Mapping"
"Mixed","Both","ball","2","m160ball.wav","None","722.667311784","175","328501.503973","320767.764551","321534.616114","322301.456546","323067.894744","323834.568532","324601.390105","325367.91889","329268.192601","330034.534028","330801.699092","331568.27951","332334.633303","333101.61039","319235.001313","320001.584822","332344.373805","Mapping"
"Mixed","Both","ball","2","m160knife.wav","space","474.831601139","175","328501.503973","320767.764551","321534.616114","322301.456546","323067.894744","323834.568532","324601.390105","325367.91889","329268.192601","330034.534028","330801.699092","331568.27951","332334.633303","333101.61039","333868.053226","320001.584822","333111.461885","Mapping"
"Mixed","Both","ball","2","m160cling.wav","None","721.39011696","175","328501.503973","320767.764551","321534.616114","322301.456546","323067.894744","323834.568532","324601.390105","325367.91889","329268.192601","330034.534028","330801.699092","331568.27951","332334.633303","333101.61039","333868.053226","334634.657141","333878.195034","Mapping"
"Mixed","Both","ball","2","m150jaw.wav","None","721.958686132","175","328501.503973","335401.570229","321534.616114","322301.456546","323067.894744","323834.568532","324601.390105","325367.91889","329268.192601","330034.534028","330801.699092","331568.27951","332334.633303","333101.61039","333868.053226","334634.657141","334644.577581","Mapping"
"Mixed","Both","ball","2","m160greet.wav","None","722.204479389","175","328501.503973","335401.570229","336168.076754","322301.456546","323067.894744","323834.568532","324601.390105","325367.91889","329268.192601","330034.534028","330801.699092","331568.27951","332334.633303","333101.61039","333868.053226","334634.657141","335411.713892","Mapping"
"Mixed","Both","ball","2","m150dime.wav","None","723.243610002","175","328501.503973","335401.570229","336168.076754","336934.647587","323067.894744","323834.568532","324601.390105","325367.91889","329268.192601","330034.534028","330801.699092","331568.27951","332334.633303","333101.61039","333868.053226","334634.657141","336177.901969","Mapping"
"Mixed","Both","ball","2","m150ball.wav","None","723.571643233","175","328501.503973","335401.570229","336168.076754","336934.647587","337701.152567","323834.568532","324601.390105","325367.91889","329268.192601","330034.534028","330801.699092","331568.27951","332334.633303","333101.61039","333868.053226","334634.657141","336944.534637","Mapping"
"Mixed","Both","ball","2","m150greet.wav","space","411.462843884","175","328501.503973","335401.570229","336168.076754","336934.647587","337701.152567","338468.041539","324601.390105","325367.91889","329268.192601","330034.534028","330801.699092","331568.27951","332334.633303","333101.61039","333868.053226","334634.657141","337710.790423","Mapping"
"Mixed","Both","ball","2","m160priest.wav","None","723.267725669","175","328501.503973","335401.570229","336168.076754","336934.647587","337701.152567","338468.041539","339234.250022","325367.91889","329268.192601","330034.534028","330801.699092","331568.27951","332334.633303","333101.61039","333868.053226","334634.657141","338477.891179","Mapping"
"Mixed","Both","ball","2","m160dime.wav","None","724.258316681","175","328501.503973","335401.570229","336168.076754","336934.647587","337701.152567","338468.041539","339234.250022","340001.056754","329268.192601","330034.534028","330801.699092","331568.27951","332334.633303","333101.61039","333868.053226","334634.657141","339244.181901","Mapping"
"Mixed","Both","ball","4","m150greet.wav","None","725.346297026","175","343134.575055","335401.570229","336168.076754","336934.647587","337701.152567","338468.041539","339234.250022","340001.056754","329268.192601","330034.534028","330801.699092","331568.27951","332334.633303","333101.61039","333868.053226","334634.657141","340010.292067","Mapping"
"Mixed","Both","ball","4","m160greet.wav","None","722.4434698","175","343134.575055","335401.570229","336168.076754","336934.647587","337701.152567","338468.041539","339234.250022","340001.056754","343901.477941","330034.534028","330801.699092","331568.27951","332334.633303","333101.61039","333868.053226","334634.657141","343144.532906","Mapping"
"Mixed","Both","ball","4","m160done.wav","None","722.460165154","175","343134.575055","335401.570229","336168.076754","336934.647587","337701.152567","338468.041539","339234.250022","340001.056754","343901.477941","344668.076909","330801.699092","331568.27951","332334.633303","333101.61039","333868.053226","334634.657141","343911.460834","Mapping"
"Mixed","Both","ball","4","m160gnash.wav","None","723.324922845","175","343134.575055","335401.570229","336168.076754","336934.647587","337701.152567","338468.041539","339234.250022","340001.056754","343901.477941","344668.076909","345433.94901","331568.27951","332334.633303","333101.61039","333868.053226","334634.657141","344677.873062","Mapping"
"Mixed","Both","ball","4","m160ball.wav","None","725.283535197","175","343134.575055","335401.570229","336168.076754","336934.647587","337701.152567","338468.041539","339234.250022","340001.056754","343901.477941","344668.076909","345433.94901","346200.977111","332334.633303","333101.61039","333868.053226","334634.657141","345443.0285","Mapping"
"Mixed","Both","ball","4","m160priest.wav","space","496.027587913","175","343134.575055","335401.570229","336168.076754","336934.647587","337701.152567","338468.041539","339234.250022","340001.056754","343901.477941","344668.076909","345433.94901","346200.977111","346967.86361","333101.61039","333868.053226","334634.657141","346210.054127","Mapping"
"Mixed","Both","ball","4","m150ball.wav","None","723.154568113","175","343134.575055","335401.570229","336168.076754","336934.647587","337701.152567","338468.041539","339234.250022","340001.056754","343901.477941","344668.076909","345433.94901","346200.977111","346967.86361","347734.138255","333868.053226","334634.657141","346977.91885","Mapping"
"Mixed","Both","ball","4","m160priest.wav","space","586.56834159","175","343134.575055","335401.570229","336168.076754","336934.647587","337701.152567","338468.041539","339234.250022","340001.056754","343901.477941","344668.076909","345433.94901","346200.977111","346967.86361","347734.138255","348501.268074","334634.657141","347743.47745","Mapping"
"Mixed","Both","ball","4","m160ball.wav","None","722.498193383","175","343134.575055","335401.570229","336168.076754","336934.647587","337701.152567","338468.041539","339234.250022","340001.056754","343901.477941","344668.076909","345433.94901","346200.977111","346967.86361","347734.138255","348501.268074","349267.858076","348511.269827","Mapping"
"Mixed","Both","ball","4","m150lash.wav","space","403.991982341","175","343134.575055","350034.263811","336168.076754","336934.647587","337701.152567","338468.041539","339234.250022","340001.056754","343901.477941","344668.076909","345433.94901","346200.977111","346967.86361","347734.138255","348501.268074","349267.858076","349278.021527","Mapping"
"Mixed","Both","ball","4","m150ball.wav","None","722.848177422","175","343134.575055","350034.263811","350801.271196","336934.647587","337701.152567","338468.041539","339234.250022","340001.056754","343901.477941","344668.076909","345433.94901","346200.977111","346967.86361","347734.138255","348501.268074","349267.858076","350044.006167","Mapping"
"Mixed","Both","ball","4","m160bluff.wav","space","454.825312365","175","343134.575055","350034.263811","350801.271196","351568.100189","337701.152567","338468.041539","339234.250022","340001.056754","343901.477941","344668.076909","345433.94901","346200.977111","346967.86361","347734.138255","348501.268074","349267.858076","350811.151754","Mapping"
"Mixed","Both","ball","4","m150cave.wav","None","721.803481225","175","343134.575055","350034.263811","350801.271196","351568.100189","352333.710731","338468.041539","339234.250022","340001.056754","343901.477941","344668.076909","345433.94901","346200.977111","346967.86361","347734.138255","348501.268074","349267.858076","351577.658588","Mapping"
"Mixed","Both","ball","4","m150gnash.wav","None","728.178632911","175","343134.575055","350034.263811","350801.271196","351568.100189","352333.710731","353100.58239","339234.250022","340001.056754","343901.477941","344668.076909","345433.94901","346200.977111","346967.86361","347734.138255","348501.268074","349267.858076","352342.682628","Mapping"
"Mixed","Both","ball","4","m150cad.wav","None","728.167502675","175","343134.575055","350034.263811","350801.271196","351568.100189","352333.710731","353100.58239","353867.354185","340001.056754","343901.477941","344668.076909","345433.94901","346200.977111","346967.86361","347734.138255","348501.268074","349267.858076","353109.725259","Mapping"
"Mixed","Both","ball","4","m150depth.wav","None","728.238612413","175","343134.575055","350034.263811","350801.271196","351568.100189","352333.710731","353100.58239","353867.354185","354633.979124","343901.477941","344668.076909","345433.94901","346200.977111","346967.86361","347734.138255","348501.268074","349267.858076","353877.018631","Mapping"
"Mixed","Both","tile","33","m150priest.wav","None","729.041226208","175","357767.682929","350034.263811","350801.271196","351568.100189","352333.710731","353100.58239","353867.354185","354633.979124","343901.477941","344668.076909","345433.94901","346200.977111","346967.86361","347734.138255","348501.268074","349267.858076","354643.501658","Mapping"
"Mixed","Both","tile","33","m150lash.wav","None","722.086375114","175","357767.682929","350034.263811","350801.271196","351568.100189","352333.710731","353100.58239","353867.354185","354633.979124","358534.150498","344668.076909","345433.94901","346200.977111","346967.86361","347734.138255","348501.268074","349267.858076","357777.4763","Mapping"
"Mixed","Both","tile","33","m160bluff.wav","None","722.237251233","175","357767.682929","350034.263811","350801.271196","351568.100189","352333.710731","353100.58239","353867.354185","354633.979124","358534.150498","359300.809446","345433.94901","346200.977111","346967.86361","347734.138255","348501.268074","349267.858076","358544.773999","Mapping"
"Mixed","Both","tile","33","m160cave.wav","None","724.620976485","175","357767.682929","350034.263811","350801.271196","351568.100189","352333.710731","353100.58239","353867.354185","354633.979124","358534.150498","359300.809446","360067.353691","346200.977111","346967.86361","347734.138255","348501.268074","349267.858076","359309.701886","Mapping"
"Mixed","Both","tile","33","m150tile.wav","None","724.405483343","175","357767.682929","350034.263811","350801.271196","351568.100189","352333.710731","353100.58239","353867.354185","354633.979124","358534.150498","359300.809446","360067.353691","360833.905355","346967.86361","347734.138255","348501.268074","349267.858076","360077.434901","Mapping"
"Mixed","Both","tile","33","m160knife.wav","space","462.537019514","175","357767.682929","350034.263811","350801.271196","351568.100189","352333.710731","353100.58239","353867.354185","354633.979124","358534.150498","359300.809446","360067.353691","360833.905355","361600.757536","347734.138255","348501.268074","349267.858076","360843.271757","Mapping"
"Mixed","Both","tile","33","m150tile.wav","None","724.907889497","175","357767.682929","350034.263811","350801.271196","351568.100189","352333.710731","353100.58239","353867.354185","354633.979124","358534.150498","359300.809446","360067.353691","360833.905355","361600.757536","362367.243965","348501.268074","349267.858076","361610.095185","Mapping"
"Mixed","Both","tile","33","m150reek.wav","space","496.989117004","175","357767.682929","350034.263811","350801.271196","351568.100189","352333.710731","353100.58239","353867.354185","354633.979124","358534.150498","359300.809446","360067.353691","360833.905355","361600.757536","362367.243965","363133.71679","349267.858076","362376.773302","Mapping"
"Mixed","Both","tile","33","m150park.wav","None","725.589925889","175","357767.682929","350034.263811","350801.271196","351568.100189","352333.710731","353100.58239","353867.354185","354633.979124","358534.150498","359300.809446","360067.353691","360833.905355","361600.757536","362367.243965","363133.71679","363900.95853","363143.085357","Mapping"
"Mixed","Both","tile","33","m160tile.wav","None","725.356808864","175","357767.682929","364667.2239","350801.271196","351568.100189","352333.710731","353100.58239","353867.354185","354633.979124","358534.150498","359300.809446","360067.353691","360833.905355","361600.757536","362367.243965","363133.71679","363900.95853","363910.73335","Mapping"
"Mixed","Both","tile","33","m150jolt.wav","space","484.715559054","175","357767.682929","364667.2239","365433.797206","351568.100189","352333.710731","353100.58239","353867.354185","354633.979124","358534.150498","359300.809446","360067.353691","360833.905355","361600.757536","362367.243965","363133.71679","363900.95853","364677.017889","Mapping"
"Mixed","Both","tile","33","m160tile.wav","None","725.821187254","175","357767.682929","364667.2239","365433.797206","366200.637639","352333.710731","353100.58239","353867.354185","354633.979124","358534.150498","359300.809446","360067.353691","360833.905355","361600.757536","362367.243965","363133.71679","363900.95853","365443.370136","Mapping"
"Mixed","Both","tile","33","m150lash.wav","space","471.498095896","175","357767.682929","364667.2239","365433.797206","366200.637639","366967.231042","353100.58239","353867.354185","354633.979124","358534.150498","359300.809446","360067.353691","360833.905355","361600.757536","362367.243965","363133.71679","363900.95853","366210.21737","Mapping"
"Mixed","Both","tile","33","m160dime.wav","None","725.017027464","175","357767.682929","364667.2239","365433.797206","366200.637639","366967.231042","367733.752098","353867.354185","354633.979124","358534.150498","359300.809446","360067.353691","360833.905355","361600.757536","362367.243965","363133.71679","363900.95853","366977.150246","Mapping"
