Condition,Talker,Target,Trial,current_stimulus,response_response,response_time_response,subject_nr,time_Audio1,time_Audio10,time_Audio11,time_Audio12,time_Audio13,time_Audio14,time_Audio15,time_Audio16,time_Audio2,time_Audio3,time_Audio4,time_Audio5,time_Audio6,time_Audio7,time_Audio8,time_Audio9,time_response,title
Mixed,Both,cave,18,m150park.wav,NA,NA,208,190236.3286,NA,NA,NA,NA,NA,NA,NA,NA,NA,NA,NA,NA,NA,NA,NA,NA,Mapping
Mixed,Both,cave,18,m160reek.wav,None,713.5203928,208,190236.3286,NA,NA,NA,NA,NA,NA,NA,191003.8219,NA,NA,NA,NA,NA,NA,NA,190254.2495,Mapping
Mixed,Both,cave,18,m150cave.wav,None,719.4802156,208,190236.3286,NA,NA,NA,NA,NA,NA,NA,191003.8219,191753.7236,NA,NA,NA,NA,NA,NA,191014.0408,Mapping
Mixed,Both,cave,18,m150greet.wav,space,375.1222761,208,190236.3286,NA,NA,NA,NA,NA,NA,NA,191003.8219,191753.7236,192521.0834,NA,NA,NA,NA,NA,191763.2382,Mapping
Mixed,Both,cave,18,m160dime.wav,None,734.2018466,208,190236.3286,NA,NA,NA,NA,NA,NA,NA,191003.8219,191753.7236,192521.0834,193288.5133,NA,NA,NA,NA,192530.8438,Mapping
Mixed,Both,cave,18,m160romp.wav,None,732.5332696,208,190236.3286,NA,NA,NA,NA,NA,NA,NA,191003.8219,191753.7236,192521.0834,193288.5133,194055.7559,NA,NA,NA,193297.9142,Mapping
Mixed,Both,cave,18,m160cave.wav,None,730.2098749,208,190236.3286,NA,NA,NA,NA,NA,NA,NA,191003.8219,191753.7236,192521.0834,193288.5133,194055.7559,194823.1231,NA,NA,194065.9232,Mapping
Mixed,Both,cave,18,m160lash.wav,space,409.4466763,208,190236.3286,NA,NA,NA,NA,NA,NA,NA,191003.8219,191753.7236,192521.0834,193288.5133,194055.7559,194823.1231,195589.6088,NA,194832.7775,Mapping
Mixed,Both,cave,18,m150bluff.wav,None,728.4009364,208,190236.3286,NA,NA,NA,NA,NA,NA,NA,191003.8219,191753.7236,192521.0834,193288.5133,194055.7559,194823.1231,195589.6088,196356.989,195598.7441,Mapping
Mixed,Both,cave,18,m160cave.wav,None,726.4803872,208,190236.3286,197124.2442,NA,NA,NA,NA,NA,NA,191003.8219,191753.7236,192521.0834,193288.5133,194055.7559,194823.1231,195589.6088,196356.989,196366.3837,Mapping
Mixed,Both,cave,18,m150romp.wav,space,404.6134595,208,190236.3286,197124.2442,197875.6132,NA,NA,NA,NA,NA,191003.8219,191753.7236,192521.0834,193288.5133,194055.7559,194823.1231,195589.6088,196356.989,197133.5106,Mapping
Mixed,Both,cave,18,m160ball.wav,None,735.7696351,208,190236.3286,197124.2442,197875.6132,198642.2291,NA,NA,NA,NA,191003.8219,191753.7236,192521.0834,193288.5133,194055.7559,194823.1231,195589.6088,196356.989,197885.2348,Mapping
Mixed,Both,cave,18,m150priest.wav,None,734.6999161,208,190236.3286,197124.2442,197875.6132,198642.2291,199409.2692,NA,NA,NA,191003.8219,191753.7236,192521.0834,193288.5133,194055.7559,194823.1231,195589.6088,196356.989,198652.0805,Mapping
Mixed,Both,cave,18,m150done.wav,None,733.7962184,208,190236.3286,197124.2442,197875.6132,198642.2291,199409.2692,200176.594,NA,NA,191003.8219,191753.7236,192521.0834,193288.5133,194055.7559,194823.1231,195589.6088,196356.989,199418.4741,Mapping
Mixed,Both,cave,18,m150cave.wav,None,732.1659783,208,190236.3286,197124.2442,197875.6132,198642.2291,199409.2692,200176.594,200944.1238,NA,191003.8219,191753.7236,192521.0834,193288.5133,194055.7559,194823.1231,195589.6088,196356.989,200186.0023,Mapping
Mixed,Both,cave,18,m160ball.wav,space,496.1400433,208,190236.3286,197124.2442,197875.6132,198642.2291,199409.2692,200176.594,200944.1238,201710.9475,191003.8219,191753.7236,192521.0834,193288.5133,194055.7559,194823.1231,195589.6088,196356.989,200953.8292,Mapping
Mixed,Both,ball,11,m150cling.wav,None,722.8810582,208,204863.5977,197124.2442,197875.6132,198642.2291,199409.2692,200176.594,200944.1238,201710.9475,191003.8219,191753.7236,192521.0834,193288.5133,194055.7559,194823.1231,195589.6088,196356.989,201720.0531,Mapping
Mixed,Both,ball,11,m150ball.wav,None,722.3582556,208,204863.5977,197124.2442,197875.6132,198642.2291,199409.2692,200176.594,200944.1238,201710.9475,205630.4316,191753.7236,192521.0834,193288.5133,194055.7559,194823.1231,195589.6088,196356.989,204873.6639,Mapping
Mixed,Both,ball,11,m160bluff.wav,space,362.2763632,208,204863.5977,197124.2442,197875.6132,198642.2291,199409.2692,200176.594,200944.1238,201710.9475,205630.4316,206397.6053,192521.0834,193288.5133,194055.7559,194823.1231,195589.6088,196356.989,205639.518,Mapping
Mixed,Both,ball,11,m160ball.wav,None,725.7291097,208,204863.5977,197124.2442,197875.6132,198642.2291,199409.2692,200176.594,200944.1238,201710.9475,205630.4316,206397.6053,207165.7061,193288.5133,194055.7559,194823.1231,195589.6088,196356.989,206406.8478,Mapping
Mixed,Both,ball,11,m160bluff.wav,space,394.4168054,208,204863.5977,197124.2442,197875.6132,198642.2291,199409.2692,200176.594,200944.1238,201710.9475,205630.4316,206397.6053,207165.7061,207915.4529,194055.7559,194823.1231,195589.6088,196356.989,207175.3246,Mapping
Mixed,Both,ball,11,m160ball.wav,None,733.4688101,208,204863.5977,197124.2442,197875.6132,198642.2291,199409.2692,200176.594,200944.1238,201710.9475,205630.4316,206397.6053,207165.7061,207915.4529,208682.6754,194823.1231,195589.6088,196356.989,207924.1597,Mapping
Mixed,Both,ball,11,m160cling.wav,space,413.8789028,208,204863.5977,197124.2442,197875.6132,198642.2291,199409.2692,200176.594,200944.1238,201710.9475,205630.4316,206397.6053,207165.7061,207915.4529,208682.6754,209450.1041,195589.6088,196356.989,208691.8304,Mapping
Mixed,Both,ball,11,m150cad.wav,None,725.9260491,208,204863.5977,197124.2442,197875.6132,198642.2291,199409.2692,200176.594,200944.1238,201710.9475,205630.4316,206397.6053,207165.7061,207915.4529,208682.6754,209450.1041,210217.7297,196356.989,209460.0704,Mapping
Mixed,Both,ball,11,m150reek.wav,None,724.0574406,208,204863.5977,197124.2442,197875.6132,198642.2291,199409.2692,200176.594,200944.1238,201710.9475,205630.4316,206397.6053,207165.7061,207915.4529,208682.6754,209450.1041,210217.7297,210984.4554,210227.811,Mapping
Mixed,Both,ball,11,m150jaw.wav,None,724.0957776,208,204863.5977,211751.5746,197875.6132,198642.2291,199409.2692,200176.594,200944.1238,201710.9475,205630.4316,206397.6053,207165.7061,207915.4529,208682.6754,209450.1041,210217.7297,210984.4554,210993.6321,Mapping
Mixed,Both,ball,11,m160jolt.wav,None,723.0155468,208,204863.5977,211751.5746,212519.1471,198642.2291,199409.2692,200176.594,200944.1238,201710.9475,205630.4316,206397.6053,207165.7061,207915.4529,208682.6754,209450.1041,210217.7297,210984.4554,211760.6867,Mapping
Mixed,Both,ball,11,m160jolt.wav,None,719.2365918,208,204863.5977,211751.5746,212519.1471,213269.7125,199409.2692,200176.594,200944.1238,201710.9475,205630.4316,206397.6053,207165.7061,207915.4529,208682.6754,209450.1041,210217.7297,210984.4554,212530.1355,Mapping
Mixed,Both,ball,11,m150ball.wav,None,732.2812984,208,204863.5977,211751.5746,212519.1471,213269.7125,214036.5965,200176.594,200944.1238,201710.9475,205630.4316,206397.6053,207165.7061,207915.4529,208682.6754,209450.1041,210217.7297,210984.4554,213279.6637,Mapping
Mixed,Both,ball,11,m160knife.wav,space,356.0794089,208,204863.5977,211751.5746,212519.1471,213269.7125,214036.5965,214803.8007,200944.1238,201710.9475,205630.4316,206397.6053,207165.7061,207915.4529,208682.6754,209450.1041,210217.7297,210984.4554,214045.4455,Mapping
Mixed,Both,ball,11,m150priest.wav,None,727.2987533,208,204863.5977,211751.5746,212519.1471,213269.7125,214036.5965,214803.8007,215570.9771,201710.9475,205630.4316,206397.6053,207165.7061,207915.4529,208682.6754,209450.1041,210217.7297,210984.4554,214812.957,Mapping
Mixed,Both,ball,11,m150cad.wav,None,722.6133198,208,204863.5977,211751.5746,212519.1471,213269.7125,214036.5965,214803.8007,215570.9771,216321.9881,205630.4316,206397.6053,207165.7061,207915.4529,208682.6754,209450.1041,210217.7297,210984.4554,215580.2447,Mapping
Mixed,Both,ball,8,m160cling.wav,None,733.2295151,208,219440.8216,211751.5746,212519.1471,213269.7125,214036.5965,214803.8007,215570.9771,216321.9881,205630.4316,206397.6053,207165.7061,207915.4529,208682.6754,209450.1041,210217.7297,210984.4554,216332.2395,Mapping
Mixed,Both,ball,8,m160ball.wav,None,734.6294262,208,219440.8216,211751.5746,212519.1471,213269.7125,214036.5965,214803.8007,215570.9771,216321.9881,220207.6617,206397.6053,207165.7061,207915.4529,208682.6754,209450.1041,210217.7297,210984.4554,219450.4992,Mapping
Mixed,Both,ball,8,m150depth.wav,space,392.3221948,208,219440.8216,211751.5746,212519.1471,213269.7125,214036.5965,214803.8007,215570.9771,216321.9881,220207.6617,220975.2453,207165.7061,207915.4529,208682.6754,209450.1041,210217.7297,210984.4554,220216.9645,Mapping
Mixed,Both,ball,8,m160reek.wav,None,729.6512099,208,219440.8216,211751.5746,212519.1471,213269.7125,214036.5965,214803.8007,215570.9771,216321.9881,220207.6617,220975.2453,221742.5416,207915.4529,208682.6754,209450.1041,210217.7297,210984.4554,220984.8384,Mapping
Mixed,Both,ball,8,m150cad.wav,None,724.7230792,208,219440.8216,211751.5746,212519.1471,213269.7125,214036.5965,214803.8007,215570.9771,216321.9881,220207.6617,220975.2453,221742.5416,222509.8646,208682.6754,209450.1041,210217.7297,210984.4554,221752.4226,Mapping
Mixed,Both,ball,8,m150knife.wav,None,719.6533484,208,219440.8216,211751.5746,212519.1471,213269.7125,214036.5965,214803.8007,215570.9771,216321.9881,220207.6617,220975.2453,221742.5416,222509.8646,223260.3407,209450.1041,210217.7297,210984.4554,222520.0065,Mapping
Mixed,Both,ball,8,m150bluff.wav,None,734.9342648,208,219440.8216,211751.5746,212519.1471,213269.7125,214036.5965,214803.8007,215570.9771,216321.9881,220207.6617,220975.2453,221742.5416,222509.8646,223260.3407,224027.4485,210217.7297,210984.4554,223270.8493,Mapping
Mixed,Both,ball,8,m160jolt.wav,None,731.3840929,208,219440.8216,211751.5746,212519.1471,213269.7125,214036.5965,214803.8007,215570.9771,216321.9881,220207.6617,220975.2453,221742.5416,222509.8646,223260.3407,224027.4485,224794.7467,210984.4554,224037.101,Mapping
Mixed,Both,ball,8,m160jolt.wav,None,726.3242574,208,219440.8216,211751.5746,212519.1471,213269.7125,214036.5965,214803.8007,215570.9771,216321.9881,220207.6617,220975.2453,221742.5416,222509.8646,223260.3407,224027.4485,224794.7467,225562.0617,224804.8896,Mapping
Mixed,Both,ball,8,m160depth.wav,None,722.1597703,208,219440.8216,226329.2112,212519.1471,213269.7125,214036.5965,214803.8007,215570.9771,216321.9881,220207.6617,220975.2453,221742.5416,222509.8646,223260.3407,224027.4485,224794.7467,225562.0617,225571.8385,Mapping
Mixed,Both,ball,8,m150ball.wav,None,721.2529825,208,219440.8216,226329.2112,227079.6332,213269.7125,214036.5965,214803.8007,215570.9771,216321.9881,220207.6617,220975.2453,221742.5416,222509.8646,223260.3407,224027.4485,224794.7467,225562.0617,226338.766,Mapping
Mixed,Both,ball,8,m160romp.wav,space,367.680613,208,219440.8216,226329.2112,227079.6332,227847.1287,214036.5965,214803.8007,215570.9771,216321.9881,220207.6617,220975.2453,221742.5416,222509.8646,223260.3407,224027.4485,224794.7467,225562.0617,227089.3575,Mapping
Mixed,Both,ball,8,m160ball.wav,None,728.3830037,208,219440.8216,226329.2112,227079.6332,227847.1287,228614.1629,214803.8007,215570.9771,216321.9881,220207.6617,220975.2453,221742.5416,222509.8646,223260.3407,224027.4485,224794.7467,225562.0617,227856.7321,Mapping
Mixed,Both,ball,8,m150greet.wav,space,384.5713632,208,219440.8216,226329.2112,227079.6332,227847.1287,228614.1629,229364.6047,215570.9771,216321.9881,220207.6617,220975.2453,221742.5416,222509.8646,223260.3407,224027.4485,224794.7467,225562.0617,228624.4344,Mapping
Mixed,Both,ball,8,m150ball.wav,None,734.7410349,208,219440.8216,226329.2112,227079.6332,227847.1287,228614.1629,229364.6047,230132.1092,216321.9881,220207.6617,220975.2453,221742.5416,222509.8646,223260.3407,224027.4485,224794.7467,225562.0617,229375.3486,Mapping
Mixed,Both,ball,8,m150knife.wav,space,351.9007005,208,219440.8216,226329.2112,227079.6332,227847.1287,228614.1629,229364.6047,230132.1092,230899.2126,220207.6617,220975.2453,221742.5416,222509.8646,223260.3407,224027.4485,224794.7467,225562.0617,230145.0222,Mapping
Mixed,Both,cave,15,m150knife.wav,None,731.8160003,208,234001.1937,226329.2112,227079.6332,227847.1287,228614.1629,229364.6047,230132.1092,230899.2126,220207.6617,220975.2453,221742.5416,222509.8646,223260.3407,224027.4485,224794.7467,225562.0617,230903.4794,Mapping
Mixed,Both,cave,15,m150reek.wav,None,728.4686435,208,234001.1937,226329.2112,227079.6332,227847.1287,228614.1629,229364.6047,230132.1092,230899.2126,234768.1896,220975.2453,221742.5416,222509.8646,223260.3407,224027.4485,224794.7467,225562.0617,234017.0364,Mapping
Mixed,Both,cave,15,m150cave.wav,None,730.8841692,208,234001.1937,226329.2112,227079.6332,227847.1287,228614.1629,229364.6047,230132.1092,230899.2126,234768.1896,235536.2196,221742.5416,222509.8646,223260.3407,224027.4485,224794.7467,225562.0617,234777.1291,Mapping
Mixed,Both,cave,15,m150cling.wav,space,343.3608739,208,234001.1937,226329.2112,227079.6332,227847.1287,228614.1629,229364.6047,230132.1092,230899.2126,234768.1896,235536.2196,236303.0751,222509.8646,223260.3407,224027.4485,224794.7467,225562.0617,235545.3784,Mapping
Mixed,Both,cave,15,m160ball.wav,None,712.14676,208,234001.1937,226329.2112,227079.6332,227847.1287,228614.1629,229364.6047,230132.1092,230899.2126,234768.1896,235536.2196,236303.0751,237053.7887,223260.3407,224027.4485,224794.7467,225562.0617,236320.8754,Mapping
Mixed,Both,cave,15,m160done.wav,None,732.0308723,208,234001.1937,226329.2112,227079.6332,227847.1287,228614.1629,229364.6047,230132.1092,230899.2126,234768.1896,235536.2196,236303.0751,237053.7887,237820.6034,224027.4485,224794.7467,225562.0617,237063.7027,Mapping
Mixed,Both,cave,15,m160cave.wav,None,736.6118077,208,234001.1937,226329.2112,227079.6332,227847.1287,228614.1629,229364.6047,230132.1092,230899.2126,234768.1896,235536.2196,236303.0751,237053.7887,237820.6034,238588.042,224794.7467,225562.0617,237824.8983,Mapping
Mixed,Both,cave,15,m160done.wav,space,275.1047155,208,234001.1937,226329.2112,227079.6332,227847.1287,228614.1629,229364.6047,230132.1092,230899.2126,234768.1896,235536.2196,236303.0751,237053.7887,237820.6034,238588.042,239354.8746,225562.0617,238597.5285,Mapping
Mixed,Both,cave,15,m150cad.wav,None,722.3029146,208,234001.1937,226329.2112,227079.6332,227847.1287,228614.1629,229364.6047,230132.1092,230899.2126,234768.1896,235536.2196,236303.0751,237053.7887,237820.6034,238588.042,239354.8746,240105.9282,239364.3555,Mapping
Mixed,Both,cave,15,m150cave.wav,None,733.8206433,208,234001.1937,240873.2005,227079.6332,227847.1287,228614.1629,229364.6047,230132.1092,230899.2126,234768.1896,235536.2196,236303.0751,237053.7887,237820.6034,238588.042,239354.8746,240105.9282,240115.5362,Mapping
Mixed,Both,cave,15,m150romp.wav,space,445.8950581,208,234001.1937,240873.2005,241640.1831,227847.1287,228614.1629,229364.6047,230132.1092,230899.2126,234768.1896,235536.2196,236303.0751,237053.7887,237820.6034,238588.042,239354.8746,240105.9282,240882.6805,Mapping
Mixed,Both,cave,15,m160park.wav,None,724.159467,208,234001.1937,240873.2005,241640.1831,242407.6087,228614.1629,229364.6047,230132.1092,230899.2126,234768.1896,235536.2196,236303.0751,237053.7887,237820.6034,238588.042,239354.8746,240105.9282,241650.0489,Mapping
Mixed,Both,cave,15,m160lash.wav,None,723.4684769,208,234001.1937,240873.2005,241640.1831,242407.6087,243157.8817,229364.6047,230132.1092,230899.2126,234768.1896,235536.2196,236303.0751,237053.7887,237820.6034,238588.042,239354.8746,240105.9282,242417.2269,Mapping
Mixed,Both,cave,15,m160cave.wav,None,735.0090826,208,234001.1937,240873.2005,241640.1831,242407.6087,243157.8817,243924.8503,230132.1092,230899.2126,234768.1896,235536.2196,236303.0751,237053.7887,237820.6034,238588.042,239354.8746,240105.9282,243168.5279,Mapping
Mixed,Both,cave,15,m160cad.wav,space,338.2011764,208,234001.1937,240873.2005,241640.1831,242407.6087,243157.8817,243924.8503,244692.1959,230899.2126,234768.1896,235536.2196,236303.0751,237053.7887,237820.6034,238588.042,239354.8746,240105.9282,243934.2611,Mapping
Mixed,Both,cave,15,m150ball.wav,None,729.969033,208,234001.1937,240873.2005,241640.1831,242407.6087,243157.8817,243924.8503,244692.1959,245459.398,234768.1896,235536.2196,236303.0751,237053.7887,237820.6034,238588.042,239354.8746,240105.9282,244701.7003,Mapping
Mixed,Both,done,43,m160greet.wav,None,725.6678948,208,248578.6442,240873.2005,241640.1831,242407.6087,243157.8817,243924.8503,244692.1959,245459.398,234768.1896,235536.2196,236303.0751,237053.7887,237820.6034,238588.042,239354.8746,240105.9282,245468.7991,Mapping
Mixed,Both,done,43,m160gnash.wav,None,722.0336301,208,248578.6442,240873.2005,241640.1831,242407.6087,243157.8817,243924.8503,244692.1959,245459.398,249345.7362,235536.2196,236303.0751,237053.7887,237820.6034,238588.042,239354.8746,240105.9282,248588.0951,Mapping
Mixed,Both,done,43,m160romp.wav,None,720.3060016,208,248578.6442,240873.2005,241640.1831,242407.6087,243157.8817,243924.8503,244692.1959,245459.398,249345.7362,250096.5524,236303.0751,237053.7887,237820.6034,238588.042,239354.8746,240105.9282,249355.5965,Mapping
Mixed,Both,done,43,m150lash.wav,None,732.0215972,208,248578.6442,240873.2005,241640.1831,242407.6087,243157.8817,243924.8503,244692.1959,245459.398,249345.7362,250096.5524,250863.5854,237053.7887,237820.6034,238588.042,239354.8746,240105.9282,250106.6078,Mapping
Mixed,Both,done,43,m160done.wav,None,731.5813424,208,248578.6442,240873.2005,241640.1831,242407.6087,243157.8817,243924.8503,244692.1959,245459.398,249345.7362,250096.5524,250863.5854,251630.5222,237820.6034,238588.042,239354.8746,240105.9282,250873.211,Mapping
Mixed,Both,done,43,m160romp.wav,space,352.1826612,208,248578.6442,240873.2005,241640.1831,242407.6087,243157.8817,243924.8503,244692.1959,245459.398,249345.7362,250096.5524,250863.5854,251630.5222,252397.8483,238588.042,239354.8746,240105.9282,251640.0149,Mapping
Mixed,Both,done,43,m150reek.wav,None,722.5632342,208,248578.6442,240873.2005,241640.1831,242407.6087,243157.8817,243924.8503,244692.1959,245459.398,249345.7362,250096.5524,250863.5854,251630.5222,252397.8483,253148.5504,239354.8746,240105.9282,252407.2173,Mapping
Mixed,Both,done,43,m150done.wav,None,734.6399371,208,248578.6442,240873.2005,241640.1831,242407.6087,243157.8817,243924.8503,244692.1959,245459.398,249345.7362,250096.5524,250863.5854,251630.5222,252397.8483,253148.5504,253915.4591,240105.9282,253158.3157,Mapping
Mixed,Both,done,43,m150dime.wav,None,731.2353849,208,248578.6442,240873.2005,241640.1831,242407.6087,243157.8817,243924.8503,244692.1959,245459.398,249345.7362,250096.5524,250863.5854,251630.5222,252397.8483,253148.5504,253915.4591,254683.302,253924.6194,Mapping
Mixed,Both,done,43,m150done.wav,space,10.92041656,208,248578.6442,255450.4785,241640.1831,242407.6087,243157.8817,243924.8503,244692.1959,245459.398,249345.7362,250096.5524,250863.5854,251630.5222,252397.8483,253148.5504,253915.4591,254683.302,254693.1546,Mapping
Mixed,Both,done,43,m150park.wav,space,451.3735073,208,248578.6442,255450.4785,256200.6538,242407.6087,243157.8817,243924.8503,244692.1959,245459.398,249345.7362,250096.5524,250863.5854,251630.5222,252397.8483,253148.5504,253915.4591,254683.302,255460.6671,Mapping
Mixed,Both,done,43,m150park.wav,None,736.718161,208,248578.6442,255450.4785,256200.6538,256968.0704,243157.8817,243924.8503,244692.1959,245459.398,249345.7362,250096.5524,250863.5854,251630.5222,252397.8483,253148.5504,253915.4591,254683.302,256209.8914,Mapping
Mixed,Both,done,43,m160done.wav,None,731.2118867,208,248578.6442,255450.4785,256200.6538,256968.0704,257735.3804,243924.8503,244692.1959,245459.398,249345.7362,250096.5524,250863.5854,251630.5222,252397.8483,253148.5504,253915.4591,254683.302,256977.8766,Mapping
Mixed,Both,done,43,m150jolt.wav,space,374.862575,208,248578.6442,255450.4785,256200.6538,256968.0704,257735.3804,258502.4696,244692.1959,245459.398,249345.7362,250096.5524,250863.5854,251630.5222,252397.8483,253148.5504,253915.4591,254683.302,257745.0827,Mapping
Mixed,Both,done,43,m160priest.wav,None,725.7226175,208,248578.6442,255450.4785,256200.6538,256968.0704,257735.3804,258502.4696,259269.348,245459.398,249345.7362,250096.5524,250863.5854,251630.5222,252397.8483,253148.5504,253915.4591,254683.302,258511.7935,Mapping
Mixed,Both,done,43,m160cad.wav,None,725.8141311,208,248578.6442,255450.4785,256200.6538,256968.0704,257735.3804,258502.4696,259269.348,260036.9836,249345.7362,250096.5524,250863.5854,251630.5222,252397.8483,253148.5504,253915.4591,254683.302,259278.5822,Mapping
Mixed,Both,ball,7,m160knife.wav,None,720.5156172,208,263139.1829,255450.4785,256200.6538,256968.0704,257735.3804,258502.4696,259269.348,260036.9836,249345.7362,250096.5524,250863.5854,251630.5222,252397.8483,253148.5504,253915.4591,254683.302,260046.5365,Mapping
Mixed,Both,ball,7,m150reek.wav,None,734.8303851,208,263139.1829,255450.4785,256200.6538,256968.0704,257735.3804,258502.4696,259269.348,260036.9836,263906.359,250096.5524,250863.5854,251630.5222,252397.8483,253148.5504,253915.4591,254683.302,263148.9174,Mapping
Mixed,Both,ball,7,m150depth.wav,None,729.7411775,208,263139.1829,255450.4785,256200.6538,256968.0704,257735.3804,258502.4696,259269.348,260036.9836,263906.359,264673.7447,250863.5854,251630.5222,252397.8483,253148.5504,253915.4591,254683.302,263916.961,Mapping
Mixed,Both,ball,7,m150knife.wav,None,726.4717296,208,263139.1829,255450.4785,256200.6538,256968.0704,257735.3804,258502.4696,259269.348,260036.9836,263906.359,264673.7447,265440.9895,251630.5222,252397.8483,253148.5504,253915.4591,254683.302,264683.4118,Mapping
Mixed,Both,ball,7,m160ball.wav,None,721.6644837,208,263139.1829,255450.4785,256200.6538,256968.0704,257735.3804,258502.4696,259269.348,260036.9836,263906.359,264673.7447,265440.9895,266191.081,252397.8483,253148.5504,253915.4591,254683.302,265451.1432,Mapping
Mixed,Both,ball,7,m160priest.wav,space,326.9830309,208,263139.1829,255450.4785,256200.6538,256968.0704,257735.3804,258502.4696,259269.348,260036.9836,263906.359,264673.7447,265440.9895,266191.081,266958.625,253148.5504,253915.4591,254683.302,266200.6683,Mapping
Mixed,Both,ball,7,m150ball.wav,None,730.0577648,208,263139.1829,255450.4785,256200.6538,256968.0704,257735.3804,258502.4696,259269.348,260036.9836,263906.359,264673.7447,265440.9895,266191.081,266958.625,267725.8237,253915.4591,254683.302,266968.1137,Mapping
Mixed,Both,ball,7,m160romp.wav,space,400.2690371,208,263139.1829,255450.4785,256200.6538,256968.0704,257735.3804,258502.4696,259269.348,260036.9836,263906.359,264673.7447,265440.9895,266191.081,266958.625,267725.8237,268493.1133,254683.302,267735.3371,Mapping
Mixed,Both,ball,7,m150knife.wav,None,721.1661059,208,263139.1829,255450.4785,256200.6538,256968.0704,257735.3804,258502.4696,259269.348,260036.9836,263906.359,264673.7447,265440.9895,266191.081,266958.625,267725.8237,268493.1133,269243.5087,268502.2987,Mapping
Mixed,Both,ball,7,m160ball.wav,None,733.2570311,208,263139.1829,270010.6521,256200.6538,256968.0704,257735.3804,258502.4696,259269.348,260036.9836,263906.359,264673.7447,265440.9895,266191.081,266958.625,267725.8237,268493.1133,269243.5087,269253.6936,Mapping
Mixed,Both,ball,7,m150bluff.wav,space,419.0661162,208,263139.1829,270010.6521,270777.7351,256968.0704,257735.3804,258502.4696,259269.348,260036.9836,263906.359,264673.7447,265440.9895,266191.081,266958.625,267725.8237,268493.1133,269243.5087,270020.4227,Mapping
Mixed,Both,ball,7,m150done.wav,None,725.6688224,208,263139.1829,270010.6521,270777.7351,271545.0615,257735.3804,258502.4696,259269.348,260036.9836,263906.359,264673.7447,265440.9895,266191.081,266958.625,267725.8237,268493.1133,269243.5087,270786.9112,Mapping
Mixed,Both,ball,7,m160dime.wav,None,721.3989086,208,263139.1829,270010.6521,270777.7351,271545.0615,272295.6155,258502.4696,259269.348,260036.9836,263906.359,264673.7447,265440.9895,266191.081,266958.625,267725.8237,268493.1133,269243.5087,271554.173,Mapping
Mixed,Both,ball,7,m150ball.wav,None,733.5937144,208,263139.1829,270010.6521,270777.7351,271545.0615,272295.6155,273063.0757,259269.348,260036.9836,263906.359,264673.7447,265440.9895,266191.081,266958.625,267725.8237,268493.1133,269243.5087,272305.0213,Mapping
Mixed,Both,ball,7,m160gnash.wav,space,287.260565,208,263139.1829,270010.6521,270777.7351,271545.0615,272295.6155,273063.0757,273830.041,260036.9836,263906.359,264673.7447,265440.9895,266191.081,266958.625,267725.8237,268493.1133,269243.5087,273072.1198,Mapping
Mixed,Both,ball,7,m160lash.wav,None,724.5412879,208,263139.1829,270010.6521,270777.7351,271545.0615,272295.6155,273063.0757,273830.041,274580.7002,263906.359,264673.7447,265440.9895,266191.081,266958.625,267725.8237,268493.1133,269243.5087,273839.3599,Mapping
Mixed,Both,ball,4,m160jolt.wav,None,737.0029045,208,277699.7544,270010.6521,270777.7351,271545.0615,272295.6155,273063.0757,273830.041,274580.7002,263906.359,264673.7447,265440.9895,266191.081,266958.625,267725.8237,268493.1133,269243.5087,274589.8475,Mapping
Mixed,Both,ball,4,m150greet.wav,None,734.251623,208,277699.7544,270010.6521,270777.7351,271545.0615,272295.6155,273063.0757,273830.041,274580.7002,278466.5864,264673.7447,265440.9895,266191.081,266958.625,267725.8237,268493.1133,269243.5087,277709.8586,Mapping
Mixed,Both,ball,4,m160ball.wav,None,731.0304064,208,277699.7544,270010.6521,270777.7351,271545.0615,272295.6155,273063.0757,273830.041,274580.7002,278466.5864,279234.2433,265440.9895,266191.081,266958.625,267725.8237,268493.1133,269243.5087,278475.9471,Mapping
Mixed,Both,ball,4,m150gnash.wav,space,331.3324014,208,277699.7544,270010.6521,270777.7351,271545.0615,272295.6155,273063.0757,273830.041,274580.7002,278466.5864,279234.2433,280001.5724,266191.081,266958.625,267725.8237,268493.1133,269243.5087,279243.8327,Mapping
Mixed,Both,ball,4,m150cling.wav,None,724.1675043,208,277699.7544,270010.6521,270777.7351,271545.0615,272295.6155,273063.0757,273830.041,274580.7002,278466.5864,279234.2433,280001.5724,280768.3111,266958.625,267725.8237,268493.1133,269243.5087,280011.3409,Mapping
Mixed,Both,ball,4,m150ball.wav,None,720.7845934,208,277699.7544,270010.6521,270777.7351,271545.0615,272295.6155,273063.0757,273830.041,274580.7002,278466.5864,279234.2433,280001.5724,280768.3111,281518.9507,267725.8237,268493.1133,269243.5087,280777.7518,Mapping
Mixed,Both,ball,4,m150dime.wav,space,398.850577,208,277699.7544,270010.6521,270777.7351,271545.0615,272295.6155,273063.0757,273830.041,274580.7002,278466.5864,279234.2433,280001.5724,280768.3111,281518.9507,282286.453,268493.1133,269243.5087,281528.1846,Mapping
Mixed,Both,ball,4,m160jaw.wav,None,727.5646375,208,277699.7544,270010.6521,270777.7351,271545.0615,272295.6155,273063.0757,273830.041,274580.7002,278466.5864,279234.2433,280001.5724,280768.3111,281518.9507,282286.453,283053.6743,269243.5087,282296.3569,Mapping
Mixed,Both,ball,4,m160cling.wav,None,726.9722726,208,277699.7544,270010.6521,270777.7351,271545.0615,272295.6155,273063.0757,273830.041,274580.7002,278466.5864,279234.2433,280001.5724,280768.3111,281518.9507,282286.453,283053.6743,283821.0714,283063.3589,Mapping
Mixed,Both,ball,4,m150jaw.wav,None,728.8881838,208,277699.7544,284571.2041,270777.7351,271545.0615,272295.6155,273063.0757,273830.041,274580.7002,278466.5864,279234.2433,280001.5724,280768.3111,281518.9507,282286.453,283053.6743,283821.0714,283825.0226,Mapping
Mixed,Both,ball,4,m160ball.wav,None,735.7350085,208,277699.7544,284571.2041,285338.946,271545.0615,272295.6155,273063.0757,273830.041,274580.7002,278466.5864,279234.2433,280001.5724,280768.3111,281518.9507,282286.453,283053.6743,283821.0714,284581.1701,Mapping
Mixed,Both,ball,4,m160romp.wav,space,354.186994,208,277699.7544,284571.2041,285338.946,286105.9746,272295.6155,273063.0757,273830.041,274580.7002,278466.5864,279234.2433,280001.5724,280768.3111,281518.9507,282286.453,283053.6743,283821.0714,285348.7562,Mapping
Mixed,Both,ball,4,m150cad.wav,None,726.1430845,208,277699.7544,284571.2041,285338.946,286105.9746,286873.027,273063.0757,273830.041,274580.7002,278466.5864,279234.2433,280001.5724,280768.3111,281518.9507,282286.453,283053.6743,283821.0714,286116.1357,Mapping
Mixed,Both,ball,4,m150ball.wav,None,722.7165811,208,277699.7544,284571.2041,285338.946,286105.9746,286873.027,287623.2694,273830.041,274580.7002,278466.5864,279234.2433,280001.5724,280768.3111,281518.9507,282286.453,283053.6743,283821.0714,286882.6953,Mapping
Mixed,Both,ball,4,m160reek.wav,space,454.3214208,208,277699.7544,284571.2041,285338.946,286105.9746,286873.027,287623.2694,288390.9813,274580.7002,278466.5864,279234.2433,280001.5724,280768.3111,281518.9507,282286.453,283053.6743,283821.0714,287632.5234,Mapping
Mixed,Both,ball,4,m160reek.wav,None,730.8844794,208,277699.7544,284571.2041,285338.946,286105.9746,286873.027,287623.2694,288390.9813,289157.8368,278466.5864,279234.2433,280001.5724,280768.3111,281518.9507,282286.453,283053.6743,283821.0714,288400.5624,Mapping
Mixed,Both,done,48,m160knife.wav,None,727.6181234,208,292260.0238,284571.2041,285338.946,286105.9746,286873.027,287623.2694,288390.9813,289157.8368,278466.5864,279234.2433,280001.5724,280768.3111,281518.9507,282286.453,283053.6743,283821.0714,289167.1468,Mapping
Mixed,Both,done,48,m160depth.wav,None,734.3972409,208,292260.0238,284571.2041,285338.946,286105.9746,286873.027,287623.2694,288390.9813,289157.8368,293027.7833,279234.2433,280001.5724,280768.3111,281518.9507,282286.453,283053.6743,283821.0714,292270.2706,Mapping
Mixed,Both,done,48,m160done.wav,None,729.9019443,208,292260.0238,284571.2041,285338.946,286105.9746,286873.027,287623.2694,288390.9813,289157.8368,293027.7833,293794.9468,280001.5724,280768.3111,281518.9507,282286.453,283053.6743,283821.0714,293037.8223,Mapping
Mixed,Both,done,48,m150cave.wav,space,354.1740095,208,292260.0238,284571.2041,285338.946,286105.9746,286873.027,287623.2694,288390.9813,289157.8368,293027.7833,293794.9468,294562.1894,280768.3111,281518.9507,282286.453,283053.6743,283821.0714,293804.4843,Mapping
Mixed,Both,done,48,m150done.wav,None,721.8138119,208,292260.0238,284571.2041,285338.946,286105.9746,286873.027,287623.2694,288390.9813,289157.8368,293027.7833,293794.9468,294562.1894,295312.1847,281518.9507,282286.453,283053.6743,283821.0714,294571.4406,Mapping
Mixed,Both,done,48,m150park.wav,space,493.0205429,208,292260.0238,284571.2041,285338.946,286105.9746,286873.027,287623.2694,288390.9813,289157.8368,293027.7833,293794.9468,294562.1894,295312.1847,296079.8898,282286.453,283053.6743,283821.0714,295321.5639,Mapping
Mixed,Both,done,48,m150park.wav,None,728.9701141,208,292260.0238,284571.2041,285338.946,286105.9746,286873.027,287623.2694,288390.9813,289157.8368,293027.7833,293794.9468,294562.1894,295312.1847,296079.8898,296846.7129,283053.6743,283821.0714,296089.6128,Mapping
Mixed,Both,done,48,m150romp.wav,None,725.6814977,208,292260.0238,284571.2041,285338.946,286105.9746,286873.027,287623.2694,288390.9813,289157.8368,293027.7833,293794.9468,294562.1894,295312.1847,296079.8898,296846.7129,297614.225,283821.0714,296856.0374,Mapping
Mixed,Both,done,48,m160gnash.wav,None,721.2149538,208,292260.0238,284571.2041,285338.946,286105.9746,286873.027,287623.2694,288390.9813,289157.8368,293027.7833,293794.9468,294562.1894,295312.1847,296079.8898,296846.7129,297614.225,298364.4786,297623.6148,Mapping
Mixed,Both,done,48,m160knife.wav,None,734.1598002,208,292260.0238,299131.983,285338.946,286105.9746,286873.027,287623.2694,288390.9813,289157.8368,293027.7833,293794.9468,294562.1894,295312.1847,296079.8898,296846.7129,297614.225,298364.4786,298373.8198,Mapping
Mixed,Both,done,48,m150done.wav,None,729.6014335,208,292260.0238,299131.983,299898.8159,286105.9746,286873.027,287623.2694,288390.9813,289157.8368,293027.7833,293794.9468,294562.1894,295312.1847,296079.8898,296846.7129,297614.225,298364.4786,299141.4664,Mapping
Mixed,Both,done,48,m150reek.wav,space,370.4705406,208,292260.0238,299131.983,299898.8159,300666.3544,286873.027,287623.2694,288390.9813,289157.8368,293027.7833,293794.9468,294562.1894,295312.1847,296079.8898,296846.7129,297614.225,298364.4786,299907.9382,Mapping
Mixed,Both,done,48,m150depth.wav,None,720.7883028,208,292260.0238,299131.983,299898.8159,300666.3544,301433.3252,287623.2694,288390.9813,289157.8368,293027.7833,293794.9468,294562.1894,295312.1847,296079.8898,296846.7129,297614.225,298364.4786,300675.8687,Mapping
Mixed,Both,done,48,m160done.wav,None,720.9252641,208,292260.0238,299131.983,299898.8159,300666.3544,301433.3252,302183.9998,288390.9813,289157.8368,293027.7833,293794.9468,294562.1894,295312.1847,296079.8898,296846.7129,297614.225,298364.4786,301442.4497,Mapping
Mixed,Both,done,48,m160tile.wav,space,509.4327023,208,292260.0238,299131.983,299898.8159,300666.3544,301433.3252,302183.9998,302951.4044,289157.8368,293027.7833,293794.9468,294562.1894,295312.1847,296079.8898,296846.7129,297614.225,298364.4786,302192.8924,Mapping
Mixed,Both,done,48,m160depth.wav,None,731.4233575,208,292260.0238,299131.983,299898.8159,300666.3544,301433.3252,302183.9998,302951.4044,303718.6773,293027.7833,293794.9468,294562.1894,295312.1847,296079.8898,296846.7129,297614.225,298364.4786,302960.6915,Mapping
Mixed,Both,cave,21,m150greet.wav,None,726.4197906,208,306820.8915,299131.983,299898.8159,300666.3544,301433.3252,302183.9998,302951.4044,303718.6773,293027.7833,293794.9468,294562.1894,295312.1847,296079.8898,296846.7129,297614.225,298364.4786,303728.7775,Mapping
Mixed,Both,cave,21,m160dime.wav,None,734.7796811,208,306820.8915,299131.983,299898.8159,300666.3544,301433.3252,302183.9998,302951.4044,303718.6773,307588.2173,293794.9468,294562.1894,295312.1847,296079.8898,296846.7129,297614.225,298364.4786,306830.4154,Mapping
Mixed,Both,cave,21,m160knife.wav,None,730.0862074,208,306820.8915,299131.983,299898.8159,300666.3544,301433.3252,302183.9998,302951.4044,303718.6773,307588.2173,308355.9007,294562.1894,295312.1847,296079.8898,296846.7129,297614.225,298364.4786,307598.2312,Mapping
Mixed,Both,cave,21,m160bluff.wav,None,726.0837248,208,306820.8915,299131.983,299898.8159,300666.3544,301433.3252,302183.9998,302951.4044,303718.6773,307588.2173,308355.9007,309122.6165,295312.1847,296079.8898,296846.7129,297614.225,298364.4786,308365.4129,Mapping
Mixed,Both,cave,21,m160cave.wav,None,722.8535423,208,306820.8915,299131.983,299898.8159,300666.3544,301433.3252,302183.9998,302951.4044,303718.6773,307588.2173,308355.9007,309122.6165,309873.139,296079.8898,296846.7129,297614.225,298364.4786,309131.8278,Mapping
Mixed,Both,cave,21,m160park.wav,space,363.2499324,208,306820.8915,299131.983,299898.8159,300666.3544,301433.3252,302183.9998,302951.4044,303718.6773,307588.2173,308355.9007,309122.6165,309873.139,310640.3679,296846.7129,297614.225,298364.4786,309882.776,Mapping
Mixed,Both,cave,21,m150cave.wav,None,729.9078181,208,306820.8915,299131.983,299898.8159,300666.3544,301433.3252,302183.9998,302951.4044,303718.6773,307588.2173,308355.9007,309122.6165,309873.139,310640.3679,311407.5589,297614.225,298364.4786,310650.0171,Mapping
Mixed,Both,cave,21,m150ball.wav,space,500.7200511,208,306820.8915,299131.983,299898.8159,300666.3544,301433.3252,302183.9998,302951.4044,303718.6773,307588.2173,308355.9007,309122.6165,309873.139,310640.3679,311407.5589,312174.4639,298364.4786,311417.281,Mapping
Mixed,Both,cave,21,m160cave.wav,None,721.7779486,208,306820.8915,299131.983,299898.8159,300666.3544,301433.3252,302183.9998,302951.4044,303718.6773,307588.2173,308355.9007,309122.6165,309873.139,310640.3679,311407.5589,312174.4639,312925.1252,312183.7457,Mapping
Mixed,Both,cave,21,m150dime.wav,space,415.6154972,208,306820.8915,313692.5455,299898.8159,300666.3544,301433.3252,302183.9998,302951.4044,303718.6773,307588.2173,308355.9007,309122.6165,309873.139,310640.3679,311407.5589,312174.4639,312925.1252,312934.3572,Mapping
Mixed,Both,cave,21,m150cave.wav,None,728.4933766,208,306820.8915,313692.5455,314459.5906,300666.3544,301433.3252,302183.9998,302951.4044,303718.6773,307588.2173,308355.9007,309122.6165,309873.139,310640.3679,311407.5589,312174.4639,312925.1252,313702.5746,Mapping
Mixed,Both,cave,21,m150jolt.wav,space,369.4450315,208,306820.8915,313692.5455,314459.5906,315226.7515,301433.3252,302183.9998,302951.4044,303718.6773,307588.2173,308355.9007,309122.6165,309873.139,310640.3679,311407.5589,312174.4639,312925.1252,314468.4525,Mapping
Mixed,Both,cave,21,m160knife.wav,space,0.01947768,208,306820.8915,313692.5455,314459.5906,315226.7515,315977.5513,302183.9998,302951.4044,303718.6773,307588.2173,308355.9007,309122.6165,309873.139,310640.3679,311407.5589,312174.4639,312925.1252,315236.1623,Mapping
Mixed,Both,cave,21,m150bluff.wav,None,731.7974512,208,306820.8915,313692.5455,314459.5906,315226.7515,315977.5513,316744.8174,302951.4044,303718.6773,307588.2173,308355.9007,309122.6165,309873.139,310640.3679,311407.5589,312174.4639,312925.1252,315986.9293,Mapping
Mixed,Both,cave,21,m160bluff.wav,None,727.3256518,208,306820.8915,313692.5455,314459.5906,315226.7515,315977.5513,316744.8174,317512.0211,303718.6773,307588.2173,308355.9007,309122.6165,309873.139,310640.3679,311407.5589,312174.4639,312925.1252,316754.6072,Mapping
Mixed,Both,cave,21,m150tile.wav,None,722.8136603,208,306820.8915,313692.5455,314459.5906,315226.7515,315977.5513,316744.8174,317512.0211,318279.3845,307588.2173,308355.9007,309122.6165,309873.139,310640.3679,311407.5589,312174.4639,312925.1252,317522.3565,Mapping
Mixed,Both,cave,14,m150tile.wav,None,722.579929,208,321380.8762,313692.5455,314459.5906,315226.7515,315977.5513,316744.8174,317512.0211,318279.3845,307588.2173,308355.9007,309122.6165,309873.139,310640.3679,311407.5589,312174.4639,312925.1252,318289.3122,Mapping
Mixed,Both,cave,14,m150cave.wav,None,735.0233058,208,321380.8762,313692.5455,314459.5906,315226.7515,315977.5513,316744.8174,317512.0211,318279.3845,322148.4428,308355.9007,309122.6165,309873.139,310640.3679,311407.5589,312174.4639,312925.1252,321390.6171,Mapping
Mixed,Both,cave,14,m150cad.wav,space,471.6944732,208,321380.8762,313692.5455,314459.5906,315226.7515,315977.5513,316744.8174,317512.0211,318279.3845,322148.4428,322915.9887,309122.6165,309873.139,310640.3679,311407.5589,312174.4639,312925.1252,322157.9064,Mapping
Mixed,Both,cave,14,m150cave.wav,None,725.5062005,208,321380.8762,313692.5455,314459.5906,315226.7515,315977.5513,316744.8174,317512.0211,318279.3845,322148.4428,322915.9887,323683.1809,309873.139,310640.3679,311407.5589,312174.4639,312925.1252,322925.8282,Mapping
Mixed,Both,cave,14,m150dime.wav,space,448.8166925,208,321380.8762,313692.5455,314459.5906,315226.7515,315977.5513,316744.8174,317512.0211,318279.3845,322148.4428,322915.9887,323683.1809,324433.8453,310640.3679,311407.5589,312174.4639,312925.1252,323692.7474,Mapping
Mixed,Both,cave,14,m160priest.wav,None,733.4882878,208,321380.8762,313692.5455,314459.5906,315226.7515,315977.5513,316744.8174,317512.0211,318279.3845,322148.4428,322915.9887,323683.1809,324433.8453,325201.0322,311407.5589,312174.4639,312925.1252,324443.3503,Mapping
Mixed,Both,cave,14,m160cave.wav,None,729.4616904,208,321380.8762,313692.5455,314459.5906,315226.7515,315977.5513,316744.8174,317512.0211,318279.3845,322148.4428,322915.9887,323683.1809,324433.8453,325201.0322,325967.9217,312174.4639,312925.1252,325210.5969,Mapping
Mixed,Both,cave,14,m160priest.wav,space,452.1189108,208,321380.8762,313692.5455,314459.5906,315226.7515,315977.5513,316744.8174,317512.0211,318279.3845,322148.4428,322915.9887,323683.1809,324433.8453,325201.0322,325967.9217,326735.5112,312925.1252,325977.3859,Mapping
Mixed,Both,cave,14,m150jaw.wav,None,721.001938,208,321380.8762,313692.5455,314459.5906,315226.7515,315977.5513,316744.8174,317512.0211,318279.3845,322148.4428,322915.9887,323683.1809,324433.8453,325201.0322,325967.9217,326735.5112,327485.6583,326745.0821,Mapping
Mixed,Both,cave,14,m160cave.wav,None,734.1845334,208,321380.8762,328252.9575,314459.5906,315226.7515,315977.5513,316744.8174,317512.0211,318279.3845,322148.4428,322915.9887,323683.1809,324433.8453,325201.0322,325967.9217,326735.5112,327485.6583,327495.0737,Mapping
Mixed,Both,cave,14,m160romp.wav,space,407.1477065,208,321380.8762,328252.9575,329020.5426,315226.7515,315977.5513,316744.8174,317512.0211,318279.3845,322148.4428,322915.9887,323683.1809,324433.8453,325201.0322,325967.9217,326735.5112,327485.6583,328262.2764,Mapping
Mixed,Both,cave,14,m150reek.wav,None,724.5579837,208,321380.8762,328252.9575,329020.5426,329787.3508,315977.5513,316744.8174,317512.0211,318279.3845,322148.4428,322915.9887,323683.1809,324433.8453,325201.0322,325967.9217,326735.5112,327485.6583,329030.082,Mapping
Mixed,Both,cave,14,m160lash.wav,None,721.3339843,208,321380.8762,328252.9575,329020.5426,329787.3508,330538.2205,316744.8174,317512.0211,318279.3845,322148.4428,322915.9887,323683.1809,324433.8453,325201.0322,325967.9217,326735.5112,327485.6583,329796.6432,Mapping
Mixed,Both,cave,14,m160jolt.wav,None,733.4246002,208,321380.8762,328252.9575,329020.5426,329787.3508,330538.2205,331305.1144,317512.0211,318279.3845,322148.4428,322915.9887,323683.1809,324433.8453,325201.0322,325967.9217,326735.5112,327485.6583,330547.9139,Mapping
Mixed,Both,cave,14,m150done.wav,None,730.2148221,208,321380.8762,328252.9575,329020.5426,329787.3508,330538.2205,331305.1144,332072.493,318279.3845,322148.4428,322915.9887,323683.1809,324433.8453,325201.0322,325967.9217,326735.5112,327485.6583,331314.4723,Mapping
Mixed,Both,cave,14,m160depth.wav,None,725.6020419,208,321380.8762,328252.9575,329020.5426,329787.3508,330538.2205,331305.1144,332072.493,332839.5606,322148.4428,322915.9887,323683.1809,324433.8453,325201.0322,325967.9217,326735.5112,327485.6583,332082.3329,Mapping
Mixed,Both,ball,3,m150dime.wav,None,722.6448543,208,335941.7587,328252.9575,329020.5426,329787.3508,330538.2205,331305.1144,332072.493,332839.5606,322148.4428,322915.9887,323683.1809,324433.8453,325201.0322,325967.9217,326735.5112,327485.6583,332848.7398,Mapping
Mixed,Both,ball,3,m160greet.wav,None,735.8744433,208,335941.7587,328252.9575,329020.5426,329787.3508,330538.2205,331305.1144,332072.493,332839.5606,336709.478,322915.9887,323683.1809,324433.8453,325201.0322,325967.9217,326735.5112,327485.6583,335951.2746,Mapping
Mixed,Both,ball,3,m150dime.wav,None,731.2582619,208,335941.7587,328252.9575,329020.5426,329787.3508,330538.2205,331305.1144,332072.493,332839.5606,336709.478,337476.6551,323683.1809,324433.8453,325201.0322,325967.9217,326735.5112,327485.6583,336719.1287,Mapping
Mixed,Both,ball,3,m160depth.wav,None,727.361205,208,335941.7587,328252.9575,329020.5426,329787.3508,330538.2205,331305.1144,332072.493,332839.5606,336709.478,337476.6551,338243.6772,324433.8453,325201.0322,325967.9217,326735.5112,327485.6583,337486.6242,Mapping
Mixed,Both,ball,3,m160ball.wav,None,723.6997345,208,335941.7587,328252.9575,329020.5426,329787.3508,330538.2205,331305.1144,332072.493,332839.5606,336709.478,337476.6551,338243.6772,339011.0571,325201.0322,325967.9217,326735.5112,327485.6583,338253.4553,Mapping
Mixed,Both,ball,3,m150knife.wav,space,308.9192985,208,335941.7587,328252.9575,329020.5426,329787.3508,330538.2205,331305.1144,332072.493,332839.5606,336709.478,337476.6551,338243.6772,339011.0571,339761.4123,325967.9217,326735.5112,327485.6583,339032.0814,Mapping
Mixed,Both,ball,3,m150ball.wav,None,711.9359085,208,335941.7587,328252.9575,329020.5426,329787.3508,330538.2205,331305.1144,332072.493,332839.5606,336709.478,337476.6551,338243.6772,339011.0571,339761.4123,340528.9344,326735.5112,327485.6583,339791.0318,Mapping
Mixed,Both,ball,3,m150jolt.wav,space,410.3327505,208,335941.7587,328252.9575,329020.5426,329787.3508,330538.2205,331305.1144,332072.493,332839.5606,336709.478,337476.6551,338243.6772,339011.0571,339761.4123,340528.9344,341295.9979,327485.6583,340538.6228,Mapping
Mixed,Both,ball,3,m160cave.wav,None,697.1063772,208,335941.7587,328252.9575,329020.5426,329787.3508,330538.2205,331305.1144,332072.493,332839.5606,336709.478,337476.6551,338243.6772,339011.0571,339761.4123,340528.9344,341295.9979,342046.526,341331.6069,Mapping
Mixed,Both,ball,3,m150park.wav,None,736.3660196,208,335941.7587,342813.9176,329020.5426,329787.3508,330538.2205,331305.1144,332072.493,332839.5606,336709.478,337476.6551,338243.6772,339011.0571,339761.4123,340528.9344,341295.9979,342046.526,342055.7002,Mapping
Mixed,Both,ball,3,m160priest.wav,None,732.1851468,208,335941.7587,342813.9176,343580.8563,329787.3508,330538.2205,331305.1144,332072.493,332839.5606,336709.478,337476.6551,338243.6772,339011.0571,339761.4123,340528.9344,341295.9979,342046.526,342823.2211,Mapping
Mixed,Both,ball,3,m160ball.wav,None,733.0443235,208,335941.7587,342813.9176,343580.8563,344348.1669,330538.2205,331305.1144,332072.493,332839.5606,336709.478,337476.6551,338243.6772,339011.0571,339761.4123,340528.9344,341295.9979,342046.526,343585.7056,Mapping
Mixed,Both,ball,3,m160priest.wav,space,422.9044318,208,335941.7587,342813.9176,343580.8563,344348.1669,345098.767,331305.1144,332072.493,332839.5606,336709.478,337476.6551,338243.6772,339011.0571,339761.4123,340528.9344,341295.9979,342046.526,344357.8924,Mapping
Mixed,Both,ball,3,m150ball.wav,None,737.152542,208,335941.7587,342813.9176,343580.8563,344348.1669,345098.767,345865.7505,332072.493,332839.5606,336709.478,337476.6551,338243.6772,339011.0571,339761.4123,340528.9344,341295.9979,342046.526,345107.5362,Mapping
Mixed,Both,ball,3,m150cad.wav,space,361.8484754,208,335941.7587,342813.9176,343580.8563,344348.1669,345098.767,345865.7505,346632.8626,332839.5606,336709.478,337476.6551,338243.6772,339011.0571,339761.4123,340528.9344,341295.9979,342046.526,345874.9015,Mapping
Mixed,Both,ball,3,m160done.wav,None,728.6300287,208,335941.7587,342813.9176,343580.8563,344348.1669,345098.767,345865.7505,346632.8626,347400.419,336709.478,337476.6551,338243.6772,339011.0571,339761.4123,340528.9344,341295.9979,342046.526,346641.8383,Mapping
Mixed,Both,cave,22,m150priest.wav,None,724.8139745,208,350502.4369,342813.9176,343580.8563,344348.1669,345098.767,345865.7505,346632.8626,347400.419,336709.478,337476.6551,338243.6772,339011.0571,339761.4123,340528.9344,341295.9979,342046.526,347409.6473,Mapping
Mixed,Both,cave,22,m160cave.wav,None,736.205562,208,350502.4369,342813.9176,343580.8563,344348.1669,345098.767,345865.7505,346632.8626,347400.419,351269.8891,337476.6551,338243.6772,339011.0571,339761.4123,340528.9344,341295.9979,342046.526,350511.3452,Mapping
Mixed,Both,cave,22,m150gnash.wav,space,637.0029673,208,350502.4369,342813.9176,343580.8563,344348.1669,345098.767,345865.7505,346632.8626,347400.419,351269.8891,352037.434,338243.6772,339011.0571,339761.4123,340528.9344,341295.9979,342046.526,351279.5317,Mapping
Mixed,Both,cave,22,m160park.wav,None,726.5632441,208,350502.4369,342813.9176,343580.8563,344348.1669,345098.767,345865.7505,346632.8626,347400.419,351269.8891,352037.434,352804.4558,339011.0571,339761.4123,340528.9344,341295.9979,342046.526,352046.8506,Mapping
Mixed,Both,cave,22,m150done.wav,None,722.5786923,208,350502.4369,342813.9176,343580.8563,344348.1669,345098.767,345865.7505,346632.8626,347400.419,351269.8891,352037.434,352804.4558,353571.6589,339761.4123,340528.9344,341295.9979,342046.526,352814.1764,Mapping
Mixed,Both,cave,22,m160jaw.wav,None,719.9461311,208,350502.4369,342813.9176,343580.8563,344348.1669,345098.767,345865.7505,346632.8626,347400.419,351269.8891,352037.434,352804.4558,353571.6589,354322.0561,340528.9344,341295.9979,342046.526,353581.1791,Mapping
Mixed,Both,cave,22,m160cave.wav,None,733.0254642,208,350502.4369,342813.9176,343580.8563,344348.1669,345098.767,345865.7505,346632.8626,347400.419,351269.8891,352037.434,352804.4558,353571.6589,354322.0561,355089.4249,341295.9979,342046.526,354331.4684,Mapping
Mixed,Both,cave,22,m150knife.wav,space,545.4770019,208,350502.4369,342813.9176,343580.8563,344348.1669,345098.767,345865.7505,346632.8626,347400.419,351269.8891,352037.434,352804.4558,353571.6589,354322.0561,355089.4249,355856.2791,342046.526,355098.9311,Mapping
Mixed,Both,cave,22,m150cave.wav,None,724.750286,208,350502.4369,342813.9176,343580.8563,344348.1669,345098.767,345865.7505,346632.8626,347400.419,351269.8891,352037.434,352804.4558,353571.6589,354322.0561,355089.4249,355856.2791,356623.9394,355865.4249,Mapping
Mixed,Both,cave,22,m160depth.wav,space,386.9658671,208,350502.4369,357374.4032,343580.8563,344348.1669,345098.767,345865.7505,346632.8626,347400.419,351269.8891,352037.434,352804.4558,353571.6589,354322.0561,355089.4249,355856.2791,356623.9394,356633.3959,Mapping
Mixed,Both,cave,22,m150cave.wav,None,732.1761809,208,350502.4369,357374.4032,358141.5895,344348.1669,345098.767,345865.7505,346632.8626,347400.419,351269.8891,352037.434,352804.4558,353571.6589,354322.0561,355089.4249,355856.2791,356623.9394,357383.4302,Mapping
Mixed,Both,cave,22,m150park.wav,space,517.2778293,208,350502.4369,357374.4032,358141.5895,358908.5003,345098.767,345865.7505,346632.8626,347400.419,351269.8891,352037.434,352804.4558,353571.6589,354322.0561,355089.4249,355856.2791,356623.9394,358150.9922,Mapping
Mixed,Both,cave,22,m160gnash.wav,None,723.9047121,208,350502.4369,357374.4032,358141.5895,358908.5003,359658.9947,345865.7505,346632.8626,347400.419,351269.8891,352037.434,352804.4558,353571.6589,354322.0561,355089.4249,355856.2791,356623.9394,358917.5197,Mapping
Mixed,Both,cave,22,m160bluff.wav,None,736.9512739,208,350502.4369,357374.4032,358141.5895,358908.5003,359658.9947,360426.6104,346632.8626,347400.419,351269.8891,352037.434,352804.4558,353571.6589,354322.0561,355089.4249,355856.2791,356623.9394,359667.9117,Mapping
Mixed,Both,cave,22,m160jaw.wav,None,732.3338557,208,350502.4369,357374.4032,358141.5895,358908.5003,359658.9947,360426.6104,361193.7637,347400.419,351269.8891,352037.434,352804.4558,353571.6589,354322.0561,355089.4249,355856.2791,356623.9394,360436.0039,Mapping
Mixed,Both,cave,22,m150jolt.wav,None,728.6263192,208,350502.4369,357374.4032,358141.5895,358908.5003,359658.9947,360426.6104,361193.7637,361960.9048,351269.8891,352037.434,352804.4558,353571.6589,354322.0561,355089.4249,355856.2791,356623.9394,361203.3299,Mapping
Mixed,Both,tile,33,m160ball.wav,None,724.8034617,208,365079.3417,357374.4032,358141.5895,358908.5003,359658.9947,360426.6104,361193.7637,361960.9048,351269.8891,352037.434,352804.4558,353571.6589,354322.0561,355089.4249,355856.2791,356623.9394,361970.5911,Mapping
Mixed,Both,tile,33,m160tile.wav,None,724.3474396,208,365079.3417,357374.4032,358141.5895,358908.5003,359658.9947,360426.6104,361193.7637,361960.9048,365830.323,352037.434,352804.4558,353571.6589,354322.0561,355089.4249,355856.2791,356623.9394,365088.1669,Mapping
Mixed,Both,tile,33,m160jaw.wav,space,619.9205313,208,365079.3417,357374.4032,358141.5895,358908.5003,359658.9947,360426.6104,361193.7637,361960.9048,365830.323,366597.3284,352804.4558,353571.6589,354322.0561,355089.4249,355856.2791,356623.9394,365840.0958,Mapping
Mixed,Both,tile,33,m150depth.wav,None,732.3978534,208,365079.3417,357374.4032,358141.5895,358908.5003,359658.9947,360426.6104,361193.7637,361960.9048,365830.323,366597.3284,367364.5883,353571.6589,354322.0561,355089.4249,355856.2791,356623.9394,366606.238,Mapping
Mixed,Both,tile,33,m150dime.wav,None,728.5391344,208,365079.3417,357374.4032,358141.5895,358908.5003,359658.9947,360426.6104,361193.7637,361960.9048,365830.323,366597.3284,367364.5883,368132.1855,354322.0561,355089.4249,355856.2791,356623.9394,367373.5696,Mapping
Mixed,Both,tile,33,m160tile.wav,None,724.2868431,208,365079.3417,357374.4032,358141.5895,358908.5003,359658.9947,360426.6104,361193.7637,361960.9048,365830.323,366597.3284,367364.5883,368132.1855,368899.1941,355089.4249,355856.2791,356623.9394,368141.5864,Mapping
Mixed,Both,tile,33,m150depth.wav,space,399.5400211,208,365079.3417,357374.4032,358141.5895,358908.5003,359658.9947,360426.6104,361193.7637,361960.9048,365830.323,366597.3284,367364.5883,368132.1855,368899.1941,369649.5499,355856.2791,356623.9394,368908.4125,Mapping
Mixed,Both,tile,33,m160park.wav,None,733.3426699,208,365079.3417,357374.4032,358141.5895,358908.5003,359658.9947,360426.6104,361193.7637,361960.9048,365830.323,366597.3284,367364.5883,368132.1855,368899.1941,369649.5499,370417.1369,356623.9394,369658.483,Mapping
Mixed,Both,tile,33,m150lash.wav,None,728.6266275,208,365079.3417,357374.4032,358141.5895,358908.5003,359658.9947,360426.6104,361193.7637,361960.9048,365830.323,366597.3284,367364.5883,368132.1855,368899.1941,369649.5499,370417.1369,371184.4073,370426.6828,Mapping
Mixed,Both,tile,33,m160jaw.wav,None,724.8943569,208,365079.3417,371951.7241,358141.5895,358908.5003,359658.9947,360426.6104,361193.7637,361960.9048,365830.323,366597.3284,367364.5883,368132.1855,368899.1941,369649.5499,370417.1369,371184.4073,371194.0091,Mapping
Mixed,Both,tile,33,m160done.wav,None,721.5417447,208,365079.3417,371951.7241,372702.0846,358908.5003,359658.9947,360426.6104,361193.7637,361960.9048,365830.323,366597.3284,367364.5883,368132.1855,368899.1941,369649.5499,370417.1369,371184.4073,371961.0245,Mapping
Mixed,Both,tile,33,m150cling.wav,None,734.6009826,208,365079.3417,371951.7241,372702.0846,373469.2409,359658.9947,360426.6104,361193.7637,361960.9048,365830.323,366597.3284,367364.5883,368132.1855,368899.1941,369649.5499,370417.1369,371184.4073,372711.4938,Mapping
Mixed,Both,tile,33,m150tile.wav,None,730.9831036,208,365079.3417,371951.7241,372702.0846,373469.2409,374236.7964,360426.6104,361193.7637,361960.9048,365830.323,366597.3284,367364.5883,368132.1855,368899.1941,369649.5499,370417.1369,371184.4073,373478.7525,Mapping
Mixed,Both,tile,33,m150gnash.wav,space,685.3274023,208,365079.3417,371951.7241,372702.0846,373469.2409,374236.7964,375003.8368,361193.7637,361960.9048,365830.323,366597.3284,367364.5883,368132.1855,368899.1941,369649.5499,370417.1369,371184.4073,374246.3954,Mapping
Mixed,Both,tile,33,m150tile.wav,None,722.3468171,208,365079.3417,371951.7241,372702.0846,373469.2409,374236.7964,375003.8368,375754.0111,361960.9048,365830.323,366597.3284,367364.5883,368132.1855,368899.1941,369649.5499,370417.1369,371184.4073,375013.3072,Mapping
Mixed,Both,tile,33,m160lash.wav,space,647.984908,208,365079.3417,371951.7241,372702.0846,373469.2409,374236.7964,375003.8368,375754.0111,376521.6903,365830.323,366597.3284,367364.5883,368132.1855,368899.1941,369649.5499,370417.1369,371184.4073,375763.6686,Mapping
Mixed,Both,cave,19,m160cad.wav,None,730.5147145,208,379640.3216,371951.7241,372702.0846,373469.2409,374236.7964,375003.8368,375754.0111,376521.6903,365830.323,366597.3284,367364.5883,368132.1855,368899.1941,369649.5499,370417.1369,371184.4073,376531.2108,Mapping
Mixed,Both,cave,19,m160done.wav,None,735.9919269,208,379640.3216,371951.7241,372702.0846,373469.2409,374236.7964,375003.8368,375754.0111,376521.6903,380407.4389,366597.3284,367364.5883,368132.1855,368899.1941,369649.5499,370417.1369,371184.4073,379649.5644,Mapping
Mixed,Both,cave,19,m150cave.wav,None,733.0059865,208,379640.3216,371951.7241,372702.0846,373469.2409,374236.7964,375003.8368,375754.0111,376521.6903,380407.4389,381174.6753,367364.5883,368132.1855,368899.1941,369649.5499,370417.1369,371184.4073,380416.2128,Mapping
Mixed,Both,cave,19,m160lash.wav,space,604.1523675,208,379640.3216,371951.7241,372702.0846,373469.2409,374236.7964,375003.8368,375754.0111,376521.6903,380407.4389,381174.6753,381942.1755,368132.1855,368899.1941,369649.5499,370417.1369,371184.4073,381183.2993,Mapping
Mixed,Both,cave,19,m160cave.wav,None,722.77625,208,379640.3216,371951.7241,372702.0846,373469.2409,374236.7964,375003.8368,375754.0111,376521.6903,380407.4389,381174.6753,381942.1755,382692.7205,368899.1941,369649.5499,370417.1369,371184.4073,381952.0024,Mapping
Mixed,Both,cave,19,m160bluff.wav,space,557.2989509,208,379640.3216,371951.7241,372702.0846,373469.2409,374236.7964,375003.8368,375754.0111,376521.6903,380407.4389,381174.6753,381942.1755,382692.7205,383459.7365,369649.5499,370417.1369,371184.4073,382702.1297,Mapping
Mixed,Both,cave,19,m150bluff.wav,None,731.4576758,208,379640.3216,371951.7241,372702.0846,373469.2409,374236.7964,375003.8368,375754.0111,376521.6903,380407.4389,381174.6753,381942.1755,382692.7205,383459.7365,384227.2669,370417.1369,371184.4073,383469.0533,Mapping
Mixed,Both,cave,19,m160jaw.wav,None,727.3525484,208,379640.3216,371951.7241,372702.0846,373469.2409,374236.7964,375003.8368,375754.0111,376521.6903,380407.4389,381174.6753,381942.1755,382692.7205,383459.7365,384227.2669,384994.0427,371184.4073,384236.9163,Mapping
Mixed,Both,cave,19,m160priest.wav,None,725.0968628,208,379640.3216,371951.7241,372702.0846,373469.2409,374236.7964,375003.8368,375754.0111,376521.6903,380407.4389,381174.6753,381942.1755,382692.7205,383459.7365,384227.2669,384994.0427,385761.4744,385002.7878,Mapping
Mixed,Both,cave,19,m150ball.wav,None,720.9181534,208,379640.3216,386512.3327,372702.0846,373469.2409,374236.7964,375003.8368,375754.0111,376521.6903,380407.4389,381174.6753,381942.1755,382692.7205,383459.7365,384227.2669,384994.0427,385761.4744,385770.6233,Mapping
Mixed,Both,cave,19,m150jaw.wav,None,733.2530115,208,379640.3216,386512.3327,387279.3301,373469.2409,374236.7964,375003.8368,375754.0111,376521.6903,380407.4389,381174.6753,381942.1755,382692.7205,383459.7365,384227.2669,384994.0427,385761.4744,386521.843,Mapping
Mixed,Both,cave,19,m160cave.wav,None,729.8370199,208,379640.3216,386512.3327,387279.3301,388046.5603,374236.7964,375003.8368,375754.0111,376521.6903,380407.4389,381174.6753,381942.1755,382692.7205,383459.7365,384227.2669,384994.0427,385761.4744,387289.0389,Mapping
Mixed,Both,cave,19,m150tile.wav,space,403.2886773,208,379640.3216,386512.3327,387279.3301,388046.5603,388813.7584,375003.8368,375754.0111,376521.6903,380407.4389,381174.6753,381942.1755,382692.7205,383459.7365,384227.2669,384994.0427,385761.4744,388055.9269,Mapping
Mixed,Both,cave,19,m150cave.wav,None,721.8917217,208,379640.3216,386512.3327,387279.3301,388046.5603,388813.7584,389564.4042,375754.0111,376521.6903,380407.4389,381174.6753,381942.1755,382692.7205,383459.7365,384227.2669,384994.0427,385761.4744,388822.8102,Mapping
Mixed,Both,cave,19,m150greet.wav,space,253.3136578,208,379640.3216,386512.3327,387279.3301,388046.5603,388813.7584,389564.4042,390331.6573,376521.6903,380407.4389,381174.6753,381942.1755,382692.7205,383459.7365,384227.2669,384994.0427,385761.4744,389573.8917,Mapping
Mixed,Both,cave,19,m150greet.wav,None,729.8008474,208,379640.3216,386512.3327,387279.3301,388046.5603,388813.7584,389564.4042,390331.6573,391098.7725,380407.4389,381174.6753,381942.1755,382692.7205,383459.7365,384227.2669,384994.0427,385761.4744,390341.3751,Mapping
Mixed,Both,ball,12,m150tile.wav,None,726.4200989,208,394200.7781,386512.3327,387279.3301,388046.5603,388813.7584,389564.4042,390331.6573,391098.7725,380407.4389,381174.6753,381942.1755,382692.7205,383459.7365,384227.2669,384994.0427,385761.4744,391108.3382,Mapping
Mixed,Both,ball,12,m160lash.wav,None,735.83085,208,394200.7781,386512.3327,387279.3301,388046.5603,388813.7584,389564.4042,390331.6573,391098.7725,394968.494,381174.6753,381942.1755,382692.7205,383459.7365,384227.2669,384994.0427,385761.4744,394210.1644,Mapping
Mixed,Both,ball,12,m150ball.wav,None,731.7699352,208,394200.7781,386512.3327,387279.3301,388046.5603,388813.7584,389564.4042,390331.6573,391098.7725,394968.494,395735.5186,381942.1755,382692.7205,383459.7365,384227.2669,384994.0427,385761.4744,394977.9622,Mapping
Mixed,Both,ball,12,m150depth.wav,space,426.3637066,208,394200.7781,386512.3327,387279.3301,388046.5603,388813.7584,389564.4042,390331.6573,391098.7725,394968.494,395735.5186,396502.7927,382692.7205,383459.7365,384227.2669,384994.0427,385761.4744,395744.5967,Mapping
Mixed,Both,ball,12,m160park.wav,None,723.3039988,208,394200.7781,386512.3327,387279.3301,388046.5603,388813.7584,389564.4042,390331.6573,391098.7725,394968.494,395735.5186,396502.7927,397269.796,383459.7365,384227.2669,384994.0427,385761.4744,396512.6654,Mapping
Mixed,Both,ball,12,m160cling.wav,None,721.1478651,208,394200.7781,386512.3327,387279.3301,388046.5603,388813.7584,389564.4042,390331.6573,391098.7725,394968.494,395735.5186,396502.7927,397269.796,398020.4898,384227.2669,384994.0427,385761.4744,397278.6571,Mapping
Mixed,Both,ball,12,m150dime.wav,None,733.63607,208,394200.7781,386512.3327,387279.3301,388046.5603,388813.7584,389564.4042,390331.6573,391098.7725,394968.494,395735.5186,396502.7927,397269.796,398020.4898,398787.8511,384994.0427,385761.4744,398029.8572,Mapping
Mixed,Both,ball,12,m160cave.wav,None,729.9486287,208,394200.7781,386512.3327,387279.3301,388046.5603,388813.7584,389564.4042,390331.6573,391098.7725,394968.494,395735.5186,396502.7927,397269.796,398020.4898,398787.8511,399555.3914,385761.4744,398797.5905,Mapping
Mixed,Both,ball,12,m160ball.wav,None,726.5926143,208,394200.7781,386512.3327,387279.3301,388046.5603,388813.7584,389564.4042,390331.6573,391098.7725,394968.494,395735.5186,396502.7927,397269.796,398020.4898,398787.8511,399555.3914,400321.9186,399564.5993,Mapping
Mixed,Both,ball,12,m160depth.wav,space,535.7607938,208,394200.7781,401072.3845,387279.3301,388046.5603,388813.7584,389564.4042,390331.6573,391098.7725,394968.494,395735.5186,396502.7927,397269.796,398020.4898,398787.8511,399555.3914,400321.9186,400331.0569,Mapping
Mixed,Both,ball,12,m150gnash.wav,None,735.7192412,208,394200.7781,401072.3845,401839.5788,388046.5603,388813.7584,389564.4042,390331.6573,391098.7725,394968.494,395735.5186,396502.7927,397269.796,398020.4898,398787.8511,399555.3914,400321.9186,401081.717,Mapping
Mixed,Both,ball,12,m150ball.wav,None,732.7023838,208,394200.7781,401072.3845,401839.5788,402607.4373,388813.7584,389564.4042,390331.6573,391098.7725,394968.494,395735.5186,396502.7927,397269.796,398020.4898,398787.8511,399555.3914,400321.9186,401848.3583,Mapping
Mixed,Both,ball,12,m150cling.wav,space,377.8723218,208,394200.7781,401072.3845,401839.5788,402607.4373,403374.3673,389564.4042,390331.6573,391098.7725,394968.494,395735.5186,396502.7927,397269.796,398020.4898,398787.8511,399555.3914,400321.9186,402616.7973,Mapping
Mixed,Both,ball,12,m150bluff.wav,None,722.9799926,208,394200.7781,401072.3845,401839.5788,402607.4373,403374.3673,404125.1526,390331.6573,391098.7725,394968.494,395735.5186,396502.7927,397269.796,398020.4898,398787.8511,399555.3914,400321.9186,403384.244,Mapping
Mixed,Both,ball,12,m160ball.wav,None,736.1727897,208,394200.7781,401072.3845,401839.5788,402607.4373,403374.3673,404125.1526,404892.0844,391098.7725,394968.494,395735.5186,396502.7927,397269.796,398020.4898,398787.8511,399555.3914,400321.9186,404134.6137,Mapping
Mixed,Both,ball,12,m160tile.wav,space,397.2694948,208,394200.7781,401072.3845,401839.5788,402607.4373,403374.3673,404125.1526,404892.0844,405659.4423,394968.494,395735.5186,396502.7927,397269.796,398020.4898,398787.8511,399555.3914,400321.9186,404901.3545,Mapping
Mixed,Both,done,42,m160cling.wav,None,728.1594761,208,408761.6228,401072.3845,401839.5788,402607.4373,403374.3673,404125.1526,404892.0844,405659.4423,394968.494,395735.5186,396502.7927,397269.796,398020.4898,398787.8511,399555.3914,400321.9186,405669.0244,Mapping
Mixed,Both,done,42,m150bluff.wav,None,735.2205543,208,408761.6228,401072.3845,401839.5788,402607.4373,403374.3673,404125.1526,404892.0844,405659.4423,409528.4932,395735.5186,396502.7927,397269.796,398020.4898,398787.8511,399555.3914,400321.9186,408771.1254,Mapping
Mixed,Both,done,42,m150depth.wav,None,732.4123858,208,408761.6228,401072.3845,401839.5788,402607.4373,403374.3673,404125.1526,404892.0844,405659.4423,409528.4932,410295.9098,396502.7927,397269.796,398020.4898,398787.8511,399555.3914,400321.9186,409537.6492,Mapping
Mixed,Both,done,42,m160done.wav,None,734.2884131,208,408761.6228,401072.3845,401839.5788,402607.4373,403374.3673,404125.1526,404892.0844,405659.4423,409528.4932,410295.9098,411063.371,397269.796,398020.4898,398787.8511,399555.3914,400321.9186,410299.6539,Mapping
Mixed,Both,done,42,m150reek.wav,space,537.5381978,208,408761.6228,401072.3845,401839.5788,402607.4373,403374.3673,404125.1526,404892.0844,405659.4423,409528.4932,410295.9098,411063.371,411830.7366,398020.4898,398787.8511,399555.3914,400321.9186,411072.8702,Mapping
Mixed,Both,done,42,m150done.wav,None,719.3383081,208,408761.6228,401072.3845,401839.5788,402607.4373,403374.3673,404125.1526,404892.0844,405659.4423,409528.4932,410295.9098,411063.371,411830.7366,412580.9531,398787.8511,399555.3914,400321.9186,411840.5255,Mapping
Mixed,Both,done,42,m160reek.wav,space,412.3509964,208,408761.6228,401072.3845,401839.5788,402607.4373,403374.3673,404125.1526,404892.0844,405659.4423,409528.4932,410295.9098,411063.371,411830.7366,412580.9531,413347.986,399555.3914,400321.9186,412589.9931,Mapping
Mixed,Both,done,42,m160done.wav,None,729.2140471,208,408761.6228,401072.3845,401839.5788,402607.4373,403374.3673,404125.1526,404892.0844,405659.4423,409528.4932,410295.9098,411063.371,411830.7366,412580.9531,413347.986,414115.1819,400321.9186,413357.0539,Mapping
Mixed,Both,done,42,m150reek.wav,space,334.1031605,208,408761.6228,401072.3845,401839.5788,402607.4373,403374.3673,404125.1526,404892.0844,405659.4423,409528.4932,410295.9098,411063.371,411830.7366,412580.9531,413347.986,414115.1819,414882.7083,414124.1892,Mapping
Mixed,Both,done,42,m150done.wav,None,720.0821638,208,408761.6228,415633.0218,401839.5788,402607.4373,403374.3673,404125.1526,404892.0844,405659.4423,409528.4932,410295.9098,411063.371,411830.7366,412580.9531,413347.986,414115.1819,414882.7083,414892.3602,Mapping
Mixed,Both,done,42,m160priest.wav,space,384.4050318,208,408761.6228,415633.0218,416400.6144,402607.4373,403374.3673,404125.1526,404892.0844,405659.4423,409528.4932,410295.9098,411063.371,411830.7366,412580.9531,413347.986,414115.1819,414882.7083,415641.788,Mapping
Mixed,Both,done,42,m150dime.wav,None,728.8891114,208,408761.6228,415633.0218,416400.6144,417167.7101,403374.3673,404125.1526,404892.0844,405659.4423,409528.4932,410295.9098,411063.371,411830.7366,412580.9531,413347.986,414115.1819,414882.7083,416409.8931,Mapping
Mixed,Both,done,42,m160cad.wav,space,400.6966166,208,408761.6228,415633.0218,416400.6144,417167.7101,417935.1818,404125.1526,404892.0844,405659.4423,409528.4932,410295.9098,411063.371,411830.7366,412580.9531,413347.986,414115.1819,414882.7083,417177.4727,Mapping
Mixed,Both,done,42,m160depth.wav,None,720.0592868,208,408761.6228,415633.0218,416400.6144,417167.7101,417935.1818,418685.1867,404892.0844,405659.4423,409528.4932,410295.9098,411063.371,411830.7366,412580.9531,413347.986,414115.1819,414882.7083,417944.7892,Mapping
Mixed,Both,done,42,m150reek.wav,None,734.8211091,208,408761.6228,415633.0218,416400.6144,417167.7101,417935.1818,418685.1867,419452.3693,405659.4423,409528.4932,410295.9098,411063.371,411830.7366,412580.9531,413347.986,414115.1819,414882.7083,418693.9442,Mapping
Mixed,Both,done,42,m160romp.wav,None,731.1797338,208,408761.6228,415633.0218,416400.6144,417167.7101,417935.1818,418685.1867,419452.3693,420219.6428,409528.4932,410295.9098,411063.371,411830.7366,412580.9531,413347.986,414115.1819,414882.7083,419461.3426,Mapping
Mixed,Both,done,47,m150bluff.wav,None,727.8237203,208,423322.0803,415633.0218,416400.6144,417167.7101,417935.1818,418685.1867,419452.3693,420219.6428,409528.4932,410295.9098,411063.371,411830.7366,412580.9531,413347.986,414115.1819,414882.7083,420228.8013,Mapping
Mixed,Both,done,47,m160done.wav,None,735.3661722,208,423322.0803,415633.0218,416400.6144,417167.7101,417935.1818,418685.1867,419452.3693,420219.6428,424089.4901,410295.9098,411063.371,411830.7366,412580.9531,413347.986,414115.1819,414882.7083,423331.5433,Mapping
Mixed,Both,done,47,m150greet.wav,None,732.0333458,208,423322.0803,415633.0218,416400.6144,417167.7101,417935.1818,418685.1867,419452.3693,420219.6428,424089.4901,424856.8097,411063.371,411830.7366,412580.9531,413347.986,414115.1819,414882.7083,424098.6529,Mapping
Mixed,Both,done,47,m160dime.wav,space,7.771854289,208,423322.0803,415633.0218,416400.6144,417167.7101,417935.1818,418685.1867,419452.3693,420219.6428,424089.4901,424856.8097,425623.5876,411830.7366,412580.9531,413347.986,414115.1819,414882.7083,424866.0986,Mapping
Mixed,Both,done,47,m150ball.wav,space,345.5278296,208,423322.0803,415633.0218,416400.6144,417167.7101,417935.1818,418685.1867,419452.3693,420219.6428,424089.4901,424856.8097,425623.5876,426374.5519,412580.9531,413347.986,414115.1819,414882.7083,425632.345,Mapping
Mixed,Both,done,47,m160knife.wav,None,734.9441582,208,423322.0803,415633.0218,416400.6144,417167.7101,417935.1818,418685.1867,419452.3693,420219.6428,424089.4901,424856.8097,425623.5876,426374.5519,427141.736,413347.986,414115.1819,414882.7083,426384.2331,Mapping
Mixed,Both,done,47,m160park.wav,None,731.8379516,208,423322.0803,415633.0218,416400.6144,417167.7101,417935.1818,418685.1867,419452.3693,420219.6428,424089.4901,424856.8097,425623.5876,426374.5519,427141.736,427908.6512,414115.1819,414882.7083,427151.3465,Mapping
Mixed,Both,done,47,m160bluff.wav,None,729.2007525,208,423322.0803,415633.0218,416400.6144,417167.7101,417935.1818,418685.1867,419452.3693,420219.6428,424089.4901,424856.8097,425623.5876,426374.5519,427141.736,427908.6512,428675.6273,414882.7083,427917.8866,Mapping
Mixed,Both,done,47,m150done.wav,None,729.3803785,208,423322.0803,415633.0218,416400.6144,417167.7101,417935.1818,418685.1867,419452.3693,420219.6428,424089.4901,424856.8097,425623.5876,426374.5519,427141.736,427908.6512,428675.6273,429443.2999,428684.5121,Mapping
Mixed,Both,done,47,m160tile.wav,space,613.0786529,208,423322.0803,430210.1471,416400.6144,417167.7101,417935.1818,418685.1867,419452.3693,420219.6428,424089.4901,424856.8097,425623.5876,426374.5519,427141.736,427908.6512,428675.6273,429443.2999,429452.6872,Mapping
Mixed,Both,done,47,m150done.wav,None,721.0010104,208,423322.0803,430210.1471,430960.8207,417167.7101,417935.1818,418685.1867,419452.3693,420219.6428,424089.4901,424856.8097,425623.5876,426374.5519,427141.736,427908.6512,428675.6273,429443.2999,430219.2759,Mapping
Mixed,Both,done,47,m150cave.wav,space,400.0625135,208,423322.0803,430210.1471,430960.8207,431727.9276,417935.1818,418685.1867,419452.3693,420219.6428,424089.4901,424856.8097,425623.5876,426374.5519,427141.736,427908.6512,428675.6273,429443.2999,430969.6045,Mapping
Mixed,Both,done,47,m160dime.wav,None,729.746433,208,423322.0803,430210.1471,430960.8207,431727.9276,432495.6015,418685.1867,419452.3693,420219.6428,424089.4901,424856.8097,425623.5876,426374.5519,427141.736,427908.6512,428675.6273,429443.2999,431736.7989,Mapping
Mixed,Both,done,47,m150depth.wav,None,725.3605826,208,423322.0803,430210.1471,430960.8207,431727.9276,432495.6015,433262.875,419452.3693,420219.6428,424089.4901,424856.8097,425623.5876,426374.5519,427141.736,427908.6512,428675.6273,429443.2999,432504.9368,Mapping
Mixed,Both,done,47,m160done.wav,None,721.5228854,208,423322.0803,430210.1471,430960.8207,431727.9276,432495.6015,433262.875,434013.0923,420219.6428,424089.4901,424856.8097,425623.5876,426374.5519,427141.736,427908.6512,428675.6273,429443.2999,433272.7077,Mapping
Mixed,Both,done,47,m150cad.wav,space,483.2094191,208,423322.0803,430210.1471,430960.8207,431727.9276,432495.6015,433262.875,434013.0923,434780.6441,424089.4901,424856.8097,425623.5876,426374.5519,427141.736,427908.6512,428675.6273,429443.2999,434022.3714,Mapping
Mixed,Both,ball,1,m160done.wav,None,730.4615369,208,437899.4204,430210.1471,430960.8207,431727.9276,432495.6015,433262.875,434013.0923,434780.6441,424089.4901,424856.8097,425623.5876,426374.5519,427141.736,427908.6512,428675.6273,429443.2999,434790.0319,Mapping
Mixed,Both,ball,1,m150cave.wav,None,735.9511172,208,437899.4204,430210.1471,430960.8207,431727.9276,432495.6015,433262.875,434013.0923,434780.6441,438666.7634,424856.8097,425623.5876,426374.5519,427141.736,427908.6512,428675.6273,429443.2999,437908.5686,Mapping
Mixed,Both,ball,1,m150ball.wav,None,732.1928767,208,437899.4204,430210.1471,430960.8207,431727.9276,432495.6015,433262.875,434013.0923,434780.6441,438666.7634,439433.96,425623.5876,426374.5519,427141.736,427908.6512,428675.6273,429443.2999,438676.2456,Mapping
Mixed,Both,ball,1,m160lash.wav,space,493.7446127,208,437899.4204,430210.1471,430960.8207,431727.9276,432495.6015,433262.875,434013.0923,434780.6441,438666.7634,439433.96,440201.2152,426374.5519,427141.736,427908.6512,428675.6273,429443.2999,439443.627,Mapping
Mixed,Both,ball,1,m150greet.wav,None,724.1573026,208,437899.4204,430210.1471,430960.8207,431727.9276,432495.6015,433262.875,434013.0923,434780.6441,438666.7634,439433.96,440201.2152,440968.0463,427141.736,427908.6512,428675.6273,429443.2999,440210.6974,Mapping
Mixed,Both,ball,1,m160ball.wav,None,722.0815513,208,437899.4204,430210.1471,430960.8207,431727.9276,432495.6015,433262.875,434013.0923,434780.6441,438666.7634,439433.96,440201.2152,440968.0463,441718.9045,427908.6512,428675.6273,429443.2999,440976.7682,Mapping
Mixed,Both,ball,1,m150cad.wav,space,369.3059059,208,437899.4204,430210.1471,430960.8207,431727.9276,432495.6015,433262.875,434013.0923,434780.6441,438666.7634,439433.96,440201.2152,440968.0463,441718.9045,442486.2334,428675.6273,429443.2999,441727.9792,Mapping
Mixed,Both,ball,1,m150ball.wav,None,729.5123935,208,437899.4204,430210.1471,430960.8207,431727.9276,432495.6015,433262.875,434013.0923,434780.6441,438666.7634,439433.96,440201.2152,440968.0463,441718.9045,442486.2334,443253.4358,429443.2999,442495.4237,Mapping
Mixed,Both,ball,1,m160cave.wav,space,441.9605928,208,437899.4204,430210.1471,430960.8207,431727.9276,432495.6015,433262.875,434013.0923,434780.6441,438666.7634,439433.96,440201.2152,440968.0463,441718.9045,442486.2334,443253.4358,444020.2922,443263.2525,Mapping
Mixed,Both,ball,1,m160romp.wav,None,722.2042903,208,437899.4204,444771.1486,430960.8207,431727.9276,432495.6015,433262.875,434013.0923,434780.6441,438666.7634,439433.96,440201.2152,440968.0463,441718.9045,442486.2334,443253.4358,444020.2922,444028.9622,Mapping
Mixed,Both,ball,1,m150bluff.wav,None,734.8971646,208,437899.4204,444771.1486,445538.4843,431727.9276,432495.6015,433262.875,434013.0923,434780.6441,438666.7634,439433.96,440201.2152,440968.0463,441718.9045,442486.2334,443253.4358,444020.2922,444780.202,Mapping
Mixed,Both,ball,1,m150cave.wav,None,731.3859491,208,437899.4204,444771.1486,445538.4843,446305.6477,432495.6015,433262.875,434013.0923,434780.6441,438666.7634,439433.96,440201.2152,440968.0463,441718.9045,442486.2334,443253.4358,444020.2922,445547.84,Mapping
Mixed,Both,ball,1,m160ball.wav,None,727.9702658,208,437899.4204,444771.1486,445538.4843,446305.6477,447072.3959,433262.875,434013.0923,434780.6441,438666.7634,439433.96,440201.2152,440968.0463,441718.9045,442486.2334,443253.4358,444020.2922,446315.2105,Mapping
Mixed,Both,ball,1,m160gnash.wav,space,391.662431,208,437899.4204,444771.1486,445538.4843,446305.6477,447072.3959,447840.1935,434013.0923,434780.6441,438666.7634,439433.96,440201.2152,440968.0463,441718.9045,442486.2334,443253.4358,444020.2922,447081.3936,Mapping
Mixed,Both,ball,1,m160park.wav,None,719.645001,208,437899.4204,444771.1486,445538.4843,446305.6477,447072.3959,447840.1935,448590.6529,434780.6441,438666.7634,439433.96,440201.2152,440968.0463,441718.9045,442486.2334,443253.4358,444020.2922,447849.8246,Mapping
Mixed,Both,ball,1,m150romp.wav,None,733.5955687,208,437899.4204,444771.1486,445538.4843,446305.6477,447072.3959,447840.1935,448590.6529,449357.5847,438666.7634,439433.96,440201.2152,440968.0463,441718.9045,442486.2334,443253.4358,444020.2922,448599.6889,Mapping
Mixed,Both,tile,35,m150park.wav,None,730.220696,208,452476.4826,444771.1486,445538.4843,446305.6477,447072.3959,447840.1935,448590.6529,449357.5847,438666.7634,439433.96,440201.2152,440968.0463,441718.9045,442486.2334,443253.4358,444020.2922,449367.1371,Mapping
Mixed,Both,tile,35,m150cling.wav,None,735.8487817,208,452476.4826,444771.1486,445538.4843,446305.6477,447072.3959,447840.1935,448590.6529,449357.5847,453243.6726,439433.96,440201.2152,440968.0463,441718.9045,442486.2334,443253.4358,444020.2922,452486.1502,Mapping
Mixed,Both,tile,35,m150bluff.wav,None,733.3893543,208,452476.4826,444771.1486,445538.4843,446305.6477,447072.3959,447840.1935,448590.6529,449357.5847,453243.6726,454011.2806,440201.2152,440968.0463,441718.9045,442486.2334,443253.4358,444020.2922,453252.7194,Mapping
Mixed,Both,tile,35,m150tile.wav,None,729.671305,208,452476.4826,444771.1486,445538.4843,446305.6477,447072.3959,447840.1935,448590.6529,449357.5847,453243.6726,454011.2806,454778.3763,440968.0463,441718.9045,442486.2334,443253.4358,444020.2922,454020.5881,Mapping
Mixed,Both,tile,35,m150done.wav,space,525.2763033,208,452476.4826,444771.1486,445538.4843,446305.6477,447072.3959,447840.1935,448590.6529,449357.5847,453243.6726,454011.2806,454778.3763,455545.84,441718.9045,442486.2334,443253.4358,444020.2922,454787.4986,Mapping
Mixed,Both,tile,35,m160dime.wav,None,722.096391,208,452476.4826,444771.1486,445538.4843,446305.6477,447072.3959,447840.1935,448590.6529,449357.5847,453243.6726,454011.2806,454778.3763,455545.84,456295.7685,442486.2334,443253.4358,444020.2922,455555.0201,Mapping
Mixed,Both,tile,35,m160done.wav,None,736.0951891,208,452476.4826,444771.1486,445538.4843,446305.6477,447072.3959,447840.1935,448590.6529,449357.5847,453243.6726,454011.2806,454778.3763,455545.84,456295.7685,457063.2977,443253.4358,444020.2922,456304.9935,Mapping
Mixed,Both,tile,35,m150greet.wav,None,732.6454977,208,452476.4826,444771.1486,445538.4843,446305.6477,447072.3959,447840.1935,448590.6529,449357.5847,453243.6726,454011.2806,454778.3763,455545.84,456295.7685,457063.2977,457830.7456,444020.2922,457072.549,Mapping
Mixed,Both,tile,35,m160tile.wav,None,729.3794518,208,452476.4826,444771.1486,445538.4843,446305.6477,447072.3959,447840.1935,448590.6529,449357.5847,453243.6726,454011.2806,454778.3763,455545.84,456295.7685,457063.2977,457830.7456,458597.4895,457839.9619,Mapping
Mixed,Both,tile,35,m160priest.wav,space,594.4352318,208,452476.4826,459364.789,445538.4843,446305.6477,447072.3959,447840.1935,448590.6529,449357.5847,453243.6726,454011.2806,454778.3763,455545.84,456295.7685,457063.2977,457830.7456,458597.4895,458606.2324,Mapping
Mixed,Both,tile,35,m160tile.wav,None,722.3415608,208,452476.4826,459364.789,460115.5065,446305.6477,447072.3959,447840.1935,448590.6529,449357.5847,453243.6726,454011.2806,454778.3763,455545.84,456295.7685,457063.2977,457830.7456,458597.4895,459373.7211,Mapping
Mixed,Both,tile,35,m160jolt.wav,None,735.0239232,208,452476.4826,459364.789,460115.5065,460882.4836,447072.3959,447840.1935,448590.6529,449357.5847,453243.6726,454011.2806,454778.3763,455545.84,456295.7685,457063.2977,457830.7456,458597.4895,460124.9887,Mapping
Mixed,Both,tile,35,m160gnash.wav,None,733.5767094,208,452476.4826,459364.789,460115.5065,460882.4836,461649.694,447840.1935,448590.6529,449357.5847,453243.6726,454011.2806,454778.3763,455545.84,456295.7685,457063.2977,457830.7456,458597.4895,460891.199,Mapping
Mixed,Both,tile,35,m150tile.wav,None,730.4531904,208,452476.4826,459364.789,460115.5065,460882.4836,461649.694,462417.1412,448590.6529,449357.5847,453243.6726,454011.2806,454778.3763,455545.84,456295.7685,457063.2977,457830.7456,458597.4895,461658.4372,Mapping
Mixed,Both,tile,35,m150done.wav,space,510.3008449,208,452476.4826,459364.789,460115.5065,460882.4836,461649.694,462417.1412,463184.6608,449357.5847,453243.6726,454011.2806,454778.3763,455545.84,456295.7685,457063.2977,457830.7456,458597.4895,462426.2014,Mapping
Mixed,Both,tile,35,m160dime.wav,None,721.0646989,208,452476.4826,459364.789,460115.5065,460882.4836,461649.694,462417.1412,463184.6608,463934.8037,453243.6726,454011.2806,454778.3763,455545.84,456295.7685,457063.2977,457830.7456,458597.4895,463194.6374,Mapping
Mixed,Both,done,46,m150jaw.wav,None,735.679049,208,467053.9151,459364.789,460115.5065,460882.4836,461649.694,462417.1412,463184.6608,463934.8037,453243.6726,454011.2806,454778.3763,455545.84,456295.7685,457063.2977,457830.7456,458597.4895,463944.2741,Mapping
Mixed,Both,done,46,m160lash.wav,None,735.0625694,208,467053.9151,459364.789,460115.5065,460882.4836,461649.694,462417.1412,463184.6608,463934.8037,467821.3852,454011.2806,454778.3763,455545.84,456295.7685,457063.2977,457830.7456,458597.4895,467063.1435,Mapping
Mixed,Both,done,46,m150cad.wav,None,731.246205,208,467053.9151,459364.789,460115.5065,460882.4836,461649.694,462417.1412,463184.6608,463934.8037,467821.3852,468588.5147,454778.3763,455545.84,456295.7685,457063.2977,457830.7456,458597.4895,467831.0068,Mapping
Mixed,Both,done,46,m150tile.wav,None,727.9708842,208,467053.9151,459364.789,460115.5065,460882.4836,461649.694,462417.1412,463184.6608,463934.8037,467821.3852,468588.5147,469355.6435,455545.84,456295.7685,457063.2977,457830.7456,458597.4895,468598.4012,Mapping
Mixed,Both,done,46,m160cad.wav,space,538.8187692,208,467053.9151,459364.789,460115.5065,460882.4836,461649.694,462417.1412,463184.6608,463934.8037,467821.3852,468588.5147,469355.6435,470122.84,456295.7685,457063.2977,457830.7456,458597.4895,469365.5062,Mapping
Mixed,Both,done,46,m160reek.wav,None,720.831587,208,467053.9151,459364.789,460115.5065,460882.4836,461649.694,462417.1412,463184.6608,463934.8037,467821.3852,468588.5147,469355.6435,470122.84,470873.0836,457063.2977,457830.7456,458597.4895,470131.8464,Mapping
Mixed,Both,done,46,m160done.wav,None,734.9747662,208,467053.9151,459364.789,460115.5065,460882.4836,461649.694,462417.1412,463184.6608,463934.8037,467821.3852,468588.5147,469355.6435,470122.84,470873.0836,471640.7646,457830.7456,458597.4895,470881.8631,Mapping
Mixed,Both,done,46,m150depth.wav,space,518.2912797,208,467053.9151,459364.789,460115.5065,460882.4836,461649.694,462417.1412,463184.6608,463934.8037,467821.3852,468588.5147,469355.6435,470122.84,470873.0836,471640.7646,472407.8004,458597.4895,471649.9021,Mapping
Mixed,Both,done,46,m150done.wav,None,726.099493,208,467053.9151,459364.789,460115.5065,460882.4836,461649.694,462417.1412,463184.6608,463934.8037,467821.3852,468588.5147,469355.6435,470122.84,470873.0836,471640.7646,472407.8004,473175.29,472417.0868,Mapping
Mixed,Both,done,46,m160bluff.wav,space,543.276038,208,467053.9151,473925.4486,460115.5065,460882.4836,461649.694,462417.1412,463184.6608,463934.8037,467821.3852,468588.5147,469355.6435,470122.84,470873.0836,471640.7646,472407.8004,473175.29,473184.8893,Mapping
Mixed,Both,done,46,m150done.wav,None,734.6702358,208,467053.9151,473925.4486,474692.7416,460882.4836,461649.694,462417.1412,463184.6608,463934.8037,467821.3852,468588.5147,469355.6435,470122.84,470873.0836,471640.7646,472407.8004,473175.29,473935.1221,Mapping
Mixed,Both,done,46,m150reek.wav,space,489.8388991,208,467053.9151,473925.4486,474692.7416,475460.1069,461649.694,462417.1412,463184.6608,463934.8037,467821.3852,468588.5147,469355.6435,470122.84,470873.0836,471640.7646,472407.8004,473175.29,474702.2605,Mapping
Mixed,Both,done,46,m160lash.wav,None,728.5505729,208,467053.9151,473925.4486,474692.7416,475460.1069,476227.3216,462417.1412,463184.6608,463934.8037,467821.3852,468588.5147,469355.6435,470122.84,470873.0836,471640.7646,472407.8004,473175.29,475469.4712,Mapping
Mixed,Both,done,46,m160knife.wav,None,725.173845,208,467053.9151,473925.4486,474692.7416,475460.1069,476227.3216,476994.2656,463184.6608,463934.8037,467821.3852,468588.5147,469355.6435,470122.84,470873.0836,471640.7646,472407.8004,473175.29,476236.9401,Mapping
Mixed,Both,done,46,m160done.wav,None,722.7496617,208,467053.9151,473925.4486,474692.7416,475460.1069,476227.3216,476994.2656,477761.6089,463934.8037,467821.3852,468588.5147,469355.6435,470122.84,470873.0836,471640.7646,472407.8004,473175.29,477003.5863,Mapping
Mixed,Both,done,46,m150greet.wav,space,413.0166341,208,467053.9151,473925.4486,474692.7416,475460.1069,476227.3216,476994.2656,477761.6089,478512.3525,467821.3852,468588.5147,469355.6435,470122.84,470873.0836,471640.7646,472407.8004,473175.29,477770.99,Mapping
Mixed,Both,ball,5,m160bluff.wav,None,731.6110227,208,481630.9819,473925.4486,474692.7416,475460.1069,476227.3216,476994.2656,477761.6089,478512.3525,467821.3852,468588.5147,469355.6435,470122.84,470873.0836,471640.7646,472407.8004,473175.29,478522.0396,Mapping
Mixed,Both,ball,5,m150reek.wav,None,740.8508044,208,481630.9819,473925.4486,474692.7416,475460.1069,476227.3216,476994.2656,477761.6089,478512.3525,482398.4202,468588.5147,469355.6435,470122.84,470873.0836,471640.7646,472407.8004,473175.29,481635.0679,Mapping
Mixed,Both,ball,5,m150ball.wav,None,732.190094,208,481630.9819,473925.4486,474692.7416,475460.1069,476227.3216,476994.2656,477761.6089,478512.3525,482398.4202,483165.7611,469355.6435,470122.84,470873.0836,471640.7646,472407.8004,473175.29,482407.9284,Mapping
Mixed,Both,ball,5,m150jaw.wav,space,464.5103468,208,481630.9819,473925.4486,474692.7416,475460.1069,476227.3216,476994.2656,477761.6089,478512.3525,482398.4202,483165.7611,483932.9932,470122.84,470873.0836,471640.7646,472407.8004,473175.29,483175.2915,Mapping
Mixed,Both,ball,5,m150ball.wav,None,724.0435285,208,481630.9819,473925.4486,474692.7416,475460.1069,476227.3216,476994.2656,477761.6089,478512.3525,482398.4202,483165.7611,483932.9932,484700.2757,470873.0836,471640.7646,472407.8004,473175.29,483943.0034,Mapping
Mixed,Both,ball,5,m150cave.wav,space,273.8971068,208,481630.9819,473925.4486,474692.7416,475460.1069,476227.3216,476994.2656,477761.6089,478512.3525,482398.4202,483165.7611,483932.9932,484700.2757,485450.6977,471640.7646,472407.8004,473175.29,484709.8122,Mapping
Mixed,Both,ball,5,m160ball.wav,None,733.5934043,208,481630.9819,473925.4486,474692.7416,475460.1069,476227.3216,476994.2656,477761.6089,478512.3525,482398.4202,483165.7611,483932.9932,484700.2757,485450.6977,486217.5807,472407.8004,473175.29,485459.8914,Mapping
Mixed,Both,ball,5,m160park.wav,space,324.8336995,208,481630.9819,473925.4486,474692.7416,475460.1069,476227.3216,476994.2656,477761.6089,478512.3525,482398.4202,483165.7611,483932.9932,484700.2757,485450.6977,486217.5807,486985.2846,473175.29,486226.8118,Mapping
Mixed,Both,ball,5,m160ball.wav,None,725.0297731,208,481630.9819,473925.4486,474692.7416,475460.1069,476227.3216,476994.2656,477761.6089,478512.3525,482398.4202,483165.7611,483932.9932,484700.2757,485450.6977,486217.5807,486985.2846,487752.2603,486994.8635,Mapping
Mixed,Both,ball,5,m160depth.wav,space,333.8842699,208,481630.9819,488503.42,474692.7416,475460.1069,476227.3216,476994.2656,477761.6089,478512.3525,482398.4202,483165.7611,483932.9932,484700.2757,485450.6977,486217.5807,486985.2846,487752.2603,487761.7728,Mapping
Mixed,Both,ball,5,m150done.wav,None,733.4536612,208,481630.9819,488503.42,489270.094,475460.1069,476227.3216,476994.2656,477761.6089,478512.3525,482398.4202,483165.7611,483932.9932,484700.2757,485450.6977,486217.5807,486985.2846,487752.2603,488512.9396,Mapping
Mixed,Both,ball,5,m150dime.wav,None,731.3296804,208,481630.9819,488503.42,489270.094,490037.1165,476227.3216,476994.2656,477761.6089,478512.3525,482398.4202,483165.7611,483932.9932,484700.2757,485450.6977,486217.5807,486985.2846,487752.2603,489279.6288,Mapping
Mixed,Both,ball,5,m160reek.wav,None,729.5117751,208,481630.9819,488503.42,489270.094,490037.1165,490804.6463,476994.2656,477761.6089,478512.3525,482398.4202,483165.7611,483932.9932,484700.2757,485450.6977,486217.5807,486985.2846,487752.2603,490046.0202,Mapping
Mixed,Both,ball,5,m150cling.wav,None,725.4833216,208,481630.9819,488503.42,489270.094,490037.1165,490804.6463,491571.8425,477761.6089,478512.3525,482398.4202,483165.7611,483932.9932,484700.2757,485450.6977,486217.5807,486985.2846,487752.2603,490814.3127,Mapping
Mixed,Both,ball,5,m160dime.wav,None,722.9598956,208,481630.9819,488503.42,489270.094,490037.1165,490804.6463,491571.8425,492338.4309,478512.3525,482398.4202,483165.7611,483932.9932,484700.2757,485450.6977,486217.5807,486985.2846,487752.2603,491581.163,Mapping
Mixed,Both,ball,5,m160greet.wav,None,725.2551559,208,481630.9819,488503.42,489270.094,490037.1165,490804.6463,491571.8425,492338.4309,493106.4495,482398.4202,483165.7611,483932.9932,484700.2757,485450.6977,486217.5807,486985.2846,487752.2603,492347.1976,Mapping
Mixed,Both,ball,10,m150bluff.wav,None,718.9759631,208,496208.5162,488503.42,489270.094,490037.1165,490804.6463,491571.8425,492338.4309,493106.4495,482398.4202,483165.7611,483932.9932,484700.2757,485450.6977,486217.5807,486985.2846,487752.2603,493117.7397,Mapping
Mixed,Both,ball,10,m160reek.wav,None,735.3547327,208,496208.5162,488503.42,489270.094,490037.1165,490804.6463,491571.8425,492338.4309,493106.4495,496975.3365,483165.7611,483932.9932,484700.2757,485450.6977,486217.5807,486985.2846,487752.2603,496217.9999,Mapping
Mixed,Both,ball,10,m160knife.wav,None,732.8971596,208,496208.5162,488503.42,489270.094,490037.1165,490804.6463,491571.8425,492338.4309,493106.4495,496975.3365,497742.498,483932.9932,484700.2757,485450.6977,486217.5807,486985.2846,487752.2603,496984.6511,Mapping
Mixed,Both,ball,10,m150tile.wav,None,730.288404,208,496208.5162,488503.42,489270.094,490037.1165,490804.6463,491571.8425,492338.4309,493106.4495,496975.3365,497742.498,498509.8059,484700.2757,485450.6977,486217.5807,486985.2846,487752.2603,497751.6139,Mapping
Mixed,Both,ball,10,m150ball.wav,None,727.5235187,208,496208.5162,488503.42,489270.094,490037.1165,490804.6463,491571.8425,492338.4309,493106.4495,496975.3365,497742.498,498509.8059,499277.9129,485450.6977,486217.5807,486985.2846,487752.2603,498518.7591,Mapping
Mixed,Both,ball,10,m160tile.wav,space,351.8073317,208,496208.5162,488503.42,489270.094,490037.1165,490804.6463,491571.8425,492338.4309,493106.4495,496975.3365,497742.498,498509.8059,499277.9129,500027.4259,486217.5807,486985.2846,487752.2603,499287.3876,Mapping
Mixed,Both,ball,10,m160ball.wav,None,736.4290906,208,496208.5162,488503.42,489270.094,490037.1165,490804.6463,491571.8425,492338.4309,493106.4495,496975.3365,497742.498,498509.8059,499277.9129,500027.4259,500794.7817,486985.2846,487752.2603,500036.6911,Mapping
Mixed,Both,ball,10,m160jolt.wav,space,347.4771306,208,496208.5162,488503.42,489270.094,490037.1165,490804.6463,491571.8425,492338.4309,493106.4495,496975.3365,497742.498,498509.8059,499277.9129,500027.4259,500794.7817,501562.0264,487752.2603,500803.678,Mapping
Mixed,Both,ball,10,m150reek.wav,None,728.8980773,208,496208.5162,488503.42,489270.094,490037.1165,490804.6463,491571.8425,492338.4309,493106.4495,496975.3365,497742.498,498509.8059,499277.9129,500027.4259,500794.7817,501562.0264,502329.6159,501571.1744,Mapping
Mixed,Both,ball,10,m150dime.wav,None,725.2712324,208,496208.5162,503096.4219,489270.094,490037.1165,490804.6463,491571.8425,492338.4309,493106.4495,496975.3365,497742.498,498509.8059,499277.9129,500027.4259,500794.7817,501562.0264,502329.6159,502339.1509,Mapping
Mixed,Both,ball,10,m160ball.wav,None,723.3172944,208,496208.5162,503096.4219,503863.756,490037.1165,490804.6463,491571.8425,492338.4309,493106.4495,496975.3365,497742.498,498509.8059,499277.9129,500027.4259,500794.7817,501562.0264,502329.6159,503105.7106,Mapping
Mixed,Both,ball,10,m150tile.wav,space,350.1461744,208,496208.5162,503096.4219,503863.756,504614.3654,490804.6463,491571.8425,492338.4309,493106.4495,496975.3365,497742.498,498509.8059,499277.9129,500027.4259,500794.7817,501562.0264,502329.6159,503872.8839,Mapping
Mixed,Both,ball,10,m150ball.wav,None,732.3057223,208,496208.5162,503096.4219,503863.756,504614.3654,505381.4148,491571.8425,492338.4309,493106.4495,496975.3365,497742.498,498509.8059,499277.9129,500027.4259,500794.7817,501562.0264,502329.6159,504623.5678,Mapping
Mixed,Both,ball,10,m160tile.wav,space,208.8123886,208,496208.5162,503096.4219,503863.756,504614.3654,505381.4148,506149.0181,492338.4309,493106.4495,496975.3365,497742.498,498509.8059,499277.9129,500027.4259,500794.7817,501562.0264,502329.6159,505390.1889,Mapping
Mixed,Both,ball,10,m160dime.wav,None,724.454103,208,496208.5162,503096.4219,503863.756,504614.3654,505381.4148,506149.0181,506916.3291,493106.4495,496975.3365,497742.498,498509.8059,499277.9129,500027.4259,500794.7817,501562.0264,502329.6159,506158.4815,Mapping
Mixed,Both,ball,10,m150dime.wav,None,721.2724593,208,496208.5162,503096.4219,503863.756,504614.3654,505381.4148,506149.0181,506916.3291,507666.262,496975.3365,497742.498,498509.8059,499277.9129,500027.4259,500794.7817,501562.0264,502329.6159,506926.0292,Mapping
Mixed,Both,ball,2,m160park.wav,None,736.4368187,208,510785.3613,503096.4219,503863.756,504614.3654,505381.4148,506149.0181,506916.3291,507666.262,496975.3365,497742.498,498509.8059,499277.9129,500027.4259,500794.7817,501562.0264,502329.6159,507675.4823,Mapping
Mixed,Both,ball,2,m150park.wav,None,736.6003683,208,510785.3613,503096.4219,503863.756,504614.3654,505381.4148,506149.0181,506916.3291,507666.262,511553.0791,497742.498,498509.8059,499277.9129,500027.4259,500794.7817,501562.0264,502329.6159,510794.4054,Mapping
Mixed,Both,ball,2,m160ball.wav,None,733.0198996,208,510785.3613,503096.4219,503863.756,504614.3654,505381.4148,506149.0181,506916.3291,507666.262,511553.0791,512320.3199,498509.8059,499277.9129,500027.4259,500794.7817,501562.0264,502329.6159,511562.4957,Mapping
Mixed,Both,ball,2,m150jolt.wav,space,604.876129,208,510785.3613,503096.4219,503863.756,504614.3654,505381.4148,506149.0181,506916.3291,507666.262,511553.0791,512320.3199,513087.0495,499277.9129,500027.4259,500794.7817,501562.0264,502329.6159,512329.8518,Mapping
Mixed,Both,ball,2,m150done.wav,None,726.3795985,208,510785.3613,503096.4219,503863.756,504614.3654,505381.4148,506149.0181,506916.3291,507666.262,511553.0791,512320.3199,513087.0495,513854.5963,500027.4259,500794.7817,501562.0264,502329.6159,513096.1718,Mapping
Mixed,Both,ball,2,m160park.wav,None,723.149416,208,510785.3613,503096.4219,503863.756,504614.3654,505381.4148,506149.0181,506916.3291,507666.262,511553.0791,512320.3199,513087.0495,513854.5963,514621.637,500794.7817,501562.0264,502329.6159,513864.1202,Mapping
Mixed,Both,ball,2,m160jaw.wav,None,721.0115222,208,510785.3613,503096.4219,503863.756,504614.3654,505381.4148,506149.0181,506916.3291,507666.262,511553.0791,512320.3199,513087.0495,513854.5963,514621.637,515372.3364,501562.0264,502329.6159,514630.4672,Mapping
Mixed,Both,ball,2,m150bluff.wav,None,735.0554578,208,510785.3613,503096.4219,503863.756,504614.3654,505381.4148,506149.0181,506916.3291,507666.262,511553.0791,512320.3199,513087.0495,513854.5963,514621.637,515372.3364,516139.2738,502329.6159,515381.1093,Mapping
Mixed,Both,ball,2,m150ball.wav,None,732.2108084,208,510785.3613,503096.4219,503863.756,504614.3654,505381.4148,506149.0181,506916.3291,507666.262,511553.0791,512320.3199,513087.0495,513854.5963,514621.637,515372.3364,516139.2738,516906.816,516148.2421,Mapping
Mixed,Both,ball,2,m150reek.wav,space,514.3509395,208,510785.3613,517674.1779,503863.756,504614.3654,505381.4148,506149.0181,506916.3291,507666.262,511553.0791,512320.3199,513087.0495,513854.5963,514621.637,515372.3364,516139.2738,516906.816,516916.1998,Mapping
Mixed,Both,ball,2,m160ball.wav,None,723.8394776,208,510785.3613,517674.1779,518441.133,504614.3654,505381.4148,506149.0181,506916.3291,507666.262,511553.0791,512320.3199,513087.0495,513854.5963,514621.637,515372.3364,516139.2738,516906.816,517683.4965,Mapping
Mixed,Both,ball,2,m160greet.wav,space,643.9060597,208,510785.3613,517674.1779,518441.133,519191.5497,505381.4148,506149.0181,506916.3291,507666.262,511553.0791,512320.3199,513087.0495,513854.5963,514621.637,515372.3364,516139.2738,516906.816,518450.6105,Mapping
Mixed,Both,ball,2,m150ball.wav,None,733.8534147,208,510785.3613,517674.1779,518441.133,519191.5497,519959.0251,506149.0181,506916.3291,507666.262,511553.0791,512320.3199,513087.0495,513854.5963,514621.637,515372.3364,516139.2738,516906.816,519200.6198,Mapping
Mixed,Both,ball,2,m160cling.wav,space,646.4205198,208,510785.3613,517674.1779,518441.133,519191.5497,519959.0251,520726.0321,506916.3291,507666.262,511553.0791,512320.3199,513087.0495,513854.5963,514621.637,515372.3364,516139.2738,516906.816,519968.0373,Mapping
Mixed,Both,ball,2,m160depth.wav,None,726.4037132,208,510785.3613,517674.1779,518441.133,519191.5497,519959.0251,520726.0321,521493.6401,507666.262,511553.0791,512320.3199,513087.0495,513854.5963,514621.637,515372.3364,516139.2738,516906.816,520734.9853,Mapping
Mixed,Both,ball,2,m150bluff.wav,None,722.946601,208,510785.3613,517674.1779,518441.133,519191.5497,519959.0251,520726.0321,521493.6401,522260.371,511553.0791,512320.3199,513087.0495,513854.5963,514621.637,515372.3364,516139.2738,516906.816,521503.1068,Mapping
Mixed,Both,done,39,m150romp.wav,None,720.989571,208,525362.8477,517674.1779,518441.133,519191.5497,519959.0251,520726.0321,521493.6401,522260.371,511553.0791,512320.3199,513087.0495,513854.5963,514621.637,515372.3364,516139.2738,516906.816,522269.4763,Mapping
Mixed,Both,done,39,m160done.wav,None,735.2539441,208,525362.8477,517674.1779,518441.133,519191.5497,519959.0251,520726.0321,521493.6401,522260.371,526130.2863,512320.3199,513087.0495,513854.5963,514621.637,515372.3364,516139.2738,516906.816,525372.081,Mapping
Mixed,Both,done,39,m160jolt.wav,None,731.6376111,208,525362.8477,517674.1779,518441.133,519191.5497,519959.0251,520726.0321,521493.6401,522260.371,526130.2863,526897.5406,513087.0495,513854.5963,514621.637,515372.3364,516139.2738,516906.816,526140.2214,Mapping
Mixed,Both,done,39,m150done.wav,space,131.2221512,208,525362.8477,517674.1779,518441.133,519191.5497,519959.0251,520726.0321,521493.6401,522260.371,526130.2863,526897.5406,527664.5127,513854.5963,514621.637,515372.3364,516139.2738,516906.816,526907.0036,Mapping
Mixed,Both,done,39,m150cling.wav,space,668.2236344,208,525362.8477,517674.1779,518441.133,519191.5497,519959.0251,520726.0321,521493.6401,522260.371,526130.2863,526897.5406,527664.5127,528432.049,514621.637,515372.3364,516139.2738,516906.816,527673.921,Mapping
Mixed,Both,done,39,m160lash.wav,None,719.4412602,208,525362.8477,517674.1779,518441.133,519191.5497,519959.0251,520726.0321,521493.6401,522260.371,526130.2863,526897.5406,527664.5127,528432.049,529182.4157,515372.3364,516139.2738,516906.816,528441.8137,Mapping
Mixed,Both,done,39,m160done.wav,None,733.5102391,208,525362.8477,517674.1779,518441.133,519191.5497,519959.0251,520726.0321,521493.6401,522260.371,526130.2863,526897.5406,527664.5127,528432.049,529182.4157,529949.6388,516139.2738,516906.816,529192.2129,Mapping
Mixed,Both,done,39,m150knife.wav,space,470.7601685,208,525362.8477,517674.1779,518441.133,519191.5497,519959.0251,520726.0321,521493.6401,522260.371,526130.2863,526897.5406,527664.5127,528432.049,529182.4157,529949.6388,530717.0594,516906.816,529959.3327,Mapping
Mixed,Both,done,39,m150tile.wav,None,725.9155381,208,525362.8477,517674.1779,518441.133,519191.5497,519959.0251,520726.0321,521493.6401,522260.371,526130.2863,526897.5406,527664.5127,528432.049,529182.4157,529949.6388,530717.0594,531483.8398,530726.4012,Mapping
Mixed,Both,done,39,m160tile.wav,None,724.358879,208,525362.8477,532251.3687,518441.133,519191.5497,519959.0251,520726.0321,521493.6401,522260.371,526130.2863,526897.5406,527664.5127,528432.049,529182.4157,529949.6388,530717.0594,531483.8398,531492.5565,Mapping
Mixed,Both,done,39,m150done.wav,None,720.1999575,208,525362.8477,532251.3687,533001.8383,519191.5497,519959.0251,520726.0321,521493.6401,522260.371,526130.2863,526897.5406,527664.5127,528432.049,529182.4157,529949.6388,530717.0594,531483.8398,532261.1167,Mapping
Mixed,Both,done,39,m160bluff.wav,space,386.2455059,208,525362.8477,532251.3687,533001.8383,533769.1202,519959.0251,520726.0321,521493.6401,522260.371,526130.2863,526897.5406,527664.5127,528432.049,529182.4157,529949.6388,530717.0594,531483.8398,533011.7079,Mapping
Mixed,Both,done,39,m150jaw.wav,None,729.4632355,208,525362.8477,532251.3687,533001.8383,533769.1202,534536.3538,520726.0321,521493.6401,522260.371,526130.2863,526897.5406,527664.5127,528432.049,529182.4157,529949.6388,530717.0594,531483.8398,533778.649,Mapping
