"Condition","Talker","Target","Trial","current_stimulus","response_response","response_time_response","subject_nr","time_Audio1","time_Audio10","time_Audio11","time_Audio12","time_Audio13","time_Audio14","time_Audio15","time_Audio16","time_Audio2","time_Audio3","time_Audio4","time_Audio5","time_Audio6","time_Audio7","time_Audio8","time_Audio9","time_response","title"
"Mixed","Both","tile","33","m160priest.wav","NA","NA","159","201751.01602","NA","NA","NA","NA","NA","NA","NA","NA","NA","NA","NA","NA","NA","NA","NA","NA","Mapping"
"Mixed","Both","tile","33","m160romp.wav","None","718.550669961","159","201751.01602","NA","NA","NA","NA","NA","NA","NA","202518.115231","NA","NA","NA","NA","NA","NA","NA","201765.335996","Mapping"
"Mixed","Both","tile","33","m150tile.wav","None","722.710595932","159","201751.01602","NA","NA","NA","NA","NA","NA","NA","202518.115231","203284.364524","NA","NA","NA","NA","NA","NA","202528.120385","Mapping"
"Mixed","Both","tile","33","m150cling.wav","space","586.436942685","159","201751.01602","NA","NA","NA","NA","NA","NA","NA","202518.115231","203284.364524","204050.692347","NA","NA","NA","NA","NA","203294.009182","Mapping"
"Mixed","Both","tile","33","m150tile.wav","None","723.717882298","159","201751.01602","NA","NA","NA","NA","NA","NA","NA","202518.115231","203284.364524","204050.692347","204817.598324","NA","NA","NA","NA","204060.32742","Mapping"
"Mixed","Both","tile","33","m160cling.wav","space","477.36342065","159","201751.01602","NA","NA","NA","NA","NA","NA","NA","202518.115231","203284.364524","204050.692347","204817.598324","205584.565208","NA","NA","NA","204827.033672","Mapping"
"Mixed","Both","tile","33","m150done.wav","None","719.738204498","159","201751.01602","NA","NA","NA","NA","NA","NA","NA","202518.115231","203284.364524","204050.692347","204817.598324","205584.565208","206350.877882","NA","NA","205594.144012","Mapping"
"Mixed","Both","tile","33","m160dime.wav","None","719.429958612","159","201751.01602","NA","NA","NA","NA","NA","NA","NA","202518.115231","203284.364524","204050.692347","204817.598324","205584.565208","206350.877882","207116.933942","NA","206361.096365","Mapping"
"Mixed","Both","tile","33","m160gnash.wav","None","725.33856798","159","201751.01602","NA","NA","NA","NA","NA","NA","NA","202518.115231","203284.364524","204050.692347","204817.598324","205584.565208","206350.877882","207116.933942","207883.296702","207125.721262","Mapping"
"Mixed","Both","tile","33","m160tile.wav","None","725.395455491","159","201751.01602","208650.236069","NA","NA","NA","NA","NA","NA","202518.115231","203284.364524","204050.692347","204817.598324","205584.565208","206350.877882","207116.933942","207883.296702","207892.192233","Mapping"
"Mixed","Both","tile","33","m150romp.wav","space","469.111896586","159","201751.01602","208650.236069","209417.362178","NA","NA","NA","NA","NA","202518.115231","203284.364524","204050.692347","204817.598324","205584.565208","206350.877882","207116.933942","207883.296702","208659.239502","Mapping"
"Mixed","Both","tile","33","m160park.wav","None","723.601632752","159","201751.01602","208650.236069","209417.362178","210184.12779","NA","NA","NA","NA","202518.115231","203284.364524","204050.692347","204817.598324","205584.565208","206350.877882","207116.933942","207883.296702","209427.05754","Mapping"
"Mixed","Both","tile","33","m150done.wav","None","723.756528925","159","201751.01602","208650.236069","209417.362178","210184.12779","210950.020915","NA","NA","NA","202518.115231","203284.364524","204050.692347","204817.598324","205584.565208","206350.877882","207116.933942","207883.296702","210193.727618","Mapping"
"Mixed","Both","tile","33","m150park.wav","None","721.449478064","159","201751.01602","208650.236069","209417.362178","210184.12779","210950.020915","211716.98007","NA","NA","202518.115231","203284.364524","204050.692347","204817.598324","205584.565208","206350.877882","207116.933942","207883.296702","210959.15822","Mapping"
"Mixed","Both","tile","33","m160tile.wav","None","720.90100497","159","201751.01602","208650.236069","209417.362178","210184.12779","210950.020915","211716.98007","212466.810412","NA","202518.115231","203284.364524","204050.692347","204817.598324","205584.565208","206350.877882","207116.933942","207883.296702","211726.610197","Mapping"
"Mixed","Both","tile","33","m150priest.wav","space","532.427476719","159","201751.01602","208650.236069","209417.362178","210184.12779","210950.020915","211716.98007","212466.810412","213233.549744","202518.115231","203284.364524","204050.692347","204817.598324","205584.565208","206350.877882","207116.933942","207883.296702","212475.841361","Mapping"
"Mixed","Both","cave","14","m150gnash.wav","None","734.725684393","159","216434.210571","208650.236069","209417.362178","210184.12779","210950.020915","211716.98007","212466.810412","213233.549744","202518.115231","203284.364524","204050.692347","204817.598324","205584.565208","206350.877882","207116.933942","207883.296702","213242.590587","Mapping"
"Mixed","Both","cave","14","m150lash.wav","None","722.609495744","159","216434.210571","208650.236069","209417.362178","210184.12779","210950.020915","211716.98007","212466.810412","213233.549744","217200.007544","203284.364524","204050.692347","204817.598324","205584.565208","206350.877882","207116.933942","207883.296702","216444.170277","Mapping"
"Mixed","Both","cave","14","m150tile.wav","None","730.15826894","159","216434.210571","208650.236069","209417.362178","210184.12779","210950.020915","211716.98007","212466.810412","213233.549744","217200.007544","217967.434478","204050.692347","204817.598324","205584.565208","206350.877882","207116.933942","207883.296702","217203.360218","Mapping"
"Mixed","Both","cave","14","m160done.wav","None","719.168398529","159","216434.210571","208650.236069","209417.362178","210184.12779","210950.020915","211716.98007","212466.810412","213233.549744","217200.007544","217967.434478","218733.684389","204817.598324","205584.565208","206350.877882","207116.933942","207883.296702","217977.30947","Mapping"
"Mixed","Both","cave","14","m160gnash.wav","None","720.350367483","159","216434.210571","208650.236069","209417.362178","210184.12779","210950.020915","211716.98007","212466.810412","213233.549744","217200.007544","217967.434478","218733.684389","219483.082506","205584.565208","206350.877882","207116.933942","207883.296702","218742.511902","Mapping"
"Mixed","Both","cave","14","m160cave.wav","None","733.999127522","159","216434.210571","208650.236069","209417.362178","210184.12779","210950.020915","211716.98007","212466.810412","213233.549744","217200.007544","217967.434478","218733.684389","219483.082506","220250.070105","206350.877882","207116.933942","207883.296702","219492.020085","Mapping"
"Mixed","Both","cave","14","m160dime.wav","space","603.498974815","159","216434.210571","208650.236069","209417.362178","210184.12779","210950.020915","211716.98007","212466.810412","213233.549744","217200.007544","217967.434478","218733.684389","219483.082506","220250.070105","221016.660416","207116.933942","207883.296702","220260.613839","Mapping"
"Mixed","Both","cave","14","m160cave.wav","None","729.650606401","159","216434.210571","208650.236069","209417.362178","210184.12779","210950.020915","211716.98007","212466.810412","213233.549744","217200.007544","217967.434478","218733.684389","219483.082506","220250.070105","221016.660416","221783.413662","207883.296702","221025.836368","Mapping"
"Mixed","Both","cave","14","m160bluff.wav","None","725.815312937","159","216434.210571","208650.236069","209417.362178","210184.12779","210950.020915","211716.98007","212466.810412","213233.549744","217200.007544","217967.434478","218733.684389","219483.082506","220250.070105","221016.660416","221783.413662","222550.108782","221792.816237","Mapping"
"Mixed","Both","cave","14","m150done.wav","space","0.0343178398907","159","216434.210571","223317.068556","209417.362178","210184.12779","210950.020915","211716.98007","212466.810412","213233.549744","217200.007544","217967.434478","218733.684389","219483.082506","220250.070105","221016.660416","221783.413662","222550.108782","222560.048083","Mapping"
"Mixed","Both","cave","14","m150cave.wav","None","721.861915197","159","216434.210571","223317.068556","224083.856119","210184.12779","210950.020915","211716.98007","212466.810412","213233.549744","217200.007544","217967.434478","218733.684389","219483.082506","220250.070105","221016.660416","221783.413662","222550.108782","223326.331694","Mapping"
"Mixed","Both","cave","14","m160depth.wav","space","522.353377193","159","216434.210571","223317.068556","224083.856119","224850.415823","210950.020915","211716.98007","212466.810412","213233.549744","217200.007544","217967.434478","218733.684389","219483.082506","220250.070105","221016.660416","221783.413662","222550.108782","224093.696484","Mapping"
"Mixed","Both","cave","14","m150jaw.wav","None","719.829719514","159","216434.210571","223317.068556","224083.856119","224850.415823","225617.042307","211716.98007","212466.810412","213233.549744","217200.007544","217967.434478","218733.684389","219483.082506","220250.070105","221016.660416","221783.413662","222550.108782","224861.430736","Mapping"
"Mixed","Both","cave","14","m150priest.wav","None","721.107223071","159","216434.210571","223317.068556","224083.856119","224850.415823","225617.042307","226366.469177","212466.810412","213233.549744","217200.007544","217967.434478","218733.684389","219483.082506","220250.070105","221016.660416","221783.413662","222550.108782","225626.89813","Mapping"
"Mixed","Both","cave","14","m150cave.wav","None","735.384532716","159","216434.210571","223317.068556","224083.856119","224850.415823","225617.042307","226366.469177","227133.442554","213233.549744","217200.007544","217967.434478","218733.684389","219483.082506","220250.070105","221016.660416","221783.413662","222550.108782","226375.592569","Mapping"
"Mixed","Both","cave","14","m160park.wav","space","553.067260887","159","216434.210571","223317.068556","224083.856119","224850.415823","225617.042307","226366.469177","227133.442554","227899.544371","217200.007544","217967.434478","218733.684389","219483.082506","220250.070105","221016.660416","221783.413662","222550.108782","227142.965707","Mapping"
"Mixed","Both","cave","15","m150park.wav","None","724.206684623","159","231033.735434","223317.068556","224083.856119","224850.415823","225617.042307","226366.469177","227133.442554","227899.544371","217200.007544","217967.434478","218733.684389","219483.082506","220250.070105","221016.660416","221783.413662","222550.108782","227913.075337","Mapping"
"Mixed","Both","cave","15","m160jolt.wav","None","719.348646235","159","231033.735434","223317.068556","224083.856119","224850.415823","225617.042307","226366.469177","227133.442554","227899.544371","231800.208568","217967.434478","218733.684389","219483.082506","220250.070105","221016.660416","221783.413662","222550.108782","231043.366797","Mapping"
"Mixed","Both","cave","15","m150lash.wav","None","719.568777364","159","231033.735434","223317.068556","224083.856119","224850.415823","225617.042307","226366.469177","227133.442554","227899.544371","231800.208568","232549.834546","218733.684389","219483.082506","220250.070105","221016.660416","221783.413662","222550.108782","231809.779025","Mapping"
"Mixed","Both","cave","15","m150depth.wav","None","733.812077437","159","231033.735434","223317.068556","224083.856119","224850.415823","225617.042307","226366.469177","227133.442554","227899.544371","231800.208568","232549.834546","233316.37508","219483.082506","220250.070105","221016.660416","221783.413662","222550.108782","232558.75172","Mapping"
"Mixed","Both","cave","15","m150cave.wav","None","733.397167176","159","231033.735434","223317.068556","224083.856119","224850.415823","225617.042307","226366.469177","227133.442554","227899.544371","231800.208568","232549.834546","233316.37508","234083.375664","220250.070105","221016.660416","221783.413662","222550.108782","233325.919875","Mapping"
"Mixed","Both","cave","15","m150knife.wav","space","475.023288745","159","231033.735434","223317.068556","224083.856119","224850.415823","225617.042307","226366.469177","227133.442554","227899.544371","231800.208568","232549.834546","233316.37508","234083.375664","234849.497269","221016.660416","221783.413662","222550.108782","234092.839765","Mapping"
"Mixed","Both","cave","15","m150cave.wav","None","730.617700145","159","231033.735434","223317.068556","224083.856119","224850.415823","225617.042307","226366.469177","227133.442554","227899.544371","231800.208568","232549.834546","233316.37508","234083.375664","234849.497269","235616.216196","221783.413662","222550.108782","234858.413824","Mapping"
"Mixed","Both","cave","15","m160reek.wav","None","727.781036403","159","231033.735434","223317.068556","224083.856119","224850.415823","225617.042307","226366.469177","227133.442554","227899.544371","231800.208568","232549.834546","233316.37508","234083.375664","234849.497269","235616.216196","236382.795068","222550.108782","235624.993932","Mapping"
"Mixed","Both","cave","15","m150done.wav","space","0.172518659383","159","231033.735434","223317.068556","224083.856119","224850.415823","225617.042307","226366.469177","227133.442554","227899.544371","231800.208568","232549.834546","233316.37508","234083.375664","234849.497269","235616.216196","236382.795068","237150.053503","236391.629692","Mapping"
"Mixed","Both","cave","15","m160cave.wav","None","722.715542652","159","231033.735434","237916.303414","224083.856119","224850.415823","225617.042307","226366.469177","227133.442554","227899.544371","231800.208568","232549.834546","233316.37508","234083.375664","234849.497269","235616.216196","236382.795068","237150.053503","237159.752266","Mapping"
"Mixed","Both","cave","15","m160greet.wav","space","546.377371531","159","231033.735434","237916.303414","238683.658619","224850.415823","225617.042307","226366.469177","227133.442554","227899.544371","231800.208568","232549.834546","233316.37508","234083.375664","234849.497269","235616.216196","236382.795068","237150.053503","237925.437318","Mapping"
"Mixed","Both","cave","15","m160romp.wav","None","718.777294271","159","231033.735434","237916.303414","238683.658619","239433.239767","225617.042307","226366.469177","227133.442554","227899.544371","231800.208568","232549.834546","233316.37508","234083.375664","234849.497269","235616.216196","236382.795068","237150.053503","238693.280399","Mapping"
"Mixed","Both","cave","15","m160cave.wav","None","733.177654445","159","231033.735434","237916.303414","238683.658619","239433.239767","240199.677965","226366.469177","227133.442554","227899.544371","231800.208568","232549.834546","233316.37508","234083.375664","234849.497269","235616.216196","236382.795068","237150.053503","239442.372744","Mapping"
"Mixed","Both","cave","15","m160ball.wav","space","575.44861827","159","231033.735434","237916.303414","238683.658619","239433.239767","240199.677965","240966.373086","227133.442554","227899.544371","231800.208568","232549.834546","233316.37508","234083.375664","234849.497269","235616.216196","236382.795068","237150.053503","240216.334362","Mapping"
"Mixed","Both","cave","15","m160priest.wav","None","729.431093205","159","231033.735434","237916.303414","238683.658619","239433.239767","240199.677965","240966.373086","241733.137771","227899.544371","231800.208568","232549.834546","233316.37508","234083.375664","234849.497269","235616.216196","236382.795068","237150.053503","240975.816163","Mapping"
"Mixed","Both","cave","15","m150park.wav","None","725.819023326","159","231033.735434","237916.303414","238683.658619","239433.239767","240199.677965","240966.373086","241733.137771","242499.623582","231800.208568","232549.834546","233316.37508","234083.375664","234849.497269","235616.216196","236382.795068","237150.053503","241742.986792","Mapping"
"Mixed","Both","cave","22","m160gnash.wav","None","723.610289861","159","245616.55876","237916.303414","238683.658619","239433.239767","240199.677965","240966.373086","241733.137771","242499.623582","231800.208568","232549.834546","233316.37508","234083.375664","234849.497269","235616.216196","236382.795068","237150.053503","242508.571672","Mapping"
"Mixed","Both","cave","22","m150tile.wav","None","720.05758062","159","245616.55876","237916.303414","238683.658619","239433.239767","240199.677965","240966.373086","241733.137771","242499.623582","246366.151347","232549.834546","233316.37508","234083.375664","234849.497269","235616.216196","236382.795068","237150.053503","245626.606271","Mapping"
"Mixed","Both","cave","22","m160reek.wav","None","733.725509141","159","245616.55876","237916.303414","238683.658619","239433.239767","240199.677965","240966.373086","241733.137771","242499.623582","246366.151347","247132.583052","233316.37508","234083.375664","234849.497269","235616.216196","236382.795068","237150.053503","246376.200094","Mapping"
"Mixed","Both","cave","22","m150park.wav","None","731.414748356","159","245616.55876","237916.303414","238683.658619","239433.239767","240199.677965","240966.373086","241733.137771","242499.623582","246366.151347","247132.583052","247899.25313","234083.375664","234849.497269","235616.216196","236382.795068","237150.053503","247141.792704","Mapping"
"Mixed","Both","cave","22","m160depth.wav","None","728.230883367","159","245616.55876","237916.303414","238683.658619","239433.239767","240199.677965","240966.373086","241733.137771","242499.623582","246366.151347","247132.583052","247899.25313","248666.645746","234849.497269","235616.216196","236382.795068","237150.053503","247908.324272","Mapping"
"Mixed","Both","cave","22","m150priest.wav","None","723.120559007","159","245616.55876","237916.303414","238683.658619","239433.239767","240199.677965","240966.373086","241733.137771","242499.623582","246366.151347","247132.583052","247899.25313","248666.645746","249433.479686","235616.216196","236382.795068","237150.053503","248676.773642","Mapping"
"Mixed","Both","cave","22","m150ball.wav","None","720.043358393","159","245616.55876","237916.303414","238683.658619","239433.239767","240199.677965","240966.373086","241733.137771","242499.623582","246366.151347","247132.583052","247899.25313","248666.645746","249433.479686","250199.558006","236382.795068","237150.053503","249443.22297","Mapping"
"Mixed","Both","cave","22","m150gnash.wav","None","721.835326403","159","245616.55876","237916.303414","238683.658619","239433.239767","240199.677965","240966.373086","241733.137771","242499.623582","246366.151347","247132.583052","247899.25313","248666.645746","249433.479686","250199.558006","250949.414318","237150.053503","250208.433441","Mapping"
"Mixed","Both","cave","22","m160cave.wav","None","734.942106064","159","245616.55876","237916.303414","238683.658619","239433.239767","240199.677965","240966.373086","241733.137771","242499.623582","246366.151347","247132.583052","247899.25313","248666.645746","249433.479686","250199.558006","250949.414318","251715.88436","250958.944581","Mapping"
"Mixed","Both","cave","22","m150done.wav","space","530.473192688","159","245616.55876","252482.965639","238683.658619","239433.239767","240199.677965","240966.373086","241733.137771","242499.623582","246366.151347","247132.583052","247899.25313","248666.645746","249433.479686","250199.558006","250949.414318","251715.88436","251725.062785","Mapping"
"Mixed","Both","cave","22","m150cave.wav","None","727.6490191","159","245616.55876","252482.965639","253249.553476","239433.239767","240199.677965","240966.373086","241733.137771","242499.623582","246366.151347","247132.583052","247899.25313","248666.645746","249433.479686","250199.558006","250949.414318","251715.88436","252492.52682","Mapping"
"Mixed","Both","cave","22","m160greet.wav","None","724.449695088","159","245616.55876","252482.965639","253249.553476","254016.50212","240199.677965","240966.373086","241733.137771","242499.623582","246366.151347","247132.583052","247899.25313","248666.645746","249433.479686","250199.558006","250949.414318","251715.88436","253259.088687","Mapping"
"Mixed","Both","cave","22","m160cave.wav","space","13.3031043224","159","245616.55876","252482.965639","253249.553476","254016.50212","254765.906729","240966.373086","241733.137771","242499.623582","246366.151347","247132.583052","247899.25313","248666.645746","249433.479686","250199.558006","250949.414318","251715.88436","254026.225307","Mapping"
"Mixed","Both","cave","22","m160greet.wav","None","734.361787792","159","245616.55876","252482.965639","253249.553476","254016.50212","254765.906729","255532.605251","241733.137771","242499.623582","246366.151347","247132.583052","247899.25313","248666.645746","249433.479686","250199.558006","250949.414318","251715.88436","254775.426172","Mapping"
"Mixed","Both","cave","22","m150cave.wav","space","346.098682843","159","245616.55876","252482.965639","253249.553476","254016.50212","254765.906729","255532.605251","256299.236064","242499.623582","246366.151347","247132.583052","247899.25313","248666.645746","249433.479686","250199.558006","250949.414318","251715.88436","255541.406484","Mapping"
"Mixed","Both","cave","22","m160dime.wav","None","727.699105628","159","245616.55876","252482.965639","253249.553476","254016.50212","254765.906729","255532.605251","256299.236064","257066.40422","246366.151347","247132.583052","247899.25313","248666.645746","249433.479686","250199.558006","250949.414318","251715.88436","256308.358528","Mapping"
"Mixed","Both","ball","5","m160romp.wav","space","0.0386466272175","159","260183.387938","252482.965639","253249.553476","254016.50212","254765.906729","255532.605251","256299.236064","257066.40422","246366.151347","247132.583052","247899.25313","248666.645746","249433.479686","250199.558006","250949.414318","251715.88436","257076.736788","Mapping"
"Mixed","Both","ball","5","m160dime.wav","None","721.27355868","159","260183.387938","252482.965639","253249.553476","254016.50212","254765.906729","255532.605251","256299.236064","257066.40422","260932.709381","247132.583052","247899.25313","248666.645746","249433.479686","250199.558006","250949.414318","251715.88436","260191.15406","Mapping"
"Mixed","Both","ball","5","m150park.wav","None","733.833101578","159","260183.387938","252482.965639","253249.553476","254016.50212","254765.906729","255532.605251","256299.236064","257066.40422","260932.709381","261699.376985","247899.25313","248666.645746","249433.479686","250199.558006","250949.414318","251715.88436","260942.016421","Mapping"
"Mixed","Both","ball","5","m150ball.wav","None","730.635632295","159","260183.387938","252482.965639","253249.553476","254016.50212","254765.906729","255532.605251","256299.236064","257066.40422","260932.709381","261699.376985","262465.713465","248666.645746","249433.479686","250199.558006","250949.414318","251715.88436","261708.853453","Mapping"
"Mixed","Both","ball","5","m160gnash.wav","space","404.673400335","159","260183.387938","252482.965639","253249.553476","254016.50212","254765.906729","255532.605251","256299.236064","257066.40422","260932.709381","261699.376985","262465.713465","263233.019821","249433.479686","250199.558006","250949.414318","251715.88436","262474.698657","Mapping"
"Mixed","Both","ball","5","m150cling.wav","None","722.462329548","159","260183.387938","252482.965639","253249.553476","254016.50212","254765.906729","255532.605251","256299.236064","257066.40422","260932.709381","261699.376985","262465.713465","263233.019821","263999.613225","250199.558006","250949.414318","251715.88436","263243.4269","Mapping"
"Mixed","Both","ball","5","m160gnash.wav","None","720.858338755","159","260183.387938","252482.965639","253249.553476","254016.50212","254765.906729","255532.605251","256299.236064","257066.40422","260932.709381","261699.376985","262465.713465","263233.019821","263999.613225","264749.170566","250949.414318","251715.88436","264009.270868","Mapping"
"Mixed","Both","ball","5","m160ball.wav","None","734.992191661","159","260183.387938","252482.965639","253249.553476","254016.50212","254765.906729","255532.605251","256299.236064","257066.40422","260932.709381","261699.376985","262465.713465","263233.019821","263999.613225","264749.170566","265515.948236","251715.88436","264758.625391","Mapping"
"Mixed","Both","ball","5","m160romp.wav","space","417.977740988","159","260183.387938","252482.965639","253249.553476","254016.50212","254765.906729","255532.605251","256299.236064","257066.40422","260932.709381","261699.376985","262465.713465","263233.019821","263999.613225","264749.170566","265515.948236","266282.706119","265525.315875","Mapping"
"Mixed","Both","ball","5","m150knife.wav","None","727.762176655","159","260183.387938","267048.910891","253249.553476","254016.50212","254765.906729","255532.605251","256299.236064","257066.40422","260932.709381","261699.376985","262465.713465","263233.019821","263999.613225","264749.170566","265515.948236","266282.706119","266292.652839","Mapping"
"Mixed","Both","ball","5","m150ball.wav","None","726.087076589","159","260183.387938","267048.910891","267815.809448","254016.50212","254765.906729","255532.605251","256299.236064","257066.40422","260932.709381","261699.376985","262465.713465","263233.019821","263999.613225","264749.170566","265515.948236","266282.706119","267057.874749","Mapping"
"Mixed","Both","ball","5","m150lash.wav","space","638.225617819","159","260183.387938","267048.910891","267815.809448","268565.794685","254765.906729","255532.605251","256299.236064","257066.40422","260932.709381","261699.376985","262465.713465","263233.019821","263999.613225","264749.170566","265515.948236","266282.706119","267825.037341","Mapping"
"Mixed","Both","ball","5","m160cave.wav","None","735.276940279","159","260183.387938","267048.910891","267815.809448","268565.794685","269332.630789","255532.605251","256299.236064","257066.40422","260932.709381","261699.376985","262465.713465","263233.019821","263999.613225","264749.170566","265515.948236","266282.706119","268575.698739","Mapping"
"Mixed","Both","ball","5","m150cling.wav","None","732.700290624","159","260183.387938","267048.910891","267815.809448","268565.794685","269332.630789","270098.819175","256299.236064","257066.40422","260932.709381","261699.376985","262465.713465","263233.019821","263999.613225","264749.170566","265515.948236","266282.706119","269342.178057","Mapping"
"Mixed","Both","ball","5","m160ball.wav","None","730.920999311","159","260183.387938","267048.910891","267815.809448","268565.794685","269332.630789","270098.819175","270865.334357","257066.40422","260932.709381","261699.376985","262465.713465","263233.019821","263999.613225","264749.170566","265515.948236","266282.706119","270107.691827","Mapping"
"Mixed","Both","ball","5","m150park.wav","space","349.009857513","159","260183.387938","267048.910891","267815.809448","268565.794685","269332.630789","270098.819175","270865.334357","271632.682761","260932.709381","261699.376985","262465.713465","263233.019821","263999.613225","264749.170566","265515.948236","266282.706119","270874.238545","Mapping"
"Mixed","Both","done","47","m160bluff.wav","None","723.807542119","159","274749.373383","267048.910891","267815.809448","268565.794685","269332.630789","270098.819175","270865.334357","271632.682761","260932.709381","261699.376985","262465.713465","263233.019821","263999.613225","264749.170566","265515.948236","266282.706119","271643.139617","Mapping"
"Mixed","Both","done","47","m160done.wav","None","719.821990468","159","274749.373383","267048.910891","267815.809448","268565.794685","269332.630789","270098.819175","270865.334357","271632.682761","275499.044809","261699.376985","262465.713465","263233.019821","263999.613225","264749.170566","265515.948236","266282.706119","274759.137073","Mapping"
"Mixed","Both","done","47","m150park.wav","space","506.887915079","159","274749.373383","267048.910891","267815.809448","268565.794685","269332.630789","270098.819175","270865.334357","271632.682761","275499.044809","276265.536185","262465.713465","263233.019821","263999.613225","264749.170566","265515.948236","266282.706119","275508.234364","Mapping"
"Mixed","Both","done","47","m150knife.wav","None","730.954698753","159","274749.373383","267048.910891","267815.809448","268565.794685","269332.630789","270098.819175","270865.334357","271632.682761","275499.044809","276265.536185","277032.606642","263233.019821","263999.613225","264749.170566","265515.948236","266282.706119","276274.637935","Mapping"
"Mixed","Both","done","47","m160jaw.wav","None","726.500749588","159","274749.373383","267048.910891","267815.809448","268565.794685","269332.630789","270098.819175","270865.334357","271632.682761","275499.044809","276265.536185","277032.606642","277799.024126","263999.613225","264749.170566","265515.948236","266282.706119","277042.644569","Mapping"
"Mixed","Both","done","47","m160done.wav","None","729.671321344","159","274749.373383","267048.910891","267815.809448","268565.794685","269332.630789","270098.819175","270865.334357","271632.682761","275499.044809","276265.536185","277032.606642","277799.024126","278565.584447","264749.170566","265515.948236","266282.706119","277808.687025","Mapping"
"Mixed","Both","done","47","m150knife.wav","space","416.050355416","159","274749.373383","267048.910891","267815.809448","268565.794685","269332.630789","270098.819175","270865.334357","271632.682761","275499.044809","276265.536185","277032.606642","277799.024126","278565.584447","279332.978609","265515.948236","266282.706119","278575.063079","Mapping"
"Mixed","Both","done","47","m150depth.wav","None","722.066588234","159","274749.373383","267048.910891","267815.809448","268565.794685","269332.630789","270098.819175","270865.334357","271632.682761","275499.044809","276265.536185","277032.606642","277799.024126","278565.584447","279332.978609","280098.839271","266282.706119","279342.996129","Mapping"
"Mixed","Both","done","47","m150done.wav","None","720.822474919","159","274749.373383","267048.910891","267815.809448","268565.794685","269332.630789","270098.819175","270865.334357","271632.682761","275499.044809","276265.536185","277032.606642","277799.024126","278565.584447","279332.978609","280098.839271","280848.942303","280107.900829","Mapping"
"Mixed","Both","done","47","m150priest.wav","None","734.269963112","159","274749.373383","281615.580845","267815.809448","268565.794685","269332.630789","270098.819175","270865.334357","271632.682761","275499.044809","276265.536185","277032.606642","277799.024126","278565.584447","279332.978609","280098.839271","280848.942303","280858.028285","Mapping"
"Mixed","Both","done","47","m160jolt.wav","None","730.951298028","159","274749.373383","281615.580845","282382.443229","268565.794685","269332.630789","270098.819175","270865.334357","271632.682761","275499.044809","276265.536185","277032.606642","277799.024126","278565.584447","279332.978609","280098.839271","280848.942303","281624.97229","Mapping"
"Mixed","Both","done","47","m150done.wav","None","727.124352474","159","274749.373383","281615.580845","282382.443229","283148.916982","269332.630789","270098.819175","270865.334357","271632.682761","275499.044809","276265.536185","277032.606642","277799.024126","278565.584447","279332.978609","280098.839271","280848.942303","282392.301216","Mapping"
"Mixed","Both","done","47","m160jaw.wav","space","400.936733","159","274749.373383","281615.580845","282382.443229","283148.916982","283916.017738","270098.819175","270865.334357","271632.682761","275499.044809","276265.536185","277032.606642","277799.024126","278565.584447","279332.978609","280098.839271","280848.942303","283158.088296","Mapping"
"Mixed","Both","done","47","m160knife.wav","None","720.170119777","159","274749.373383","281615.580845","282382.443229","283148.916982","283916.017738","284682.833127","270865.334357","271632.682761","275499.044809","276265.536185","277032.606642","277799.024126","278565.584447","279332.978609","280098.839271","280848.942303","283925.942507","Mapping"
"Mixed","Both","done","47","m150ball.wav","None","721.161328722","159","274749.373383","281615.580845","282382.443229","283148.916982","283916.017738","284682.833127","285432.62173","271632.682761","275499.044809","276265.536185","277032.606642","277799.024126","278565.584447","279332.978609","280098.839271","280848.942303","284692.980501","Mapping"
"Mixed","Both","done","47","m160ball.wav","None","734.726302791","159","274749.373383","281615.580845","282382.443229","283148.916982","283916.017738","284682.833127","285432.62173","286198.57298","275499.044809","276265.536185","277032.606642","277799.024126","278565.584447","279332.978609","280098.839271","280848.942303","285443.029427","Mapping"
"Mixed","Both","done","41","m160bluff.wav","None","733.76353737","159","289332.738381","281615.580845","282382.443229","283148.916982","283916.017738","284682.833127","285432.62173","286198.57298","275499.044809","276265.536185","277032.606642","277799.024126","278565.584447","279332.978609","280098.839271","280848.942303","286207.563119","Mapping"
"Mixed","Both","done","41","m160cling.wav","None","718.44771551","159","289332.738381","281615.580845","282382.443229","283148.916982","283916.017738","284682.833127","285432.62173","286198.57298","290082.205753","276265.536185","277032.606642","277799.024126","278565.584447","279332.978609","280098.839271","280848.942303","289343.428663","Mapping"
"Mixed","Both","done","41","m150cave.wav","None","733.580816071","159","289332.738381","281615.580845","282382.443229","283148.916982","283916.017738","284682.833127","285432.62173","286198.57298","290082.205753","290848.827291","277032.606642","277799.024126","278565.584447","279332.978609","280098.839271","280848.942303","290091.819803","Mapping"
"Mixed","Both","done","41","m160done.wav","None","731.168028433","159","289332.738381","281615.580845","282382.443229","283148.916982","283916.017738","284682.833127","285432.62173","286198.57298","290082.205753","290848.827291","291615.539107","277799.024126","278565.584447","279332.978609","280098.839271","280848.942303","290857.865351","Mapping"
"Mixed","Both","done","41","m160knife.wav","space","350.053316914","159","289332.738381","281615.580845","282382.443229","283148.916982","283916.017738","284682.833127","285432.62173","286198.57298","290082.205753","290848.827291","291615.539107","292382.598434","278565.584447","279332.978609","280098.839271","280848.942303","291624.798226","Mapping"
"Mixed","Both","done","41","m150priest.wav","None","722.817260306","159","289332.738381","281615.580845","282382.443229","283148.916982","283916.017738","284682.833127","285432.62173","286198.57298","290082.205753","290848.827291","291615.539107","292382.598434","293149.110833","279332.978609","280098.839271","280848.942303","292392.667896","Mapping"
"Mixed","Both","done","41","m150done.wav","None","720.295643434","159","289332.738381","281615.580845","282382.443229","283148.916982","283916.017738","284682.833127","285432.62173","286198.57298","290082.205753","290848.827291","291615.539107","292382.598434","293149.110833","293898.700019","280098.839271","280848.942303","293158.789191","Mapping"
"Mixed","Both","done","41","m150gnash.wav","space","475.005047396","159","289332.738381","281615.580845","282382.443229","283148.916982","283916.017738","284682.833127","285432.62173","286198.57298","290082.205753","290848.827291","291615.539107","292382.598434","293149.110833","293898.700019","294665.316919","280848.942303","293907.802697","Mapping"
"Mixed","Both","done","41","m150romp.wav","None","731.049924158","159","289332.738381","281615.580845","282382.443229","283148.916982","283916.017738","284682.833127","285432.62173","286198.57298","290082.205753","290848.827291","291615.539107","292382.598434","293149.110833","293898.700019","294665.316919","295432.234027","294674.677138","Mapping"
"Mixed","Both","done","41","m160done.wav","None","727.609754074","159","289332.738381","296198.710562","282382.443229","283148.916982","283916.017738","284682.833127","285432.62173","286198.57298","290082.205753","290848.827291","291615.539107","292382.598434","293149.110833","293898.700019","294665.316919","295432.234027","295441.680814","Mapping"
"Mixed","Both","done","41","m160tile.wav","space","478.630103171","159","289332.738381","296198.710562","296965.997441","283148.916982","283916.017738","284682.833127","285432.62173","286198.57298","290082.205753","290848.827291","291615.539107","292382.598434","293149.110833","293898.700019","294665.316919","295432.234027","296208.169407","Mapping"
"Mixed","Both","done","41","m150done.wav","None","719.716562424","159","289332.738381","296198.710562","296965.997441","297715.165842","283916.017738","284682.833127","285432.62173","286198.57298","290082.205753","290848.827291","291615.539107","292382.598434","293149.110833","293898.700019","294665.316919","295432.234027","296975.948489","Mapping"
"Mixed","Both","done","41","m150cling.wav","space","481.619807892","159","289332.738381","296198.710562","296965.997441","297715.165842","298482.064708","284682.833127","285432.62173","286198.57298","290082.205753","290848.827291","291615.539107","292382.598434","293149.110833","293898.700019","294665.316919","295432.234027","297725.123692","Mapping"
"Mixed","Both","done","41","m160tile.wav","None","730.615227018","159","289332.738381","296198.710562","296965.997441","297715.165842","298482.064708","299248.687173","285432.62173","286198.57298","290082.205753","290848.827291","291615.539107","292382.598434","293149.110833","293898.700019","294665.316919","295432.234027","298491.765326","Mapping"
"Mixed","Both","done","41","m160gnash.wav","None","727.951699402","159","289332.738381","296198.710562","296965.997441","297715.165842","298482.064708","299248.687173","300015.322005","286198.57298","290082.205753","290848.827291","291615.539107","292382.598434","293149.110833","293898.700019","294665.316919","295432.234027","299258.014311","Mapping"
"Mixed","Both","done","41","m150priest.wav","None","725.08257255","159","289332.738381","296198.710562","296965.997441","297715.165842","298482.064708","299248.687173","300015.322005","300782.406994","290082.205753","290848.827291","291615.539107","292382.598434","293149.110833","293898.700019","294665.316919","295432.234027","300024.690881","Mapping"
"Mixed","Both","cave","17","m160lash.wav","None","721.754941158","159","303898.953232","296198.710562","296965.997441","297715.165842","298482.064708","299248.687173","300015.322005","300782.406994","290082.205753","290848.827291","291615.539107","292382.598434","293149.110833","293898.700019","294665.316919","295432.234027","300792.067111","Mapping"
"Mixed","Both","cave","17","m160cave.wav","None","722.297849599","159","303898.953232","296198.710562","296965.997441","297715.165842","298482.064708","299248.687173","300015.322005","300782.406994","304665.824582","290848.827291","291615.539107","292382.598434","293149.110833","293898.700019","294665.316919","295432.234027","303908.6016","Mapping"
"Mixed","Both","cave","17","m150lash.wav","space","626.756838057","159","303898.953232","296198.710562","296965.997441","297715.165842","298482.064708","299248.687173","300015.322005","300782.406994","304665.824582","305415.293191","291615.539107","292382.598434","293149.110833","293898.700019","294665.316919","295432.234027","304675.834064","Mapping"
"Mixed","Both","cave","17","m150priest.wav","None","732.804173138","159","303898.953232","296198.710562","296965.997441","297715.165842","298482.064708","299248.687173","300015.322005","300782.406994","304665.824582","305415.293191","306181.889685","292382.598434","293149.110833","293898.700019","294665.316919","295432.234027","305424.594666","Mapping"
"Mixed","Both","cave","17","m150cave.wav","None","730.04665738","159","303898.953232","296198.710562","296965.997441","297715.165842","298482.064708","299248.687173","300015.322005","300782.406994","304665.824582","305415.293191","306181.889685","306948.548014","293149.110833","293898.700019","294665.316919","295432.234027","306191.309574","Mapping"
"Mixed","Both","cave","17","m150lash.wav","space","640.408071689","159","303898.953232","296198.710562","296965.997441","297715.165842","298482.064708","299248.687173","300015.322005","300782.406994","304665.824582","305415.293191","306181.889685","306948.548014","307714.973846","293898.700019","294665.316919","295432.234027","306958.173813","Mapping"
"Mixed","Both","cave","17","m160priest.wav","None","723.775079008","159","303898.953232","296198.710562","296965.997441","297715.165842","298482.064708","299248.687173","300015.322005","300782.406994","304665.824582","305415.293191","306181.889685","306948.548014","307714.973846","308482.50899","294665.316919","295432.234027","307723.980679","Mapping"
"Mixed","Both","cave","17","m150park.wav","None","718.953522854","159","303898.953232","296198.710562","296965.997441","297715.165842","298482.064708","299248.687173","300015.322005","300782.406994","304665.824582","305415.293191","306181.889685","306948.548014","307714.973846","308482.50899","309231.962758","295432.234027","308492.540424","Mapping"
"Mixed","Both","cave","17","m160ball.wav","None","733.510942664","159","303898.953232","296198.710562","296965.997441","297715.165842","298482.064708","299248.687173","300015.322005","300782.406994","304665.824582","305415.293191","306181.889685","306948.548014","307714.973846","308482.50899","309231.962758","309998.447023","309241.646063","Mapping"
"Mixed","Both","cave","17","m160cad.wav","None","731.573973317","159","303898.953232","310765.094222","296965.997441","297715.165842","298482.064708","299248.687173","300015.322005","300782.406994","304665.824582","305415.293191","306181.889685","306948.548014","307714.973846","308482.50899","309231.962758","309998.447023","310007.870622","Mapping"
"Mixed","Both","cave","17","m160romp.wav","None","732.228802051","159","303898.953232","310765.094222","311531.884877","297715.165842","298482.064708","299248.687173","300015.322005","300782.406994","304665.824582","305415.293191","306181.889685","306948.548014","307714.973846","308482.50899","309231.962758","309998.447023","310774.521531","Mapping"
"Mixed","Both","cave","17","m160tile.wav","None","729.210652877","159","303898.953232","310765.094222","311531.884877","312298.375944","298482.064708","299248.687173","300015.322005","300782.406994","304665.824582","305415.293191","306181.889685","306948.548014","307714.973846","308482.50899","309231.962758","309998.447023","311541.411122","Mapping"
"Mixed","Both","cave","17","m150cave.wav","None","726.87608609","159","303898.953232","310765.094222","311531.884877","312298.375944","313065.649219","299248.687173","300015.322005","300782.406994","304665.824582","305415.293191","306181.889685","306948.548014","307714.973846","308482.50899","309231.962758","309998.447023","312307.511703","Mapping"
"Mixed","Both","cave","17","m150depth.wav","space","474.212018307","159","303898.953232","310765.094222","311531.884877","312298.375944","313065.649219","313815.028786","300015.322005","300782.406994","304665.824582","305415.293191","306181.889685","306948.548014","307714.973846","308482.50899","309231.962758","309998.447023","313076.278284","Mapping"
"Mixed","Both","cave","17","m160cave.wav","None","736.837955657","159","303898.953232","310765.094222","311531.884877","312298.375944","313065.649219","313815.028786","314581.373304","300782.406994","304665.824582","305415.293191","306181.889685","306948.548014","307714.973846","308482.50899","309231.962758","309998.447023","313823.958635","Mapping"
"Mixed","Both","cave","17","m150done.wav","None","734.052923508","159","303898.953232","310765.094222","311531.884877","312298.375944","313065.649219","313815.028786","314581.373304","315348.319164","304665.824582","305415.293191","306181.889685","306948.548014","307714.973846","308482.50899","309231.962758","309998.447023","314590.434243","Mapping"
"Mixed","Both","tile","35","m160romp.wav","space","0.0346275046468","159","318482.128398","310765.094222","311531.884877","312298.375944","313065.649219","313815.028786","314581.373304","315348.319164","304665.824582","305415.293191","306181.889685","306948.548014","307714.973846","308482.50899","309231.962758","309998.447023","315357.812327","Mapping"
"Mixed","Both","tile","35","m150cling.wav","None","719.400896691","159","318482.128398","310765.094222","311531.884877","312298.375944","313065.649219","313815.028786","314581.373304","315348.319164","319231.216723","305415.293191","306181.889685","306948.548014","307714.973846","308482.50899","309231.962758","309998.447023","318492.002462","Mapping"
"Mixed","Both","tile","35","m150park.wav","None","735.096074175","159","318482.128398","310765.094222","311531.884877","312298.375944","313065.649219","313815.028786","314581.373304","315348.319164","319231.216723","319998.009234","306181.889685","306948.548014","307714.973846","308482.50899","309231.962758","309998.447023","319240.209026","Mapping"
"Mixed","Both","tile","35","m160knife.wav","None","732.382151764","159","318482.128398","310765.094222","311531.884877","312298.375944","313065.649219","313815.028786","314581.373304","315348.319164","319231.216723","319998.009234","320764.860487","306948.548014","307714.973846","308482.50899","309231.962758","309998.447023","320007.233416","Mapping"
"Mixed","Both","tile","35","m150tile.wav","None","728.967952076","159","318482.128398","310765.094222","311531.884877","312298.375944","313065.649219","313815.028786","314581.373304","315348.319164","319231.216723","319998.009234","320764.860487","321531.716069","307714.973846","308482.50899","309231.962758","309998.447023","320774.423523","Mapping"
"Mixed","Both","tile","35","m160greet.wav","space","481.131932698","159","318482.128398","310765.094222","311531.884877","312298.375944","313065.649219","313815.028786","314581.373304","315348.319164","319231.216723","319998.009234","320764.860487","321531.716069","322299.036338","308482.50899","309231.962758","309998.447023","321541.167803","Mapping"
"Mixed","Both","tile","35","m160tile.wav","None","721.348997205","159","318482.128398","310765.094222","311531.884877","312298.375944","313065.649219","313815.028786","314581.373304","315348.319164","319231.216723","319998.009234","320764.860487","321531.716069","322299.036338","323065.101055","309231.962758","309998.447023","322309.154649","Mapping"
"Mixed","Both","tile","35","m150done.wav","None","719.645452686","159","318482.128398","310765.094222","311531.884877","312298.375944","313065.649219","313815.028786","314581.373304","315348.319164","319231.216723","319998.009234","320764.860487","321531.716069","322299.036338","323065.101055","323814.533181","309998.447023","323074.760244","Mapping"
"Mixed","Both","tile","35","m160romp.wav","space","22.3241602071","159","318482.128398","310765.094222","311531.884877","312298.375944","313065.649219","313815.028786","314581.373304","315348.319164","319231.216723","319998.009234","320764.860487","321531.716069","322299.036338","323065.101055","323814.533181","324581.658362","323823.933901","Mapping"
"Mixed","Both","tile","35","m160tile.wav","None","730.306671932","159","318482.128398","325347.856641","311531.884877","312298.375944","313065.649219","313815.028786","314581.373304","315348.319164","319231.216723","319998.009234","320764.860487","321531.716069","322299.036338","323065.101055","323814.533181","324581.658362","324591.180896","Mapping"
"Mixed","Both","tile","35","m150knife.wav","space","513.335412834","159","318482.128398","325347.856641","326115.034381","312298.375944","313065.649219","313815.028786","314581.373304","315348.319164","319231.216723","319998.009234","320764.860487","321531.716069","322299.036338","323065.101055","323814.533181","324581.658362","325356.938604","Mapping"
"Mixed","Both","tile","35","m150ball.wav","None","723.649245687","159","318482.128398","325347.856641","326115.034381","326882.02569","313065.649219","313815.028786","314581.373304","315348.319164","319231.216723","319998.009234","320764.860487","321531.716069","322299.036338","323065.101055","323814.533181","324581.658362","326124.970899","Mapping"
"Mixed","Both","tile","35","m150tile.wav","None","720.682419371","159","318482.128398","325347.856641","326115.034381","326882.02569","327631.424426","313815.028786","314581.373304","315348.319164","319231.216723","319998.009234","320764.860487","321531.716069","322299.036338","323065.101055","323814.533181","324581.658362","326891.896045","Mapping"
"Mixed","Both","tile","35","m160dime.wav","space","413.34787244","159","318482.128398","325347.856641","326115.034381","326882.02569","327631.424426","328398.111817","314581.373304","315348.319164","319231.216723","319998.009234","320764.860487","321531.716069","322299.036338","323065.101055","323814.533181","324581.658362","327640.836277","Mapping"
"Mixed","Both","tile","35","m150greet.wav","None","731.7746263","159","318482.128398","325347.856641","326115.034381","326882.02569","327631.424426","328398.111817","329164.699037","315348.319164","319231.216723","319998.009234","320764.860487","321531.716069","322299.036338","323065.101055","323814.533181","324581.658362","328408.025147","Mapping"
"Mixed","Both","tile","35","m160jolt.wav","None","732.583732344","159","318482.128398","325347.856641","326115.034381","326882.02569","327631.424426","328398.111817","329164.699037","329931.525247","319231.216723","319998.009234","320764.860487","321531.716069","322299.036338","323065.101055","323814.533181","324581.658362","329174.66709","Mapping"
"Mixed","Both","cave","20","m150park.wav","None","735.726168845","159","333064.726955","325347.856641","326115.034381","326882.02569","327631.424426","328398.111817","329164.699037","329931.525247","319231.216723","319998.009234","320764.860487","321531.716069","322299.036338","323065.101055","323814.533181","324581.658362","329935.531823","Mapping"
"Mixed","Both","cave","20","m150romp.wav","None","719.887535088","159","333064.726955","325347.856641","326115.034381","326882.02569","327631.424426","328398.111817","329164.699037","329931.525247","333814.516486","319998.009234","320764.860487","321531.716069","322299.036338","323065.101055","323814.533181","324581.658362","333074.919777","Mapping"
"Mixed","Both","cave","20","m160cling.wav","None","734.702187125","159","333064.726955","325347.856641","326115.034381","326882.02569","327631.424426","328398.111817","329164.699037","329931.525247","333814.516486","334581.038779","320764.860487","321531.716069","322299.036338","323065.101055","323814.533181","324581.658362","333823.874231","Mapping"
"Mixed","Both","cave","20","m160cave.wav","None","736.234758515","159","333064.726955","325347.856641","326115.034381","326882.02569","327631.424426","328398.111817","329164.699037","329931.525247","333814.516486","334581.038779","335347.981238","321531.716069","322299.036338","323065.101055","323814.533181","324581.658362","334589.864746","Mapping"
"Mixed","Both","cave","20","m160greet.wav","space","433.036640752","159","333064.726955","325347.856641","326115.034381","326882.02569","327631.424426","328398.111817","329164.699037","329931.525247","333814.516486","334581.038779","335347.981238","336114.341834","322299.036338","323065.101055","323814.533181","324581.658362","335357.056708","Mapping"
"Mixed","Both","cave","20","m150cling.wav","None","729.413779918","159","333064.726955","325347.856641","326115.034381","326882.02569","327631.424426","328398.111817","329164.699037","329931.525247","333814.516486","334581.038779","335347.981238","336114.341834","336881.365606","323065.101055","323814.533181","324581.658362","336123.425342","Mapping"
"Mixed","Both","cave","20","m150cave.wav","None","725.998961832","159","333064.726955","325347.856641","326115.034381","326882.02569","327631.424426","328398.111817","329164.699037","329931.525247","333814.516486","334581.038779","335347.981238","336114.341834","336881.365606","337648.29879","323814.533181","324581.658362","336890.915038","Mapping"
"Mixed","Both","cave","20","m160lash.wav","space","515.705843922","159","333064.726955","325347.856641","326115.034381","326882.02569","327631.424426","328398.111817","329164.699037","329931.525247","333814.516486","334581.038779","335347.981238","336114.341834","336881.365606","337648.29879","338415.166738","324581.658362","337658.315693","Mapping"
"Mixed","Both","cave","20","m160done.wav","None","718.513878528","159","333064.726955","325347.856641","326115.034381","326882.02569","327631.424426","328398.111817","329164.699037","329931.525247","333814.516486","334581.038779","335347.981238","336114.341834","336881.365606","337648.29879","338415.166738","339164.599174","338425.238365","Mapping"
"Mixed","Both","cave","20","m150park.wav","None","733.559792396","159","333064.726955","339931.49062","326115.034381","326882.02569","327631.424426","328398.111817","329164.699037","329931.525247","333814.516486","334581.038779","335347.981238","336114.341834","336881.365606","337648.29879","338415.166738","339164.599174","339174.015044","Mapping"
"Mixed","Both","cave","20","m160cad.wav","None","729.829308577","159","333064.726955","339931.49062","340697.963754","326882.02569","327631.424426","328398.111817","329164.699037","329931.525247","333814.516486","334581.038779","335347.981238","336114.341834","336881.365606","337648.29879","338415.166738","339164.599174","339941.602439","Mapping"
"Mixed","Both","cave","20","m160cave.wav","None","728.330127895","159","333064.726955","339931.49062","340697.963754","341464.5451","327631.424426","328398.111817","329164.699037","329931.525247","333814.516486","334581.038779","335347.981238","336114.341834","336881.365606","337648.29879","338415.166738","339164.599174","340706.948327","Mapping"
"Mixed","Both","cave","20","m150priest.wav","space","459.964698181","159","333064.726955","339931.49062","340697.963754","341464.5451","342231.638436","328398.111817","329164.699037","329931.525247","333814.516486","334581.038779","335347.981238","336114.341834","336881.365606","337648.29879","338415.166738","339164.599174","341473.99436","Mapping"
"Mixed","Both","cave","20","m150cave.wav","None","720.703443512","159","333064.726955","339931.49062","340697.963754","341464.5451","342231.638436","342981.047683","329164.699037","329931.525247","333814.516486","334581.038779","335347.981238","336114.341834","336881.365606","337648.29879","338415.166738","339164.599174","342241.569079","Mapping"
"Mixed","Both","cave","20","m150depth.wav","space","551.012495998","159","333064.726955","339931.49062","340697.963754","341464.5451","342231.638436","342981.047683","343747.868328","329931.525247","333814.516486","334581.038779","335347.981238","336114.341834","336881.365606","337648.29879","338415.166738","339164.599174","342990.910308","Mapping"
"Mixed","Both","cave","20","m160gnash.wav","None","732.059684116","159","333064.726955","339931.49062","340697.963754","341464.5451","342231.638436","342981.047683","343747.868328","344514.416592","333814.516486","334581.038779","335347.981238","336114.341834","336881.365606","337648.29879","338415.166738","339164.599174","343757.443731","Mapping"
"Mixed","Both","ball","3","m160tile.wav","None","729.501275811","159","347648.23541","339931.49062","340697.963754","341464.5451","342231.638436","342981.047683","343747.868328","344514.416592","333814.516486","334581.038779","335347.981238","336114.341834","336881.365606","337648.29879","338415.166738","339164.599174","344523.744656","Mapping"
"Mixed","Both","ball","3","m150ball.wav","None","718.977329321","159","347648.23541","339931.49062","340697.963754","341464.5451","342231.638436","342981.047683","343747.868328","344514.416592","348397.35558","334581.038779","335347.981238","336114.341834","336881.365606","337648.29879","338415.166738","339164.599174","347658.58962","Mapping"
"Mixed","Both","ball","3","m150reek.wav","space","399.354075082","159","347648.23541","339931.49062","340697.963754","341464.5451","342231.638436","342981.047683","343747.868328","344514.416592","348397.35558","349164.316589","335347.981238","336114.341834","336881.365606","337648.29879","338415.166738","339164.599174","348406.458566","Mapping"
"Mixed","Both","ball","3","m150ball.wav","None","735.851075035","159","347648.23541","339931.49062","340697.963754","341464.5451","342231.638436","342981.047683","343747.868328","344514.416592","348397.35558","349164.316589","349931.254412","336114.341834","336881.365606","337648.29879","338415.166738","339164.599174","349174.055855","Mapping"
"Mixed","Both","ball","3","m150dime.wav","space","585.008253343","159","347648.23541","339931.49062","340697.963754","341464.5451","342231.638436","342981.047683","343747.868328","344514.416592","348397.35558","349164.316589","349931.254412","350697.418064","336881.365606","337648.29879","338415.166738","339164.599174","349940.783439","Mapping"
"Mixed","Both","ball","3","m160jolt.wav","None","733.915342018","159","347648.23541","339931.49062","340697.963754","341464.5451","342231.638436","342981.047683","343747.868328","344514.416592","348397.35558","349164.316589","349931.254412","350697.418064","351464.241492","337648.29879","338415.166738","339164.599174","350707.131667","Mapping"
"Mixed","Both","ball","3","m150dime.wav","None","731.094136368","159","347648.23541","339931.49062","340697.963754","341464.5451","342231.638436","342981.047683","343747.868328","344514.416592","348397.35558","349164.316589","349931.254412","350697.418064","351464.241492","352230.843242","338415.166738","339164.599174","351473.91212","Mapping"
"Mixed","Both","ball","3","m160ball.wav","None","729.016182944","159","347648.23541","339931.49062","340697.963754","341464.5451","342231.638436","342981.047683","343747.868328","344514.416592","348397.35558","349164.316589","349931.254412","350697.418064","351464.241492","352230.843242","352997.354405","339164.599174","352240.183055","Mapping"
"Mixed","Both","ball","3","m150priest.wav","space","423.361992929","159","347648.23541","339931.49062","340697.963754","341464.5451","342231.638436","342981.047683","343747.868328","344514.416592","348397.35558","349164.316589","349931.254412","350697.418064","351464.241492","352230.843242","352997.354405","353764.708992","353006.375151","Mapping"
"Mixed","Both","ball","3","m160cave.wav","None","721.785240341","159","347648.23541","354531.428538","340697.963754","341464.5451","342231.638436","342981.047683","343747.868328","344514.416592","348397.35558","349164.316589","349931.254412","350697.418064","351464.241492","352230.843242","352997.354405","353764.708992","353774.779691","Mapping"
"Mixed","Both","ball","3","m160lash.wav","None","719.385437667","159","347648.23541","354531.428538","355281.035656","341464.5451","342231.638436","342981.047683","343747.868328","344514.416592","348397.35558","349164.316589","349931.254412","350697.418064","351464.241492","352230.843242","352997.354405","353764.708992","354541.189445","Mapping"
"Mixed","Both","ball","3","m160ball.wav","None","734.324995894","159","347648.23541","354531.428538","355281.035656","356047.297007","342231.638436","342981.047683","343747.868328","344514.416592","348397.35558","349164.316589","349931.254412","350697.418064","351464.241492","352230.843242","352997.354405","353764.708992","355290.355064","Mapping"
"Mixed","Both","ball","3","m150bluff.wav","space","613.298219629","159","347648.23541","354531.428538","355281.035656","356047.297007","356814.399618","342981.047683","343747.868328","344514.416592","348397.35558","349164.316589","349931.254412","350697.418064","351464.241492","352230.843242","352997.354405","353764.708992","356056.369385","Mapping"
"Mixed","Both","ball","3","m150priest.wav","None","730.304507539","159","347648.23541","354531.428538","355281.035656","356047.297007","356814.399618","357581.145443","343747.868328","344514.416592","348397.35558","349164.316589","349931.254412","350697.418064","351464.241492","352230.843242","352997.354405","353764.708992","356824.791857","Mapping"
"Mixed","Both","ball","3","m160done.wav","None","727.858020458","159","347648.23541","354531.428538","355281.035656","356047.297007","356814.399618","357581.145443","358347.611776","344514.416592","348397.35558","349164.316589","349931.254412","350697.418064","351464.241492","352230.843242","352997.354405","353764.708992","357591.202538","Mapping"
"Mixed","Both","ball","3","m160priest.wav","None","726.336888038","159","347648.23541","354531.428538","355281.035656","356047.297007","356814.399618","357581.145443","358347.611776","359115.039638","348397.35558","349164.316589","349931.254412","350697.418064","351464.241492","352230.843242","352997.354405","353764.708992","358356.744444","Mapping"
"Mixed","Both","ball","4","m150park.wav","None","722.504686099","159","362231.470864","354531.428538","355281.035656","356047.297007","356814.399618","357581.145443","358347.611776","359115.039638","348397.35558","349164.316589","349931.254412","350697.418064","351464.241492","352230.843242","352997.354405","353764.708992","359124.639775","Mapping"
"Mixed","Both","ball","4","m150jaw.wav","None","719.178910367","159","362231.470864","354531.428538","355281.035656","356047.297007","356814.399618","357581.145443","358347.611776","359115.039638","362980.504157","349164.316589","349931.254412","350697.418064","351464.241492","352230.843242","352997.354405","353764.708992","362241.40769","Mapping"
"Mixed","Both","ball","4","m150ball.wav","None","735.105967615","159","362231.470864","354531.428538","355281.035656","356047.297007","356814.399618","357581.145443","358347.611776","359115.039638","362980.504157","363747.873275","349931.254412","350697.418064","351464.241492","352230.843242","352997.354405","353764.708992","362989.856645","Mapping"
"Mixed","Both","ball","4","m160reek.wav","space","408.120681532","159","362231.470864","354531.428538","355281.035656","356047.297007","356814.399618","357581.145443","358347.611776","359115.039638","362980.504157","363747.873275","364514.082685","350697.418064","351464.241492","352230.843242","352997.354405","353764.708992","363757.41436","Mapping"
"Mixed","Both","ball","4","m150priest.wav","None","727.621811908","159","362231.470864","354531.428538","355281.035656","356047.297007","356814.399618","357581.145443","358347.611776","359115.039638","362980.504157","363747.873275","364514.082685","365280.95187","351464.241492","352230.843242","352997.354405","353764.708992","364524.286946","Mapping"
"Mixed","Both","ball","4","m150tile.wav","None","725.379069801","159","362231.470864","354531.428538","355281.035656","356047.297007","356814.399618","357581.145443","358347.611776","359115.039638","362980.504157","363747.873275","364514.082685","365280.95187","366047.945343","352230.843242","352997.354405","353764.708992","365290.669184","Mapping"
"Mixed","Both","ball","4","m150cad.wav","None","722.59465605","159","362231.470864","354531.428538","355281.035656","356047.297007","356814.399618","357581.145443","358347.611776","359115.039638","362980.504157","363747.873275","364514.082685","365280.95187","366047.945343","366813.928129","352997.354405","353764.708992","366057.535896","Mapping"
"Mixed","Both","ball","4","m160ball.wav","None","724.911290687","159","362231.470864","354531.428538","355281.035656","356047.297007","356814.399618","357581.145443","358347.611776","359115.039638","362980.504157","363747.873275","364514.082685","365280.95187","366047.945343","366813.928129","367581.528509","353764.708992","366823.053376","Mapping"
"Mixed","Both","ball","4","m160dime.wav","space","422.11788008","159","362231.470864","354531.428538","355281.035656","356047.297007","356814.399618","357581.145443","358347.611776","359115.039638","362980.504157","363747.873275","364514.082685","365280.95187","366047.945343","366813.928129","367581.528509","368330.267778","367591.384023","Mapping"
"Mixed","Both","ball","4","m150jaw.wav","None","736.484570894","159","362231.470864","369097.388012","355281.035656","356047.297007","356814.399618","357581.145443","358347.611776","359115.039638","362980.504157","363747.873275","364514.082685","365280.95187","366047.945343","366813.928129","367581.528509","368330.267778","368339.176604","Mapping"
"Mixed","Both","ball","4","m150ball.wav","None","733.365631662","159","362231.470864","369097.388012","369863.959464","356047.297007","356814.399618","357581.145443","358347.611776","359115.039638","362980.504157","363747.873275","364514.082685","365280.95187","366047.945343","366813.928129","367581.528509","368330.267778","369106.436893","Mapping"
"Mixed","Both","ball","4","m160tile.wav","space","475.992855616","159","362231.470864","369097.388012","369863.959464","370630.815973","356814.399618","357581.145443","358347.611776","359115.039638","362980.504157","363747.873275","364514.082685","365280.95187","366047.945343","366813.928129","367581.528509","368330.267778","369873.458501","Mapping"
"Mixed","Both","ball","4","m160jolt.wav","None","727.560904808","159","362231.470864","369097.388012","369863.959464","370630.815973","371397.363309","357581.145443","358347.611776","359115.039638","362980.504157","363747.873275","364514.082685","365280.95187","366047.945343","366813.928129","367581.528509","368330.267778","370640.197834","Mapping"
"Mixed","Both","ball","4","m160depth.wav","None","725.618060213","159","362231.470864","369097.388012","369863.959464","370630.815973","371397.363309","372163.941563","358347.611776","359115.039638","362980.504157","363747.873275","364514.082685","365280.95187","366047.945343","366813.928129","367581.528509","368330.267778","371406.931911","Mapping"
"Mixed","Both","ball","4","m160ball.wav","None","723.552474286","159","362231.470864","369097.388012","369863.959464","370630.815973","371397.363309","372163.941563","372931.234315","359115.039638","362980.504157","363747.873275","364514.082685","365280.95187","366047.945343","366813.928129","367581.528509","368330.267778","372173.15616","Mapping"
"Mixed","Both","ball","4","m160done.wav","space","464.371034876","159","362231.470864","369097.388012","369863.959464","370630.815973","371397.363309","372163.941563","372931.234315","373680.302854","362980.504157","363747.873275","364514.082685","365280.95187","366047.945343","366813.928129","367581.528509","368330.267778","372941.001406","Mapping"
"Mixed","Both","tile","29","m160gnash.wav","None","734.530287329","159","376814.260181","369097.388012","369863.959464","370630.815973","371397.363309","372163.941563","372931.234315","373680.302854","362980.504157","363747.873275","364514.082685","365280.95187","366047.945343","366813.928129","367581.528509","368330.267778","373689.25249","Mapping"
"Mixed","Both","tile","29","m150depth.wav","None","719.561975915","159","376814.260181","369097.388012","369863.959464","370630.815973","371397.363309","372163.941563","372931.234315","373680.302854","377563.758779","363747.873275","364514.082685","365280.95187","366047.945343","366813.928129","367581.528509","368330.267778","376823.826","Mapping"
"Mixed","Both","tile","29","m150dime.wav","None","734.404762741","159","376814.260181","369097.388012","369863.959464","370630.815973","371397.363309","372163.941563","372931.234315","373680.302854","377563.758779","378330.238716","364514.082685","365280.95187","366047.945343","366813.928129","367581.528509","368330.267778","377573.35366","Mapping"
"Mixed","Both","tile","29","m160tile.wav","None","732.914547902","159","376814.260181","369097.388012","369863.959464","370630.815973","371397.363309","372163.941563","372931.234315","373680.302854","377563.758779","378330.238716","379097.18705","365280.95187","366047.945343","366813.928129","367581.528509","368330.267778","378339.248641","Mapping"
"Mixed","Both","tile","29","m150dime.wav","space","498.482423369","159","376814.260181","369097.388012","369863.959464","370630.815973","371397.363309","372163.941563","372931.234315","373680.302854","377563.758779","378330.238716","379097.18705","379863.912778","366047.945343","366813.928129","367581.528509","368330.267778","379106.815321","Mapping"
"Mixed","Both","tile","29","m160lash.wav","None","726.285874378","159","376814.260181","369097.388012","369863.959464","370630.815973","371397.363309","372163.941563","372931.234315","373680.302854","377563.758779","378330.238716","379097.18705","379863.912778","380630.952627","366813.928129","367581.528509","368330.267778","379873.239607","Mapping"
"Mixed","Both","tile","29","m160tile.wav","None","723.048212938","159","376814.260181","369097.388012","369863.959464","370630.815973","371397.363309","372163.941563","372931.234315","373680.302854","377563.758779","378330.238716","379097.18705","379863.912778","380630.952627","381397.510475","367581.528509","368330.267778","380640.801031","Mapping"
"Mixed","Both","tile","29","m160done.wav","None","720.725703984","159","376814.260181","369097.388012","369863.959464","370630.815973","371397.363309","372163.941563","372931.234315","373680.302854","377563.758779","378330.238716","379097.18705","379863.912778","380630.952627","381397.510475","382164.009272","368330.267778","381407.428133","Mapping"
"Mixed","Both","tile","29","m150priest.wav","space","0.041738152504","159","376814.260181","369097.388012","369863.959464","370630.815973","371397.363309","372163.941563","372931.234315","373680.302854","377563.758779","378330.238716","379097.18705","379863.912778","380630.952627","381397.510475","382164.009272","382913.552391","382174.082444","Mapping"
"Mixed","Both","tile","29","m150tile.wav","None","733.344298787","159","376814.260181","383680.57338","369863.959464","370630.815973","371397.363309","372163.941563","372931.234315","373680.302854","377563.758779","378330.238716","379097.18705","379863.912778","380630.952627","381397.510475","382164.009272","382913.552391","382922.657851","Mapping"
"Mixed","Both","tile","29","m160park.wav","space","586.886171717","159","376814.260181","383680.57338","384447.118552","370630.815973","371397.363309","372163.941563","372931.234315","373680.302854","377563.758779","378330.238716","379097.18705","379863.912778","380630.952627","381397.510475","382164.009272","382913.552391","383690.297805","Mapping"
"Mixed","Both","tile","29","m150tile.wav","None","726.558256429","159","376814.260181","383680.57338","384447.118552","385214.370494","371397.363309","372163.941563","372931.234315","373680.302854","377563.758779","378330.238716","379097.18705","379863.912778","380630.952627","381397.510475","382164.009272","382913.552391","384456.5876","Mapping"
"Mixed","Both","tile","29","m160gnash.wav","space","508.695341647","159","376814.260181","383680.57338","384447.118552","385214.370494","385980.529199","372163.941563","372931.234315","373680.302854","377563.758779","378330.238716","379097.18705","379863.912778","380630.952627","381397.510475","382164.009272","382913.552391","385224.447067","Mapping"
"Mixed","Both","tile","29","m160jaw.wav","None","719.904230442","159","376814.260181","383680.57338","384447.118552","385214.370494","385980.529199","386730.320276","372931.234315","373680.302854","377563.758779","378330.238716","379097.18705","379863.912778","380630.952627","381397.510475","382164.009272","382913.552391","385990.717693","Mapping"
"Mixed","Both","tile","29","m150park.wav","None","735.293326899","159","376814.260181","383680.57338","384447.118552","385214.370494","385980.529199","386730.320276","387497.110931","373680.302854","377563.758779","378330.238716","379097.18705","379863.912778","380630.952627","381397.510475","382164.009272","382913.552391","386739.701518","Mapping"
"Mixed","Both","tile","29","m150done.wav","None","733.207334764","159","376814.260181","383680.57338","384447.118552","385214.370494","385980.529199","386730.320276","387497.110931","388263.62735","377563.758779","378330.238716","379097.18705","379863.912778","380630.952627","381397.510475","382164.009272","382913.552391","387506.340679","Mapping"
"Mixed","Both","ball","11","m150priest.wav","None","731.300972868","159","391397.323735","383680.57338","384447.118552","385214.370494","385980.529199","386730.320276","387497.110931","388263.62735","377563.758779","378330.238716","379097.18705","379863.912778","380630.952627","381397.510475","382164.009272","382913.552391","388272.950777","Mapping"
"Mixed","Both","ball","11","m150romp.wav","None","719.72274594","159","391397.323735","383680.57338","384447.118552","385214.370494","385980.529199","386730.320276","387497.110931","388263.62735","392146.988359","378330.238716","379097.18705","379863.912778","380630.952627","381397.510475","382164.009272","382913.552391","391407.080623","Mapping"
"Mixed","Both","ball","11","m160knife.wav","None","734.423931222","159","391397.323735","383680.57338","384447.118552","385214.370494","385980.529199","386730.320276","387497.110931","388263.62735","392146.988359","392913.727692","379097.18705","379863.912778","380630.952627","381397.510475","382164.009272","382913.552391","392156.665171","Mapping"
"Mixed","Both","ball","11","m160cling.wav","None","731.978062075","159","391397.323735","383680.57338","384447.118552","385214.370494","385980.529199","386730.320276","387497.110931","388263.62735","392146.988359","392913.727692","393680.418794","379863.912778","380630.952627","381397.510475","382164.009272","382913.552391","392923.722334","Mapping"
"Mixed","Both","ball","11","m150park.wav","None","730.110037606","159","391397.323735","383680.57338","384447.118552","385214.370494","385980.529199","386730.320276","387497.110931","388263.62735","392146.988359","392913.727692","393680.418794","394446.518447","380630.952627","381397.510475","382164.009272","382913.552391","393689.766955","Mapping"
"Mixed","Both","ball","11","m160knife.wav","None","728.423806839","159","391397.323735","383680.57338","384447.118552","385214.370494","385980.529199","386730.320276","387497.110931","388263.62735","392146.988359","392913.727692","393680.418794","394446.518447","395213.591378","381397.510475","382164.009272","382913.552391","394455.674611","Mapping"
"Mixed","Both","ball","11","m150cave.wav","None","725.424517877","159","391397.323735","383680.57338","384447.118552","385214.370494","385980.529199","386730.320276","387497.110931","388263.62735","392146.988359","392913.727692","393680.418794","394446.518447","395213.591378","395980.157882","382164.009272","382913.552391","395222.937065","Mapping"
"Mixed","Both","ball","11","m150ball.wav","None","723.343782127","159","391397.323735","383680.57338","384447.118552","385214.370494","385980.529199","386730.320276","387497.110931","388263.62735","392146.988359","392913.727692","393680.418794","394446.518447","395213.591378","395980.157882","396747.225557","382913.552391","395989.309409","Mapping"
"Mixed","Both","ball","11","m160cad.wav","space","448.038651608","159","391397.323735","383680.57338","384447.118552","385214.370494","385980.529199","386730.320276","387497.110931","388263.62735","392146.988359","392913.727692","393680.418794","394446.518447","395213.591378","395980.157882","396747.225557","397496.874104","396756.922465","Mapping"
"Mixed","Both","ball","11","m150ball.wav","None","733.327294234","159","391397.323735","398263.142257","384447.118552","385214.370494","385980.529199","386730.320276","387497.110931","388263.62735","392146.988359","392913.727692","393680.418794","394446.518447","395213.591378","395980.157882","396747.225557","397496.874104","397506.945112","Mapping"
"Mixed","Both","ball","11","m150depth.wav","space","540.375391953","159","391397.323735","398263.142257","399030.454797","385214.370494","385980.529199","386730.320276","387497.110931","388263.62735","392146.988359","392913.727692","393680.418794","394446.518447","395213.591378","395980.157882","396747.225557","397496.874104","398272.562765","Mapping"
"Mixed","Both","ball","11","m160knife.wav","None","730.838140473","159","391397.323735","398263.142257","399030.454797","399796.824358","385980.529199","386730.320276","387497.110931","388263.62735","392146.988359","392913.727692","393680.418794","394446.518447","395213.591378","395980.157882","396747.225557","397496.874104","399040.010722","Mapping"
"Mixed","Both","ball","11","m160ball.wav","None","729.203541763","159","391397.323735","398263.142257","399030.454797","399796.824358","400563.194538","386730.320276","387497.110931","388263.62735","392146.988359","392913.727692","393680.418794","394446.518447","395213.591378","395980.157882","396747.225557","397496.874104","399805.933529","Mapping"
"Mixed","Both","ball","11","m150jolt.wav","space","616.636053193","159","391397.323735","398263.142257","399030.454797","399796.824358","400563.194538","401330.26716","387497.110931","388263.62735","392146.988359","392913.727692","393680.418794","394446.518447","395213.591378","395980.157882","396747.225557","397496.874104","400572.278665","Mapping"
"Mixed","Both","ball","11","m160ball.wav","None","726.347091142","159","391397.323735","398263.142257","399030.454797","399796.824358","400563.194538","401330.26716","402097.016695","388263.62735","392146.988359","392913.727692","393680.418794","394446.518447","395213.591378","395980.157882","396747.225557","397496.874104","401339.877808","Mapping"
"Mixed","Both","ball","11","m160reek.wav","None","723.571334034","159","391397.323735","398263.142257","399030.454797","399796.824358","400563.194538","401330.26716","402097.016695","402863.747062","392146.988359","392913.727692","393680.418794","394446.518447","395213.591378","395980.157882","396747.225557","397496.874104","402106.985366","Mapping"
"Mixed","Both","cave","21","m160cad.wav","space","0.034318305552","159","405980.437066","398263.142257","399030.454797","399796.824358","400563.194538","401330.26716","402097.016695","402863.747062","392146.988359","392913.727692","393680.418794","394446.518447","395213.591378","395980.157882","396747.225557","397496.874104","402873.719443","Mapping"
"Mixed","Both","cave","21","m160depth.wav","None","718.962179963","159","405980.437066","398263.142257","399030.454797","399796.824358","400563.194538","401330.26716","402097.016695","402863.747062","406729.995953","392913.727692","393680.418794","394446.518447","395213.591378","395980.157882","396747.225557","397496.874104","405990.776745","Mapping"
"Mixed","Both","cave","21","m160cave.wav","None","733.916578349","159","405980.437066","398263.142257","399030.454797","399796.824358","400563.194538","401330.26716","402097.016695","402863.747062","406729.995953","407496.815671","393680.418794","394446.518447","395213.591378","395980.157882","396747.225557","397496.874104","406740.174244","Mapping"
"Mixed","Both","cave","21","m150reek.wav","None","732.237458229","159","405980.437066","398263.142257","399030.454797","399796.824358","400563.194538","401330.26716","402097.016695","402863.747062","406729.995953","407496.815671","408263.230062","394446.518447","395213.591378","395980.157882","396747.225557","397496.874104","407506.012337","Mapping"
"Mixed","Both","cave","21","m160cave.wav","space","188.138384838","159","405980.437066","398263.142257","399030.454797","399796.824358","400563.194538","401330.26716","402097.016695","402863.747062","406729.995953","407496.815671","408263.230062","409030.166957","395213.591378","395980.157882","396747.225557","397496.874104","408272.604194","Mapping"
"Mixed","Both","cave","21","m160bluff.wav","space","700.524945278","159","405980.437066","398263.142257","399030.454797","399796.824358","400563.194538","401330.26716","402097.016695","402863.747062","406729.995953","407496.815671","408263.230062","409030.166957","409797.081281","395980.157882","396747.225557","397496.874104","409040.192207","Mapping"
"Mixed","Both","cave","21","m150cave.wav","None","721.429072786","159","405980.437066","398263.142257","399030.454797","399796.824358","400563.194538","401330.26716","402097.016695","402863.747062","406729.995953","407496.815671","408263.230062","409030.166957","409797.081281","410563.455171","396747.225557","397496.874104","409806.93494","Mapping"
"Mixed","Both","cave","21","m160cad.wav","space","551.065982785","159","405980.437066","398263.142257","399030.454797","399796.824358","400563.194538","401330.26716","402097.016695","402863.747062","406729.995953","407496.815671","408263.230062","409030.166957","409797.081281","410563.455171","411313.237282","397496.874104","410573.606873","Mapping"
"Mixed","Both","cave","21","m150park.wav","None","732.942373492","159","405980.437066","398263.142257","399030.454797","399796.824358","400563.194538","401330.26716","402097.016695","402863.747062","406729.995953","407496.815671","408263.230062","409030.166957","409797.081281","410563.455171","411313.237282","412079.653837","411322.675102","Mapping"
"Mixed","Both","cave","21","m150cave.wav","None","731.292316224","159","405980.437066","412846.607427","399030.454797","399796.824358","400563.194538","401330.26716","402097.016695","402863.747062","406729.995953","407496.815671","408263.230062","409030.166957","409797.081281","410563.455171","411313.237282","412079.653837","412088.703955","Mapping"
"Mixed","Both","cave","21","m150bluff.wav","space","541.038258933","159","405980.437066","412846.607427","413613.19712","399796.824358","400563.194538","401330.26716","402097.016695","402863.747062","406729.995953","407496.815671","408263.230062","409030.166957","409797.081281","410563.455171","411313.237282","412079.653837","412855.643632","Mapping"
"Mixed","Both","cave","21","m150cling.wav","None","724.3965175","159","405980.437066","412846.607427","413613.19712","414380.504404","400563.194538","401330.26716","402097.016695","402863.747062","406729.995953","407496.815671","408263.230062","409030.166957","409797.081281","410563.455171","411313.237282","412079.653837","413622.913197","Mapping"
"Mixed","Both","cave","21","m160done.wav","None","721.455970779","159","405980.437066","412846.607427","413613.19712","414380.504404","415146.911066","401330.26716","402097.016695","402863.747062","406729.995953","407496.815671","408263.230062","409030.166957","409797.081281","410563.455171","411313.237282","412079.653837","414390.227901","Mapping"
"Mixed","Both","cave","21","m160done.wav","None","718.648987357","159","405980.437066","412846.607427","413613.19712","414380.504404","415146.911066","415896.453567","402097.016695","402863.747062","406729.995953","407496.815671","408263.230062","409030.166957","409797.081281","410563.455171","411313.237282","412079.653837","415157.279189","Mapping"
"Mixed","Both","cave","21","m150jolt.wav","None","734.792775009","159","405980.437066","412846.607427","413613.19712","414380.504404","415146.911066","415896.453567","416663.387061","402863.747062","406729.995953","407496.815671","408263.230062","409030.166957","409797.081281","410563.455171","411313.237282","412079.653837","415905.511105","Mapping"
"Mixed","Both","cave","21","m150gnash.wav","None","731.961057521","159","405980.437066","412846.607427","413613.19712","414380.504404","415146.911066","415896.453567","416663.387061","417429.986956","406729.995953","407496.815671","408263.230062","409030.166957","409797.081281","410563.455171","411313.237282","412079.653837","416672.714816","Mapping"
"Mixed","Both","cave","23","m150romp.wav","None","729.044936597","159","420563.542977","412846.607427","413613.19712","414380.504404","415146.911066","415896.453567","416663.387061","417429.986956","406729.995953","407496.815671","408263.230062","409030.166957","409797.081281","410563.455171","411313.237282","412079.653837","417439.985617","Mapping"
"Mixed","Both","cave","23","m160cad.wav","None","720.050469507","159","420563.542977","412846.607427","413613.19712","414380.504404","415146.911066","415896.453567","416663.387061","417429.986956","421312.797328","407496.815671","408263.230062","409030.166957","409797.081281","410563.455171","411313.237282","412079.653837","420573.430954","Mapping"
"Mixed","Both","cave","23","m160done.wav","None","735.736989882","159","420563.542977","412846.607427","413613.19712","414380.504404","415146.911066","415896.453567","416663.387061","417429.986956","421312.797328","422079.918799","408263.230062","409030.166957","409797.081281","410563.455171","411313.237282","412079.653837","421321.950092","Mapping"
"Mixed","Both","cave","23","m150cave.wav","None","732.889814302","159","420563.542977","412846.607427","413613.19712","414380.504404","415146.911066","415896.453567","416663.387061","417429.986956","421312.797328","422079.918799","422846.122643","409030.166957","409797.081281","410563.455171","411313.237282","412079.653837","422089.171734","Mapping"
"Mixed","Both","cave","23","m150gnash.wav","space","461.247458123","159","420563.542977","412846.607427","413613.19712","414380.504404","415146.911066","415896.453567","416663.387061","417429.986956","421312.797328","422079.918799","422846.122643","423612.81189","409797.081281","410563.455171","411313.237282","412079.653837","422855.26304","Mapping"
"Mixed","Both","cave","23","m160cave.wav","None","727.999312337","159","420563.542977","412846.607427","413613.19712","414380.504404","415146.911066","415896.453567","416663.387061","417429.986956","421312.797328","422079.918799","422846.122643","423612.81189","424379.399419","410563.455171","411313.237282","412079.653837","423621.597046","Mapping"
"Mixed","Both","cave","23","m150tile.wav","space","448.129239492","159","420563.542977","412846.607427","413613.19712","414380.504404","415146.911066","415896.453567","416663.387061","417429.986956","421312.797328","422079.918799","422846.122643","423612.81189","424379.399419","425146.702374","411313.237282","412079.653837","424388.330505","Mapping"
"Mixed","Both","cave","23","m150cave.wav","None","720.094990451","159","420563.542977","412846.607427","413613.19712","414380.504404","415146.911066","415896.453567","416663.387061","417429.986956","421312.797328","422079.918799","422846.122643","423612.81189","424379.399419","425146.702374","425896.07452","412079.653837","425156.768126","Mapping"
"Mixed","Both","cave","23","m160ball.wav","space","530.677246861","159","420563.542977","412846.607427","413613.19712","414380.504404","415146.911066","415896.453567","416663.387061","417429.986956","421312.797328","422079.918799","422846.122643","423612.81189","424379.399419","425146.702374","425896.07452","426662.910006","425905.768956","Mapping"
"Mixed","Both","cave","23","m150jaw.wav","None","731.73196055","159","420563.542977","427429.355624","413613.19712","414380.504404","415146.911066","415896.453567","416663.387061","417429.986956","421312.797328","422079.918799","422846.122643","423612.81189","424379.399419","425146.702374","425896.07452","426662.910006","426672.412444","Mapping"
"Mixed","Both","cave","23","m150cad.wav","None","730.290285777","159","420563.542977","427429.355624","428196.007152","414380.504404","415146.911066","415896.453567","416663.387061","417429.986956","421312.797328","422079.918799","422846.122643","423612.81189","424379.399419","425146.702374","425896.07452","426662.910006","427438.304333","Mapping"
"Mixed","Both","cave","23","m160cave.wav","None","733.937911224","159","420563.542977","427429.355624","428196.007152","428962.929824","415146.911066","415896.453567","416663.387061","417429.986956","421312.797328","422079.918799","422846.122643","423612.81189","424379.399419","425146.702374","425896.07452","426662.910006","428199.649521","Mapping"
"Mixed","Both","cave","23","m160jaw.wav","space","488.115227316","159","420563.542977","427429.355624","428196.007152","428962.929824","429730.314711","415896.453567","416663.387061","417429.986956","421312.797328","422079.918799","422846.122643","423612.81189","424379.399419","425146.702374","425896.07452","426662.910006","428972.269638","Mapping"
"Mixed","Both","cave","23","m160depth.wav","None","720.818455797","159","420563.542977","427429.355624","428196.007152","428962.929824","429730.314711","430496.056959","416663.387061","417429.986956","421312.797328","422079.918799","422846.122643","423612.81189","424379.399419","425146.702374","425896.07452","426662.910006","429740.158785","Mapping"
"Mixed","Both","cave","23","m160lash.wav","None","720.392724033","159","420563.542977","427429.355624","428196.007152","428962.929824","429730.314711","430496.056959","431246.176996","417429.986956","421312.797328","422079.918799","422846.122643","423612.81189","424379.399419","425146.702374","425896.07452","426662.910006","430505.10615","Mapping"
"Mixed","Both","cave","23","m150priest.wav","None","733.962954488","159","420563.542977","427429.355624","428196.007152","428962.929824","429730.314711","430496.056959","431246.176996","432012.786476","421312.797328","422079.918799","422846.122643","423612.81189","424379.399419","425146.702374","425896.07452","426662.910006","431255.94656","Mapping"
"Mixed","Both","tile","30","m150lash.wav","None","732.150271535","159","435146.510996","427429.355624","428196.007152","428962.929824","429730.314711","430496.056959","431246.176996","432012.786476","421312.797328","422079.918799","422846.122643","423612.81189","424379.399419","425146.702374","425896.07452","426662.910006","432022.268818","Mapping"
"Mixed","Both","tile","30","m150tile.wav","None","719.185711816","159","435146.510996","427429.355624","428196.007152","428962.929824","429730.314711","430496.056959","431246.176996","432012.786476","435895.727938","422079.918799","422846.122643","423612.81189","424379.399419","425146.702374","425896.07452","426662.910006","435156.921167","Mapping"
"Mixed","Both","tile","30","m150priest.wav","space","411.388332956","159","435146.510996","427429.355624","428196.007152","428962.929824","429730.314711","430496.056959","431246.176996","432012.786476","435895.727938","436663.01698","422846.122643","423612.81189","424379.399419","425146.702374","425896.07452","426662.910006","435904.883174","Mapping"
"Mixed","Both","tile","30","m150depth.wav","None","731.693004258","159","435146.510996","427429.355624","428196.007152","428962.929824","429730.314711","430496.056959","431246.176996","432012.786476","435895.727938","436663.01698","437429.708391","423612.81189","424379.399419","425146.702374","425896.07452","426662.910006","436672.254148","Mapping"
"Mixed","Both","tile","30","m160priest.wav","None","729.423673358","159","435146.510996","427429.355624","428196.007152","428962.929824","429730.314711","430496.056959","431246.176996","432012.786476","435895.727938","436663.01698","437429.708391","438196.113507","424379.399419","425146.702374","425896.07452","426662.910006","437439.229379","Mapping"
"Mixed","Both","tile","30","m150ball.wav","None","727.623976301","159","435146.510996","427429.355624","428196.007152","428962.929824","429730.314711","430496.056959","431246.176996","432012.786476","435895.727938","436663.01698","437429.708391","438196.113507","438962.734118","425146.702374","425896.07452","426662.910006","438205.649336","Mapping"
"Mixed","Both","tile","30","m160lash.wav","None","725.253854413","159","435146.510996","427429.355624","428196.007152","428962.929824","429730.314711","430496.056959","431246.176996","432012.786476","435895.727938","436663.01698","437429.708391","438196.113507","438962.734118","439729.998427","425896.07452","426662.910006","438972.679601","Mapping"
"Mixed","Both","tile","30","m150ball.wav","None","723.01142104","159","435146.510996","427429.355624","428196.007152","428962.929824","429730.314711","430496.056959","431246.176996","432012.786476","435895.727938","436663.01698","437429.708391","438196.113507","438962.734118","439729.998427","440496.431368","426662.910006","439739.625461","Mapping"
"Mixed","Both","tile","30","m160bluff.wav","None","721.070431639","159","435146.510996","427429.355624","428196.007152","428962.929824","429730.314711","430496.056959","431246.176996","432012.786476","435895.727938","436663.01698","437429.708391","438196.113507","438962.734118","439729.998427","440496.431368","441263.294989","440506.165996","Mapping"
"Mixed","Both","tile","30","m150tile.wav","None","718.797390815","159","435146.510996","442012.599426","428196.007152","428962.929824","429730.314711","430496.056959","431246.176996","432012.786476","435895.727938","436663.01698","437429.708391","438196.113507","438962.734118","439729.998427","440496.431368","441263.294989","441272.998389","Mapping"
"Mixed","Both","tile","30","m150done.wav","space","413.771440275","159","435146.510996","442012.599426","442779.636802","428962.929824","429730.314711","430496.056959","431246.176996","432012.786476","435895.727938","436663.01698","437429.708391","438196.113507","438962.734118","439729.998427","440496.431368","441263.294989","442022.386922","Mapping"
"Mixed","Both","tile","30","m160tile.wav","None","730.07942969","159","435146.510996","442012.599426","442779.636802","443546.013474","429730.314711","430496.056959","431246.176996","432012.786476","435895.727938","436663.01698","437429.708391","438196.113507","438962.734118","439729.998427","440496.431368","441263.294989","442789.35597","Mapping"
"Mixed","Both","tile","30","m160jolt.wav","None","728.800998535","159","435146.510996","442012.599426","442779.636802","443546.013474","444312.619244","430496.056959","431246.176996","432012.786476","435895.727938","436663.01698","437429.708391","438196.113507","438962.734118","439729.998427","440496.431368","441263.294989","443555.203339","Mapping"
"Mixed","Both","tile","30","m160tile.wav","space","145.886775106","159","435146.510996","442012.599426","442779.636802","443546.013474","444312.619244","445080.023609","431246.176996","432012.786476","435895.727938","436663.01698","437429.708391","438196.113507","438962.734118","439729.998427","440496.431368","441263.294989","444322.216908","Mapping"
"Mixed","Both","tile","30","m160lash.wav","space","649.947610684","159","435146.510996","442012.599426","442779.636802","443546.013474","444312.619244","445080.023609","445846.39688","432012.786476","435895.727938","436663.01698","437429.708391","438196.113507","438962.734118","439729.998427","440496.431368","441263.294989","445090.161398","Mapping"
"Mixed","Both","tile","30","m160jaw.wav","None","718.973928131","159","435146.510996","442012.599426","442779.636802","443546.013474","444312.619244","445080.023609","445846.39688","446595.900734","435895.727938","436663.01698","437429.708391","438196.113507","438962.734118","439729.998427","440496.431368","441263.294989","445856.042466","Mapping"
"Mixed","Both","cave","13","m150priest.wav","None","734.446810558","159","449729.782932","442012.599426","442779.636802","443546.013474","444312.619244","445080.023609","445846.39688","446595.900734","435895.727938","436663.01698","437429.708391","438196.113507","438962.734118","439729.998427","440496.431368","441263.294989","446605.139448","Mapping"
"Mixed","Both","cave","13","m160knife.wav","None","719.412954524","159","449729.782932","442012.599426","442779.636802","443546.013474","444312.619244","445080.023609","445846.39688","446595.900734","450479.111486","436663.01698","437429.708391","438196.113507","438962.734118","439729.998427","440496.431368","441263.294989","449739.597017","Mapping"
"Mixed","Both","cave","13","m150greet.wav","None","734.627367463","159","449729.782932","442012.599426","442779.636802","443546.013474","444312.619244","445080.023609","445846.39688","446595.900734","450479.111486","451245.967686","437429.708391","438196.113507","438962.734118","439729.998427","440496.431368","441263.294989","450488.855697","Mapping"
"Mixed","Both","cave","13","m150cave.wav","None","732.481087092","159","449729.782932","442012.599426","442779.636802","443546.013474","444312.619244","445080.023609","445846.39688","446595.900734","450479.111486","451245.967686","452012.286543","438196.113507","438962.734118","439729.998427","440496.431368","441263.294989","451255.541234","Mapping"
"Mixed","Both","cave","13","m150ball.wav","space","582.585263066","159","449729.782932","442012.599426","442779.636802","443546.013474","444312.619244","445080.023609","445846.39688","446595.900734","450479.111486","451245.967686","452012.286543","452779.322064","438962.734118","439729.998427","440496.431368","441263.294989","452021.379327","Mapping"
"Mixed","Both","cave","13","m160dime.wav","None","726.875467692","159","449729.782932","442012.599426","442779.636802","443546.013474","444312.619244","445080.023609","445846.39688","446595.900734","450479.111486","451245.967686","452012.286543","452779.322064","453545.557135","439729.998427","440496.431368","441263.294989","452788.639616","Mapping"
"Mixed","Both","cave","13","m160cave.wav","None","725.528400391","159","449729.782932","442012.599426","442779.636802","443546.013474","444312.619244","445080.023609","445846.39688","446595.900734","450479.111486","451245.967686","452012.286543","452779.322064","453545.557135","454312.547207","440496.431368","441263.294989","453554.777916","Mapping"
"Mixed","Both","cave","13","m160romp.wav","space","498.553223908","159","449729.782932","442012.599426","442779.636802","443546.013474","444312.619244","445080.023609","445846.39688","446595.900734","450479.111486","451245.967686","452012.286543","452779.322064","453545.557135","454312.547207","455062.53368","441263.294989","454321.382449","Mapping"
"Mixed","Both","cave","13","m160cad.wav","None","736.074916087","159","449729.782932","442012.599426","442779.636802","443546.013474","444312.619244","445080.023609","445846.39688","446595.900734","450479.111486","451245.967686","452012.286543","452779.322064","453545.557135","454312.547207","455062.53368","455829.2557","455071.862673","Mapping"
"Mixed","Both","cave","13","m150cave.wav","None","733.993871603","159","449729.782932","456595.922376","442779.636802","443546.013474","444312.619244","445080.023609","445846.39688","446595.900734","450479.111486","451245.967686","452012.286543","452779.322064","453545.557135","454312.547207","455062.53368","455829.2557","455838.589638","Mapping"
"Mixed","Both","cave","13","m160reek.wav","None","731.548929587","159","449729.782932","456595.922376","457362.165486","443546.013474","444312.619244","445080.023609","445846.39688","446595.900734","450479.111486","451245.967686","452012.286543","452779.322064","453545.557135","454312.547207","455062.53368","455829.2557","456605.553431","Mapping"
"Mixed","Both","cave","13","m160cave.wav","space","40.6451458111","159","449729.782932","456595.922376","457362.165486","458128.791971","444312.619244","445080.023609","445846.39688","446595.900734","450479.111486","451245.967686","452012.286543","452779.322064","453545.557135","454312.547207","455062.53368","455829.2557","457371.261362","Mapping"
"Mixed","Both","cave","13","m150bluff.wav","None","726.774986833","159","449729.782932","456595.922376","457362.165486","458128.791971","458896.085033","445080.023609","445846.39688","446595.900734","450479.111486","451245.967686","452012.286543","452779.322064","453545.557135","454312.547207","455062.53368","455829.2557","458137.735733","Mapping"
"Mixed","Both","cave","13","m150cad.wav","space","90.011139866","159","449729.782932","456595.922376","457362.165486","458128.791971","458896.085033","459662.604543","445846.39688","446595.900734","450479.111486","451245.967686","452012.286543","452779.322064","453545.557135","454312.547207","455062.53368","455829.2557","458905.849031","Mapping"
