"Condition","Talker","Target","Trial","current_stimulus","response_response","response_time_response","subject_nr","time_Audio1","time_Audio10","time_Audio11","time_Audio12","time_Audio13","time_Audio14","time_Audio15","time_Audio16","time_Audio2","time_Audio3","time_Audio4","time_Audio5","time_Audio6","time_Audio7","time_Audio8","time_Audio9","time_response","title"
"Blocked","m160","cave","9","m160romp.wav","NA","NA","166","242720.446211","NA","NA","NA","NA","NA","NA","NA","NA","NA","NA","NA","NA","NA","NA","NA","NA","Mapping"
"Blocked","m160","cave","9","m160cave.wav","None","715.940630063","166","242720.446211","NA","NA","NA","NA","NA","NA","NA","243470.177308","NA","NA","NA","NA","NA","NA","NA","242733.91967","Mapping"
"Blocked","m160","cave","9","m160gnash.wav","None","733.500740491","166","242720.446211","NA","NA","NA","NA","NA","NA","NA","243470.177308","244236.284381","NA","NA","NA","NA","NA","NA","243479.858139","Mapping"
"Blocked","m160","cave","9","m160knife.wav","space","23.902180139","166","242720.446211","NA","NA","NA","NA","NA","NA","NA","243470.177308","244236.284381","245002.951986","NA","NA","NA","NA","NA","244245.363871","Mapping"
"Blocked","m160","cave","9","m160jaw.wav","None","728.138749488","166","242720.446211","NA","NA","NA","NA","NA","NA","NA","243470.177308","244236.284381","245002.951986","245770.112722","NA","NA","NA","NA","245013.714305","Mapping"
"Blocked","m160","cave","9","m160done.wav","None","725.80943862","166","242720.446211","NA","NA","NA","NA","NA","NA","NA","243470.177308","244236.284381","245002.951986","245770.112722","246536.867204","NA","NA","NA","245779.736047","Mapping"
"Blocked","m160","cave","9","m160priest.wav","None","722.109872382","166","242720.446211","NA","NA","NA","NA","NA","NA","NA","243470.177308","244236.284381","245002.951986","245770.112722","246536.867204","247303.540992","NA","NA","246547.367962","Mapping"
"Blocked","m160","cave","9","m160cave.wav","None","720.099009573","166","242720.446211","NA","NA","NA","NA","NA","NA","NA","243470.177308","244236.284381","245002.951986","245770.112722","246536.867204","247303.540992","248052.742166","NA","247313.086096","Mapping"
"Blocked","m160","cave","9","m160jolt.wav","space","455.25537245","166","242720.446211","NA","NA","NA","NA","NA","NA","NA","243470.177308","244236.284381","245002.951986","245770.112722","246536.867204","247303.540992","248052.742166","248819.634539","248061.919353","Mapping"
"Blocked","m160","cave","9","m160tile.wav","None","722.406678367","166","242720.446211","249586.058515","NA","NA","NA","NA","NA","NA","243470.177308","244236.284381","245002.951986","245770.112722","246536.867204","247303.540992","248052.742166","248819.634539","248837.936665","Mapping"
"Blocked","m160","cave","9","m160cave.wav","None","729.188702069","166","242720.446211","249586.058515","250353.068374","NA","NA","NA","NA","NA","243470.177308","244236.284381","245002.951986","245770.112722","246536.867204","247303.540992","248052.742166","248819.634539","249594.809971","Mapping"
"Blocked","m160","cave","9","m160greet.wav","space","450.417739339","166","242720.446211","249586.058515","250353.068374","251119.929212","NA","NA","NA","NA","243470.177308","244236.284381","245002.951986","245770.112722","246536.867204","247303.540992","248052.742166","248819.634539","250362.668511","Mapping"
"Blocked","m160","cave","9","m160dime.wav","None","721.055591479","166","242720.446211","249586.058515","250353.068374","251119.929212","251869.687207","NA","NA","NA","243470.177308","244236.284381","245002.951986","245770.112722","246536.867204","247303.540992","248052.742166","248819.634539","251129.969611","Mapping"
"Blocked","m160","cave","9","m160cave.wav","None","735.888484865","166","242720.446211","249586.058515","250353.068374","251119.929212","251869.687207","252636.165288","NA","NA","243470.177308","244236.284381","245002.951986","245770.112722","246536.867204","247303.540992","248052.742166","248819.634539","251878.771024","Mapping"
"Blocked","m160","cave","9","m160greet.wav","space","383.900052868","166","242720.446211","249586.058515","250353.068374","251119.929212","251869.687207","252636.165288","253403.008812","NA","243470.177308","244236.284381","245002.951986","245770.112722","246536.867204","247303.540992","248052.742166","248819.634539","252645.169339","Mapping"
"Blocked","m160","cave","9","m160reek.wav","None","726.782715879","166","242720.446211","249586.058515","250353.068374","251119.929212","251869.687207","252636.165288","253403.008812","254169.568515","243470.177308","244236.284381","245002.951986","245770.112722","246536.867204","247303.540992","248052.742166","248819.634539","253414.952791","Mapping"
"Blocked","m160","tile","14","m160done.wav","None","727.245857008","166","257319.814941","249586.058515","250353.068374","251119.929212","251869.687207","252636.165288","253403.008812","254169.568515","243470.177308","244236.284381","245002.951986","245770.112722","246536.867204","247303.540992","248052.742166","248819.634539","254178.120555","Mapping"
"Blocked","m160","tile","14","m160tile.wav","None","721.581186168","166","257319.814941","249586.058515","250353.068374","251119.929212","251869.687207","252636.165288","253403.008812","254169.568515","258069.390524","244236.284381","245002.951986","245770.112722","246536.867204","247303.540992","248052.742166","248819.634539","257329.266366","Mapping"
"Blocked","m160","tile","14","m160reek.wav","space","550.629739184","166","257319.814941","249586.058515","250353.068374","251119.929212","251869.687207","252636.165288","253403.008812","254169.568515","258069.390524","258836.180252","245002.951986","245770.112722","246536.867204","247303.540992","248052.742166","248819.634539","258078.394884","Mapping"
"Blocked","m160","tile","14","m160park.wav","None","732.932480052","166","257319.814941","249586.058515","250353.068374","251119.929212","251869.687207","252636.165288","253403.008812","254169.568515","258069.390524","258836.180252","259603.119001","245770.112722","246536.867204","247303.540992","248052.742166","248819.634539","258845.444317","Mapping"
"Blocked","m160","tile","14","m160tile.wav","None","730.288431048","166","257319.814941","249586.058515","250353.068374","251119.929212","251869.687207","252636.165288","253403.008812","254169.568515","258069.390524","258836.180252","259603.119001","260369.481761","246536.867204","247303.540992","248052.742166","248819.634539","259611.956717","Mapping"
"Blocked","m160","tile","14","m160priest.wav","space","530.312422663","166","257319.814941","249586.058515","250353.068374","251119.929212","251869.687207","252636.165288","253403.008812","254169.568515","258069.390524","258836.180252","259603.119001","260369.481761","261136.37939","247303.540992","248052.742166","248819.634539","260378.622776","Mapping"
"Blocked","m160","tile","14","m160gnash.wav","None","723.327396438","166","257319.814941","249586.058515","250353.068374","251119.929212","251869.687207","252636.165288","253403.008812","254169.568515","258069.390524","258836.180252","259603.119001","260369.481761","261136.37939","261903.263725","248052.742166","248819.634539","261146.310033","Mapping"
"Blocked","m160","tile","14","m160park.wav","None","720.551329665","166","257319.814941","249586.058515","250353.068374","251119.929212","251869.687207","252636.165288","253403.008812","254169.568515","258069.390524","258836.180252","259603.119001","260369.481761","261136.37939","261903.263725","262652.62536","248819.634539","261912.915185","Mapping"
"Blocked","m160","tile","14","m160bluff.wav","None","735.449768137","166","257319.814941","249586.058515","250353.068374","251119.929212","251869.687207","252636.165288","253403.008812","254169.568515","258069.390524","258836.180252","259603.119001","260369.481761","261136.37939","261903.263725","262652.62536","263419.31337","262661.826354","Mapping"
"Blocked","m160","tile","14","m160cave.wav","None","732.364528812","166","257319.814941","264185.954076","250353.068374","251119.929212","251869.687207","252636.165288","253403.008812","254169.568515","258069.390524","258836.180252","259603.119001","260369.481761","261136.37939","261903.263725","262652.62536","263419.31337","263428.794784","Mapping"
"Blocked","m160","tile","14","m160tile.wav","None","729.849095456","166","257319.814941","264185.954076","264952.757408","251119.929212","251869.687207","252636.165288","253403.008812","254169.568515","258069.390524","258836.180252","259603.119001","260369.481761","261136.37939","261903.263725","262652.62536","263419.31337","264195.604608","Mapping"
"Blocked","m160","tile","14","m160done.wav","space","451.061437838","166","257319.814941","264185.954076","264952.757408","265719.91567","251869.687207","252636.165288","253403.008812","254169.568515","258069.390524","258836.180252","259603.119001","260369.481761","261136.37939","261903.263725","262652.62536","263419.31337","264961.830405","Mapping"
"Blocked","m160","tile","14","m160gnash.wav","None","723.73674158","166","257319.814941","264185.954076","264952.757408","265719.91567","266486.384476","252636.165288","253403.008812","254169.568515","258069.390524","258836.180252","259603.119001","260369.481761","261136.37939","261903.263725","262652.62536","263419.31337","265729.500657","Mapping"
"Blocked","m160","tile","14","m160knife.wav","None","721.525843721","166","257319.814941","264185.954076","264952.757408","265719.91567","266486.384476","267235.525361","253403.008812","254169.568515","258069.390524","258836.180252","259603.119001","260369.481761","261136.37939","261903.263725","262652.62536","263419.31337","266495.566302","Mapping"
"Blocked","m160","tile","14","m160tile.wav","None","736.257328186","166","257319.814941","264185.954076","264952.757408","265719.91567","266486.384476","267235.525361","268002.551297","254169.568515","258069.390524","258836.180252","259603.119001","260369.481761","261136.37939","261903.263725","262652.62536","263419.31337","267244.677816","Mapping"
"Blocked","m160","tile","14","m160cave.wav","space","649.238367099","166","257319.814941","264185.954076","264952.757408","265719.91567","266486.384476","267235.525361","268002.551297","268769.256003","258069.390524","258836.180252","259603.119001","260369.481761","261136.37939","261903.263725","262652.62536","263419.31337","268011.560914","Mapping"
"Blocked","m160","tile","18","m160dime.wav","None","729.802101385","166","271903.080076","264185.954076","264952.757408","265719.91567","266486.384476","267235.525361","268002.551297","268769.256003","258069.390524","258836.180252","259603.119001","260369.481761","261136.37939","261903.263725","262652.62536","263419.31337","268778.356825","Mapping"
"Blocked","m160","tile","18","m160done.wav","None","720.751365181","166","271903.080076","264185.954076","264952.757408","265719.91567","266486.384476","267235.525361","268002.551297","268769.256003","272652.265482","258836.180252","259603.119001","260369.481761","261136.37939","261903.263725","262652.62536","263419.31337","271912.522226","Mapping"
"Blocked","m160","tile","18","m160gnash.wav","None","735.143995844","166","271903.080076","264185.954076","264952.757408","265719.91567","266486.384476","267235.525361","268002.551297","268769.256003","272652.265482","273419.166822","259603.119001","260369.481761","261136.37939","261903.263725","262652.62536","263419.31337","272662.007839","Mapping"
"Blocked","m160","tile","18","m160bluff.wav","None","732.559307944","166","271903.080076","264185.954076","264952.757408","265719.91567","266486.384476","267235.525361","268002.551297","268769.256003","272652.265482","273419.166822","274185.872763","260369.481761","261136.37939","261903.263725","262652.62536","263419.31337","273428.305363","Mapping"
"Blocked","m160","tile","18","m160reek.wav","None","730.338207912","166","271903.080076","264185.954076","264952.757408","265719.91567","266486.384476","267235.525361","268002.551297","268769.256003","272652.265482","273419.166822","274185.872763","274952.575614","261136.37939","261903.263725","262652.62536","263419.31337","274194.964311","Mapping"
"Blocked","m160","tile","18","m160tile.wav","None","727.669733576","166","271903.080076","264185.954076","264952.757408","265719.91567","266486.384476","267235.525361","268002.551297","268769.256003","272652.265482","273419.166822","274185.872763","274952.575614","275719.090796","261903.263725","262652.62536","263419.31337","274961.586158","Mapping"
"Blocked","m160","tile","18","m160priest.wav","space","612.39017779","166","271903.080076","264185.954076","264952.757408","265719.91567","266486.384476","267235.525361","268002.551297","268769.256003","272652.265482","273419.166822","274185.872763","274952.575614","275719.090796","276486.074066","262652.62536","263419.31337","275728.266747","Mapping"
"Blocked","m160","tile","18","m160tile.wav","None","720.31017486","166","271903.080076","264185.954076","264952.757408","265719.91567","266486.384476","267235.525361","268002.551297","268769.256003","272652.265482","273419.166822","274185.872763","274952.575614","275719.090796","276486.074066","277235.392726","263419.31337","276496.204126","Mapping"
"Blocked","m160","tile","18","m160jolt.wav","space","552.247333806","166","271903.080076","264185.954076","264952.757408","265719.91567","266486.384476","267235.525361","268002.551297","268769.256003","272652.265482","273419.166822","274185.872763","274952.575614","275719.090796","276486.074066","277235.392726","278002.559027","277244.402651","Mapping"
"Blocked","m160","tile","18","m160bluff.wav","None","732.53426468","166","271903.080076","278769.096778","264952.757408","265719.91567","266486.384476","267235.525361","268002.551297","268769.256003","272652.265482","273419.166822","274185.872763","274952.575614","275719.090796","276486.074066","277235.392726","278002.559027","278011.584411","Mapping"
"Blocked","m160","tile","18","m160depth.wav","None","729.692654219","166","271903.080076","278769.096778","279535.677814","265719.91567","266486.384476","267235.525361","268002.551297","268769.256003","272652.265482","273419.166822","274185.872763","274952.575614","275719.090796","276486.074066","277235.392726","278002.559027","278778.581594","Mapping"
"Blocked","m160","tile","18","m160tile.wav","None","726.807140745","166","271903.080076","278769.096778","279535.677814","280302.45363","266486.384476","267235.525361","268002.551297","268769.256003","272652.265482","273419.166822","274185.872763","274952.575614","275719.090796","276486.074066","277235.392726","278002.559027","279545.434084","Mapping"
"Blocked","m160","tile","18","m160bluff.wav","space","437.032704242","166","271903.080076","278769.096778","279535.677814","280302.45363","281069.534599","267235.525361","268002.551297","268769.256003","272652.265482","273419.166822","274185.872763","274952.575614","275719.090796","276486.074066","277235.392726","278002.559027","280311.541157","Mapping"
"Blocked","m160","tile","18","m160reek.wav","None","720.982935745","166","271903.080076","278769.096778","279535.677814","280302.45363","281069.534599","281818.631581","268002.551297","268769.256003","272652.265482","273419.166822","274185.872763","274952.575614","275719.090796","276486.074066","277235.392726","278002.559027","281078.999627","Mapping"
"Blocked","m160","tile","18","m160tile.wav","None","736.395219807","166","271903.080076","278769.096778","279535.677814","280302.45363","281069.534599","281818.631581","282585.651025","268769.256003","272652.265482","273419.166822","274185.872763","274952.575614","275719.090796","276486.074066","277235.392726","278002.559027","281827.57658","Mapping"
"Blocked","m160","tile","18","m160jaw.wav","space","561.883952934","166","271903.080076","278769.096778","279535.677814","280302.45363","281069.534599","281818.631581","282585.651025","283352.192795","272652.265482","273419.166822","274185.872763","274952.575614","275719.090796","276486.074066","277235.392726","278002.559027","282594.65353","Mapping"
"Blocked","m160","ball","4","m160jaw.wav","None","730.308217928","166","286486.034801","278769.096778","279535.677814","280302.45363","281069.534599","281818.631581","282585.651025","283352.192795","272652.265482","273419.166822","274185.872763","274952.575614","275719.090796","276486.074066","277235.392726","278002.559027","283361.356071","Mapping"
"Blocked","m160","ball","4","m160ball.wav","None","720.397671219","166","286486.034801","278769.096778","279535.677814","280302.45363","281069.534599","281818.631581","282585.651025","283352.192795","287235.485478","273419.166822","274185.872763","274952.575614","275719.090796","276486.074066","277235.392726","278002.559027","286495.501066","Mapping"
"Blocked","m160","ball","4","m160done.wav","space","391.230240464","166","286486.034801","278769.096778","279535.677814","280302.45363","281069.534599","281818.631581","282585.651025","283352.192795","287235.485478","288002.341678","274185.872763","274952.575614","275719.090796","276486.074066","277235.392726","278002.559027","287245.223197","Mapping"
"Blocked","m160","ball","4","m160cad.wav","None","732.019491494","166","286486.034801","278769.096778","279535.677814","280302.45363","281069.534599","281818.631581","282585.651025","283352.192795","287235.485478","288002.341678","288768.924569","274952.575614","275719.090796","276486.074066","277235.392726","278002.559027","288011.372627","Mapping"
"Blocked","m160","ball","4","m160cad.wav","None","729.125012178","166","286486.034801","278769.096778","279535.677814","280302.45363","281069.534599","281818.631581","282585.651025","283352.192795","287235.485478","288002.341678","288768.924569","289535.489528","275719.090796","276486.074066","277235.392726","278002.559027","288778.315086","Mapping"
"Blocked","m160","ball","4","m160ball.wav","None","726.556401234","166","286486.034801","278769.096778","279535.677814","280302.45363","281069.534599","281818.631581","282585.651025","283352.192795","287235.485478","288002.341678","288768.924569","289535.489528","290302.616564","276486.074066","277235.392726","278002.559027","289544.563452","Mapping"
"Blocked","m160","ball","4","m160dime.wav","space","428.28124715","166","286486.034801","278769.096778","279535.677814","280302.45363","281069.534599","281818.631581","282585.651025","283352.192795","287235.485478","288002.341678","288768.924569","289535.489528","290302.616564","291068.910069","277235.392726","278002.559027","290312.150847","Mapping"
"Blocked","m160","ball","4","m160lash.wav","None","720.620275941","166","286486.034801","278769.096778","279535.677814","280302.45363","281069.534599","281818.631581","282585.651025","283352.192795","287235.485478","288002.341678","288768.924569","289535.489528","290302.616564","291068.910069","291818.735463","278002.559027","291078.041808","Mapping"
"Blocked","m160","ball","4","m160knife.wav","None","734.766186215","166","286486.034801","278769.096778","279535.677814","280302.45363","281069.534599","281818.631581","282585.651025","283352.192795","287235.485478","288002.341678","288768.924569","289535.489528","290302.616564","291068.910069","291818.735463","292585.260848","291827.934294","Mapping"
"Blocked","m160","ball","4","m160ball.wav","None","732.5753849","166","286486.034801","293352.007292","279535.677814","280302.45363","281069.534599","281818.631581","282585.651025","283352.192795","287235.485478","288002.341678","288768.924569","289535.489528","290302.616564","291068.910069","291818.735463","292585.260848","292594.290561","Mapping"
"Blocked","m160","ball","4","m160cave.wav","space","363.324885722","166","286486.034801","293352.007292","294118.848652","280302.45363","281069.534599","281818.631581","282585.651025","283352.192795","287235.485478","288002.341678","288768.924569","289535.489528","290302.616564","291068.910069","291818.735463","292585.260848","293360.992174","Mapping"
"Blocked","m160","ball","4","m160priest.wav","None","726.053376216","166","286486.034801","293352.007292","294118.848652","294885.866549","281069.534599","281818.631581","282585.651025","283352.192795","287235.485478","288002.341678","288768.924569","289535.489528","290302.616564","291068.910069","291818.735463","292585.260848","294128.309661","Mapping"
"Blocked","m160","ball","4","m160park.wav","None","723.185794894","166","286486.034801","293352.007292","294118.848652","294885.866549","295652.612065","281818.631581","282585.651025","283352.192795","287235.485478","288002.341678","288768.924569","289535.489528","290302.616564","291068.910069","291818.735463","292585.260848","294895.219657","Mapping"
"Blocked","m160","ball","4","m160done.wav","None","719.789218158","166","286486.034801","293352.007292","294118.848652","294885.866549","295652.612065","296418.447376","282585.651025","283352.192795","287235.485478","288002.341678","288768.924569","289535.489528","290302.616564","291068.910069","291818.735463","292585.260848","295662.633915","Mapping"
"Blocked","m160","ball","4","m160ball.wav","None","722.63392061","166","286486.034801","293352.007292","294118.848652","294885.866549","295652.612065","296418.447376","297168.508051","283352.192795","287235.485478","288002.341678","288768.924569","289535.489528","290302.616564","291068.910069","291818.735463","292585.260848","296427.086293","Mapping"
"Blocked","m160","ball","4","m160cave.wav","space","411.051643547","166","286486.034801","293352.007292","294118.848652","294885.866549","295652.612065","296418.447376","297168.508051","297935.345391","287235.485478","288002.341678","288768.924569","289535.489528","290302.616564","291068.910069","291818.735463","292585.260848","297177.199837","Mapping"
"Blocked","m160","ball","2","m160jolt.wav","None","732.885794714","166","301069.178431","293352.007292","294118.848652","294885.866549","295652.612065","296418.447376","297168.508051","297935.345391","287235.485478","288002.341678","288768.924569","289535.489528","290302.616564","291068.910069","291818.735463","292585.260848","297944.38036","Mapping"
"Blocked","m160","ball","2","m160knife.wav","None","720.109521411","166","301069.178431","293352.007292","294118.848652","294885.866549","295652.612065","296418.447376","297168.508051","297935.345391","301818.543158","288002.341678","288768.924569","289535.489528","290302.616564","291068.910069","291818.735463","292585.260848","301078.644078","Mapping"
"Blocked","m160","ball","2","m160reek.wav","None","735.045987647","166","301069.178431","293352.007292","294118.848652","294885.866549","295652.612065","296418.447376","297168.508051","297935.345391","301818.543158","302585.265486","288768.924569","289535.489528","290302.616564","291068.910069","291818.735463","292585.260848","301827.695612","Mapping"
"Blocked","m160","ball","2","m160ball.wav","None","732.787477784","166","301069.178431","293352.007292","294118.848652","294885.866549","295652.612065","296418.447376","297168.508051","297935.345391","301818.543158","302585.265486","303352.122613","289535.489528","290302.616564","291068.910069","291818.735463","292585.260848","302594.311893","Mapping"
"Blocked","m160","ball","2","m160jaw.wav","space","410.658684559","166","301069.178431","293352.007292","294118.848652","294885.866549","295652.612065","296418.447376","297168.508051","297935.345391","301818.543158","302585.265486","303352.122613","304118.585236","290302.616564","291068.910069","291818.735463","292585.260848","303361.500455","Mapping"
"Blocked","m160","ball","2","m160cling.wav","None","726.697693579","166","301069.178431","293352.007292","294118.848652","294885.866549","295652.612065","296418.447376","297168.508051","297935.345391","301818.543158","302585.265486","303352.122613","304118.585236","304885.588912","291068.910069","291818.735463","292585.260848","304127.712029","Mapping"
"Blocked","m160","ball","2","m160ball.wav","None","723.652645946","166","301069.178431","293352.007292","294118.848652","294885.866549","295652.612065","296418.447376","297168.508051","297935.345391","301818.543158","302585.265486","303352.122613","304118.585236","304885.588912","305652.603718","291818.735463","292585.260848","304895.12505","Mapping"
"Blocked","m160","ball","2","m160park.wav","space","678.12070949","166","301069.178431","293352.007292","294118.848652","294885.866549","295652.612065","296418.447376","297168.508051","297935.345391","301818.543158","302585.265486","303352.122613","304118.585236","304885.588912","305652.603718","306401.886822","292585.260848","305662.017732","Mapping"
"Blocked","m160","ball","2","m160priest.wav","None","734.996520448","166","301069.178431","293352.007292","294118.848652","294885.866549","295652.612065","296418.447376","297168.508051","297935.345391","301818.543158","302585.265486","303352.122613","304118.585236","304885.588912","305652.603718","306401.886822","307168.588127","306411.327426","Mapping"
"Blocked","m160","ball","2","m160ball.wav","None","733.020903543","166","301069.178431","307935.150303","294118.848652","294885.866549","295652.612065","296418.447376","297168.508051","297935.345391","301818.543158","302585.265486","303352.122613","304118.585236","304885.588912","305652.603718","306401.886822","307168.588127","307177.202929","Mapping"
"Blocked","m160","ball","2","m160park.wav","space","323.858617339","166","301069.178431","307935.150303","308701.934157","294885.866549","295652.612065","296418.447376","297168.508051","297935.345391","301818.543158","302585.265486","303352.122613","304118.585236","304885.588912","305652.603718","306401.886822","307168.588127","307944.216807","Mapping"
"Blocked","m160","ball","2","m160done.wav","None","726.681925356","166","301069.178431","307935.150303","308701.934157","309468.967204","295652.612065","296418.447376","297168.508051","297935.345391","301818.543158","302585.265486","303352.122613","304118.585236","304885.588912","305652.603718","306401.886822","307168.588127","308710.994477","Mapping"
"Blocked","m160","ball","2","m160greet.wav","None","723.306063563","166","301069.178431","307935.150303","308701.934157","309468.967204","310235.445904","296418.447376","297168.508051","297935.345391","301818.543158","302585.265486","303352.122613","304118.585236","304885.588912","305652.603718","306401.886822","307168.588127","309478.461604","Mapping"
"Blocked","m160","ball","2","m160bluff.wav","None","720.802997239","166","301069.178431","307935.150303","308701.934157","309468.967204","310235.445904","310984.987786","297168.508051","297935.345391","301818.543158","302585.265486","303352.122613","304118.585236","304885.588912","305652.603718","306401.886822","307168.588127","310244.956071","Mapping"
"Blocked","m160","ball","2","m160ball.wav","None","736.010299064","166","301069.178431","307935.150303","308701.934157","309468.967204","310235.445904","310984.987786","311751.814306","297935.345391","301818.543158","302585.265486","303352.122613","304118.585236","304885.588912","305652.603718","306401.886822","307168.588127","310994.054909","Mapping"
"Blocked","m160","ball","2","m160bluff.wav","space","442.923999391","166","301069.178431","307935.150303","308701.934157","309468.967204","310235.445904","310984.987786","311751.814306","312518.397197","301818.543158","302585.265486","303352.122613","304118.585236","304885.588912","305652.603718","306401.886822","307168.588127","311761.099086","Mapping"
"Blocked","m160","cave","12","m160gnash.wav","None","730.25998706","166","315652.180769","307935.150303","308701.934157","309468.967204","310235.445904","310984.987786","311751.814306","312518.397197","301818.543158","302585.265486","303352.122613","304118.585236","304885.588912","305652.603718","306401.886822","307168.588127","312527.453498","Mapping"
"Blocked","m160","cave","12","m160knife.wav","None","720.6595405","166","315652.180769","307935.150303","308701.934157","309468.967204","310235.445904","310984.987786","311751.814306","312518.397197","316401.571775","302585.265486","303352.122613","304118.585236","304885.588912","305652.603718","306401.886822","307168.588127","315661.711651","Mapping"
"Blocked","m160","cave","12","m160depth.wav","None","741.014267318","166","315652.180769","307935.150303","308701.934157","309468.967204","310235.445904","310984.987786","311751.814306","312518.397197","316401.571775","317168.259785","303352.122613","304118.585236","304885.588912","305652.603718","306401.886822","307168.588127","316405.390991","Mapping"
"Blocked","m160","cave","12","m160cave.wav","None","733.613588382","166","315652.180769","307935.150303","308701.934157","309468.967204","310235.445904","310984.987786","311751.814306","312518.397197","316401.571775","317168.259785","317934.950268","304118.585236","304885.588912","305652.603718","306401.886822","307168.588127","317176.853563","Mapping"
"Blocked","m160","cave","12","m160ball.wav","space","395.648634527","166","315652.180769","307935.150303","308701.934157","309468.967204","310235.445904","310984.987786","311751.814306","312518.397197","316401.571775","317168.259785","317934.950268","318701.799667","304885.588912","305652.603718","306401.886822","307168.588127","317944.263801","Mapping"
"Blocked","m160","cave","12","m160cave.wav","None","727.057261858","166","315652.180769","307935.150303","308701.934157","309468.967204","310235.445904","310984.987786","311751.814306","312518.397197","316401.571775","317168.259785","317934.950268","318701.799667","319468.709044","305652.603718","306401.886822","307168.588127","318710.871426","Mapping"
"Blocked","m160","cave","12","m160jaw.wav","space","717.259872239","166","315652.180769","307935.150303","308701.934157","309468.967204","310235.445904","310984.987786","311751.814306","312518.397197","316401.571775","317168.259785","317934.950268","318701.799667","319468.709044","320235.24896","306401.886822","307168.588127","319478.639069","Mapping"
"Blocked","m160","cave","12","m160knife.wav","None","720.670979936","166","315652.180769","307935.150303","308701.934157","309468.967204","310235.445904","310984.987786","311751.814306","312518.397197","316401.571775","317168.259785","317934.950268","318701.799667","319468.709044","320235.24896","320984.767346","307168.588127","320244.879705","Mapping"
"Blocked","m160","cave","12","m160romp.wav","None","735.880137421","166","315652.180769","307935.150303","308701.934157","309468.967204","310235.445904","310984.987786","311751.814306","312518.397197","316401.571775","317168.259785","317934.950268","318701.799667","319468.709044","320235.24896","320984.767346","321751.708569","320993.725021","Mapping"
"Blocked","m160","cave","12","m160depth.wav","None","732.607539278","166","315652.180769","322518.336908","308701.934157","309468.967204","310235.445904","310984.987786","311751.814306","312518.397197","316401.571775","317168.259785","317934.950268","318701.799667","319468.709044","320235.24896","320984.767346","321751.708569","321761.135259","Mapping"
"Blocked","m160","cave","12","m160gnash.wav","None","729.926698375","166","315652.180769","322518.336908","323284.871568","309468.967204","310235.445904","310984.987786","311751.814306","312518.397197","316401.571775","317168.259785","317934.950268","318701.799667","319468.709044","320235.24896","320984.767346","321751.708569","322527.803482","Mapping"
"Blocked","m160","cave","12","m160romp.wav","None","728.054654319","166","315652.180769","322518.336908","323284.871568","324051.63347","310235.445904","310984.987786","311751.814306","312518.397197","316401.571775","317168.259785","317934.950268","318701.799667","319468.709044","320235.24896","320984.767346","321751.708569","323293.853359","Mapping"
"Blocked","m160","cave","12","m160cave.wav","None","725.142242853","166","315652.180769","322518.336908","323284.871568","324051.63347","324818.500491","310984.987786","311751.814306","312518.397197","316401.571775","317168.259785","317934.950268","318701.799667","319468.709044","320235.24896","320984.767346","321751.708569","324060.704612","Mapping"
"Blocked","m160","cave","12","m160dime.wav","space","464.100199286","166","315652.180769","322518.336908","323284.871568","324051.63347","324818.500491","325567.962917","311751.814306","312518.397197","316401.571775","317168.259785","317934.950268","318701.799667","319468.709044","320235.24896","320984.767346","321751.708569","324827.717563","Mapping"
"Blocked","m160","cave","12","m160cave.wav","None","736.499101855","166","315652.180769","322518.336908","323284.871568","324051.63347","324818.500491","325567.962917","326334.805822","312518.397197","316401.571775","317168.259785","317934.950268","318701.799667","319468.709044","320235.24896","320984.767346","321751.708569","325576.836497","Mapping"
"Blocked","m160","cave","12","m160ball.wav","space","683.913069312","166","315652.180769","322518.336908","323284.871568","324051.63347","324818.500491","325567.962917","326334.805822","327101.64409","316401.571775","317168.259785","317934.950268","318701.799667","319468.709044","320235.24896","320984.767346","321751.708569","326343.781739","Mapping"
"Blocked","m160","tile","15","m160cave.wav","None","730.115911923","166","330234.996984","322518.336908","323284.871568","324051.63347","324818.500491","325567.962917","326334.805822","327101.64409","316401.571775","317168.259785","317934.950268","318701.799667","319468.709044","320235.24896","320984.767346","321751.708569","327110.703484","Mapping"
"Blocked","m160","tile","15","m160reek.wav","None","720.43662658","166","330234.996984","322518.336908","323284.871568","324051.63347","324818.500491","325567.962917","326334.805822","327101.64409","330984.605339","317168.259785","317934.950268","318701.799667","319468.709044","320235.24896","320984.767346","321751.708569","330244.64999","Mapping"
"Blocked","m160","tile","15","m160done.wav","None","735.673918854","166","330234.996984","322518.336908","323284.871568","324051.63347","324818.500491","325567.962917","326334.805822","327101.64409","330984.605339","331751.370952","317934.950268","318701.799667","319468.709044","320235.24896","320984.767346","321751.708569","330993.661022","Mapping"
"Blocked","m160","tile","15","m160tile.wav","None","733.356356155","166","330234.996984","322518.336908","323284.871568","324051.63347","324818.500491","325567.962917","326334.805822","327101.64409","330984.605339","331751.370952","332518.049068","318701.799667","319468.709044","320235.24896","320984.767346","321751.708569","331760.294308","Mapping"
"Blocked","m160","tile","15","m160reek.wav","space","492.018229794","166","330234.996984","322518.336908","323284.871568","324051.63347","324818.500491","325567.962917","326334.805822","327101.64409","330984.605339","331751.370952","332518.049068","333284.660093","319468.709044","320235.24896","320984.767346","321751.708569","332527.61365","Mapping"
"Blocked","m160","tile","15","m160gnash.wav","None","727.814735845","166","330234.996984","322518.336908","323284.871568","324051.63347","324818.500491","325567.962917","326334.805822","327101.64409","330984.605339","331751.370952","332518.049068","333284.660093","334051.411793","320235.24896","320984.767346","321751.708569","333293.618078","Mapping"
"Blocked","m160","tile","15","m160tile.wav","None","725.365775172","166","330234.996984","322518.336908","323284.871568","324051.63347","324818.500491","325567.962917","326334.805822","327101.64409","330984.605339","331751.370952","332518.049068","333284.660093","334051.411793","334818.410522","320984.767346","321751.708569","334060.476442","Mapping"
"Blocked","m160","tile","15","m160reek.wav","space","479.646664578","166","330234.996984","322518.336908","323284.871568","324051.63347","324818.500491","325567.962917","326334.805822","327101.64409","330984.605339","331751.370952","332518.049068","333284.660093","334051.411793","334818.410522","335568.142546","321751.708569","334827.949752","Mapping"
"Blocked","m160","tile","15","m160tile.wav","None","735.652276315","166","330234.996984","322518.336908","323284.871568","324051.63347","324818.500491","325567.962917","326334.805822","327101.64409","330984.605339","331751.370952","332518.049068","333284.660093","334051.411793","334818.410522","335568.142546","336334.672878","335577.739283","Mapping"
"Blocked","m160","tile","15","m160knife.wav","space","579.943996388","166","330234.996984","337101.495997","323284.871568","324051.63347","324818.500491","325567.962917","326334.805822","327101.64409","330984.605339","331751.370952","332518.049068","333284.660093","334051.411793","334818.410522","335568.142546","336334.672878","336343.6355","Mapping"
"Blocked","m160","tile","15","m160jaw.wav","None","730.648617726","166","330234.996984","337101.495997","337867.996029","324051.63347","324818.500491","325567.962917","326334.805822","327101.64409","330984.605339","331751.370952","332518.049068","333284.660093","334051.411793","334818.410522","335568.142546","336334.672878","337110.473459","Mapping"
"Blocked","m160","tile","15","m160tile.wav","None","728.325180709","166","330234.996984","337101.495997","337867.996029","338634.638282","324818.500491","325567.962917","326334.805822","327101.64409","330984.605339","331751.370952","332518.049068","333284.660093","334051.411793","334818.410522","335568.142546","336334.672878","337877.237835","Mapping"
"Blocked","m160","tile","15","m160cad.wav","space","543.265542947","166","330234.996984","337101.495997","337867.996029","338634.638282","339401.949894","325567.962917","326334.805822","327101.64409","330984.605339","331751.370952","332518.049068","333284.660093","334051.411793","334818.410522","335568.142546","336334.672878","338644.284176","Mapping"
"Blocked","m160","tile","15","m160depth.wav","None","722.242197953","166","330234.996984","337101.495997","337867.996029","338634.638282","339401.949894","340168.299668","326334.805822","327101.64409","330984.605339","331751.370952","332518.049068","333284.660093","334051.411793","334818.410522","335568.142546","336334.672878","339411.513858","Mapping"
"Blocked","m160","tile","15","m160jaw.wav","None","721.689705737","166","330234.996984","337101.495997","337867.996029","338634.638282","339401.949894","340168.299668","340917.604106","327101.64409","330984.605339","331751.370952","332518.049068","333284.660093","334051.411793","334818.410522","335568.142546","336334.672878","340176.563249","Mapping"
"Blocked","m160","tile","15","m160park.wav","None","736.073370557","166","330234.996984","337101.495997","337867.996029","338634.638282","339401.949894","340168.299668","340917.604106","341684.562642","330984.605339","331751.370952","332518.049068","333284.660093","334051.411793","334818.410522","335568.142546","336334.672878","340926.58064","Mapping"
"Blocked","m160","cave","7","m160reek.wav","None","733.36161254","166","344818.265829","337101.495997","337867.996029","338634.638282","339401.949894","340168.299668","340917.604106","341684.562642","330984.605339","331751.370952","332518.049068","333284.660093","334051.411793","334818.410522","335568.142546","336334.672878","341693.630383","Mapping"
"Blocked","m160","cave","7","m160lash.wav","None","719.802203123","166","344818.265829","337101.495997","337867.996029","338634.638282","339401.949894","340168.299668","340917.604106","341684.562642","345567.772157","331751.370952","332518.049068","333284.660093","334051.411793","334818.410522","335568.142546","336334.672878","344828.007568","Mapping"
"Blocked","m160","cave","7","m160done.wav","None","734.996829182","166","344818.265829","337101.495997","337867.996029","338634.638282","339401.949894","340168.299668","340917.604106","341684.562642","345567.772157","346334.699158","332518.049068","333284.660093","334051.411793","334818.410522","335568.142546","336334.672878","345576.960166","Mapping"
"Blocked","m160","cave","7","m160reek.wav","None","732.330210973","166","344818.265829","337101.495997","337867.996029","338634.638282","339401.949894","340168.299668","340917.604106","341684.562642","345567.772157","346334.699158","347101.308637","333284.660093","334051.411793","334818.410522","335568.142546","336334.672878","346343.808637","Mapping"
"Blocked","m160","cave","7","m160cave.wav","None","729.998426046","166","344818.265829","337101.495997","337867.996029","338634.638282","339401.949894","340168.299668","340917.604106","341684.562642","345567.772157","346334.699158","347101.308637","347867.920591","334051.411793","334818.410522","335568.142546","336334.672878","347110.363084","Mapping"
"Blocked","m160","cave","7","m160cling.wav","space","558.359997347","166","344818.265829","337101.495997","337867.996029","338634.638282","339401.949894","340168.299668","340917.604106","341684.562642","345567.772157","346334.699158","347101.308637","347867.920591","348634.746801","334818.410522","335568.142546","336334.672878","347877.04491","Mapping"
"Blocked","m160","cave","7","m160romp.wav","None","723.498678301","166","344818.265829","337101.495997","337867.996029","338634.638282","339401.949894","340168.299668","340917.604106","341684.562642","345567.772157","346334.699158","347101.308637","347867.920591","348634.746801","349401.645049","335568.142546","336334.672878","348644.466897","Mapping"
"Blocked","m160","cave","7","m160cave.wav","None","721.121445298","166","344818.265829","337101.495997","337867.996029","338634.638282","339401.949894","340168.299668","340917.604106","341684.562642","345567.772157","346334.699158","347101.308637","347867.920591","348634.746801","349401.645049","350151.388822","336334.672878","349411.138521","Mapping"
"Blocked","m160","cave","7","m160gnash.wav","space","490.909226239","166","344818.265829","337101.495997","337867.996029","338634.638282","339401.949894","340168.299668","340917.604106","341684.562642","345567.772157","346334.699158","347101.308637","347867.920591","348634.746801","349401.645049","350151.388822","350917.862575","350160.437084","Mapping"
"Blocked","m160","cave","7","m160park.wav","None","732.678339817","166","344818.265829","351684.210184","337867.996029","338634.638282","339401.949894","340168.299668","340917.604106","341684.562642","345567.772157","346334.699158","347101.308637","347867.920591","348634.746801","349401.645049","350151.388822","350917.862575","350927.328839","Mapping"
"Blocked","m160","cave","7","m160romp.wav","None","731.217496097","166","344818.265829","351684.210184","352451.190982","338634.638282","339401.949894","340168.299668","340917.604106","341684.562642","345567.772157","346334.699158","347101.308637","347867.920591","348634.746801","349401.645049","350151.388822","350917.862575","351693.197231","Mapping"
"Blocked","m160","cave","7","m160cave.wav","None","728.365064133","166","344818.265829","351684.210184","352451.190982","353217.689778","339401.949894","340168.299668","340917.604106","341684.562642","345567.772157","346334.699158","347101.308637","347867.920591","348634.746801","349401.645049","350151.388822","350917.862575","352460.290258","Mapping"
"Blocked","m160","cave","7","m160romp.wav","space","448.512304574","166","344818.265829","351684.210184","352451.190982","353217.689778","353984.90029","340168.299668","340917.604106","341684.562642","345567.772157","346334.699158","347101.308637","347867.920591","348634.746801","349401.645049","350151.388822","350917.862575","353226.785962","Mapping"
"Blocked","m160","cave","7","m160cling.wav","None","722.022994421","166","344818.265829","351684.210184","352451.190982","353217.689778","353984.90029","354751.511934","340917.604106","341684.562642","345567.772157","346334.699158","347101.308637","347867.920591","348634.746801","349401.645049","350151.388822","350917.862575","353994.896169","Mapping"
"Blocked","m160","cave","7","m160cave.wav","None","719.148611184","166","344818.265829","351684.210184","352451.190982","353217.689778","353984.90029","354751.511934","355500.870477","341684.562642","345567.772157","346334.699158","347101.308637","347867.920591","348634.746801","349401.645049","350151.388822","350917.862575","354762.011147","Mapping"
"Blocked","m160","cave","7","m160reek.wav","None","740.694582462","166","344818.265829","351684.210184","352451.190982","353217.689778","353984.90029","354751.511934","355500.870477","356267.726059","345567.772157","346334.699158","347101.308637","347867.920591","348634.746801","349401.645049","350151.388822","350917.862575","355504.710099","Mapping"
"Blocked","m160","done","21","m160greet.wav","space","0.0343178398907","166","359401.515196","351684.210184","352451.190982","353217.689778","353984.90029","354751.511934","355500.870477","356267.726059","345567.772157","346334.699158","347101.308637","347867.920591","348634.746801","349401.645049","350151.388822","350917.862575","356277.208092","Mapping"
"Blocked","m160","done","21","m160reek.wav","None","720.46445217","166","359401.515196","351684.210184","352451.190982","353217.689778","353984.90029","354751.511934","355500.870477","356267.726059","360167.465828","346334.699158","347101.308637","347867.920591","348634.746801","349401.645049","350151.388822","350917.862575","359411.170366","Mapping"
"Blocked","m160","done","21","m160done.wav","None","724.274393637","166","359401.515196","351684.210184","352451.190982","353217.689778","353984.90029","354751.511934","355500.870477","356267.726059","360167.465828","360934.237006","347101.308637","347867.920591","348634.746801","349401.645049","350151.388822","350917.862575","360176.339099","Mapping"
"Blocked","m160","done","21","m160reek.wav","space","627.988893073","166","359401.515196","351684.210184","352451.190982","353217.689778","353984.90029","354751.511934","355500.870477","356267.726059","360167.465828","360934.237006","361684.063946","347867.920591","348634.746801","349401.645049","350151.388822","350917.862575","360943.169638","Mapping"
"Blocked","m160","done","21","m160gnash.wav","None","735.418541357","166","359401.515196","351684.210184","352451.190982","353217.689778","353984.90029","354751.511934","355500.870477","356267.726059","360167.465828","360934.237006","361684.063946","362450.964976","348634.746801","349401.645049","350151.388822","350917.862575","361693.105098","Mapping"
"Blocked","m160","done","21","m160lash.wav","None","732.736464124","166","359401.515196","351684.210184","352451.190982","353217.689778","353984.90029","354751.511934","355500.870477","356267.726059","360167.465828","360934.237006","361684.063946","362450.964976","363217.541993","349401.645049","350151.388822","350917.862575","362460.028389","Mapping"
"Blocked","m160","done","21","m160park.wav","None","730.602241587","166","359401.515196","351684.210184","352451.190982","353217.689778","353984.90029","354751.511934","355500.870477","356267.726059","360167.465828","360934.237006","361684.063946","362450.964976","363217.541993","363984.134777","350151.388822","350917.862575","363226.613135","Mapping"
"Blocked","m160","done","21","m160jolt.wav","None","728.613639716","166","359401.515196","351684.210184","352451.190982","353217.689778","353984.90029","354751.511934","355500.870477","356267.726059","360167.465828","360934.237006","361684.063946","362450.964976","363217.541993","363984.134777","364750.731272","350917.862575","363993.106365","Mapping"
"Blocked","m160","done","21","m160done.wav","None","726.480035577","166","359401.515196","351684.210184","352451.190982","353217.689778","353984.90029","354751.511934","355500.870477","356267.726059","360167.465828","360934.237006","361684.063946","362450.964976","363217.541993","363984.134777","364750.731272","365517.883351","364759.823437","Mapping"
"Blocked","m160","done","21","m160cad.wav","space","611.581071746","166","359401.515196","366284.550337","352451.190982","353217.689778","353984.90029","354751.511934","355500.870477","356267.726059","360167.465828","360934.237006","361684.063946","362450.964976","363217.541993","363984.134777","364750.731272","365517.883351","365527.488125","Mapping"
"Blocked","m160","done","21","m160done.wav","None","720.081077423","166","359401.515196","366284.550337","367033.940416","353217.689778","353984.90029","354751.511934","355500.870477","356267.726059","360167.465828","360934.237006","361684.063946","362450.964976","363217.541993","363984.134777","364750.731272","365517.883351","366293.959714","Mapping"
"Blocked","m160","done","21","m160knife.wav","space","472.088616341","166","359401.515196","366284.550337","367033.940416","367800.883184","353984.90029","354751.511934","355500.870477","356267.726059","360167.465828","360934.237006","361684.063946","362450.964976","363217.541993","363984.134777","364750.731272","365517.883351","367042.960853","Mapping"
"Blocked","m160","done","21","m160done.wav","None","731.66146921","166","359401.515196","366284.550337","367033.940416","367800.883184","368567.555735","354751.511934","355500.870477","356267.726059","360167.465828","360934.237006","361684.063946","362450.964976","363217.541993","363984.134777","364750.731272","365517.883351","367810.28545","Mapping"
"Blocked","m160","done","21","m160cave.wav","space","338.078420609","166","359401.515196","366284.550337","367033.940416","367800.883184","368567.555735","369334.059478","355500.870477","356267.726059","360167.465828","360934.237006","361684.063946","362450.964976","363217.541993","363984.134777","364750.731272","365517.883351","368576.963567","Mapping"
"Blocked","m160","done","21","m160cad.wav","None","726.536614355","166","359401.515196","366284.550337","367033.940416","367800.883184","368567.555735","369334.059478","370101.141684","356267.726059","360167.465828","360934.237006","361684.063946","362450.964976","363217.541993","363984.134777","364750.731272","365517.883351","369343.114543","Mapping"
"Blocked","m160","done","21","m160greet.wav","None","723.295860458","166","359401.515196","366284.550337","367033.940416","367800.883184","368567.555735","369334.059478","370101.141684","370867.902659","360167.465828","360934.237006","361684.063946","362450.964976","363217.541993","363984.134777","364750.731272","365517.883351","370110.837974","Mapping"
"Blocked","m160","done","22","m160romp.wav","None","720.462906174","166","373984.323373","366284.550337","367033.940416","367800.883184","368567.555735","369334.059478","370101.141684","370867.902659","360167.465828","360934.237006","361684.063946","362450.964976","363217.541993","363984.134777","364750.731272","365517.883351","370877.910286","Mapping"
"Blocked","m160","done","22","m160done.wav","None","720.406945795","166","373984.323373","366284.550337","367033.940416","367800.883184","368567.555735","369334.059478","370101.141684","370867.902659","374733.601222","360934.237006","361684.063946","362450.964976","363217.541993","363984.134777","364750.731272","365517.883351","373993.84869","Mapping"
"Blocked","m160","done","22","m160cave.wav","space","420.100215357","166","373984.323373","366284.550337","367033.940416","367800.883184","368567.555735","369334.059478","370101.141684","370867.902659","374733.601222","375500.805242","361684.063946","362450.964976","363217.541993","363984.134777","364750.731272","365517.883351","374742.807472","Mapping"
"Blocked","m160","done","22","m160done.wav","None","731.941579841","166","373984.323373","366284.550337","367033.940416","367800.883184","368567.555735","369334.059478","370101.141684","370867.902659","374733.601222","375500.805242","376267.355979","362450.964976","363217.541993","363984.134777","364750.731272","365517.883351","375510.260377","Mapping"
"Blocked","m160","done","22","m160dime.wav","space","374.030007515","166","373984.323373","366284.550337","367033.940416","367800.883184","368567.555735","369334.059478","370101.141684","370867.902659","374733.601222","375500.805242","376267.355979","377033.870233","363217.541993","363984.134777","364750.731272","365517.883351","376276.835538","Mapping"
"Blocked","m160","done","22","m160reek.wav","None","718.81192131","166","373984.323373","366284.550337","367033.940416","367800.883184","368567.555735","369334.059478","370101.141684","370867.902659","374733.601222","375500.805242","376267.355979","377033.870233","377800.736946","363984.134777","364750.731272","365517.883351","377051.298018","Mapping"
"Blocked","m160","done","22","m160done.wav","None","724.314276595","166","373984.323373","366284.550337","367033.940416","367800.883184","368567.555735","369334.059478","370101.141684","370867.902659","374733.601222","375500.805242","376267.355979","377033.870233","377800.736946","378567.559446","364750.731272","365517.883351","377810.316368","Mapping"
"Blocked","m160","done","22","m160priest.wav","space","561.314146966","166","373984.323373","366284.550337","367033.940416","367800.883184","368567.555735","369334.059478","370101.141684","370867.902659","374733.601222","375500.805242","376267.355979","377033.870233","377800.736946","378567.559446","379317.233963","365517.883351","378577.518533","Mapping"
"Blocked","m160","done","22","m160gnash.wav","None","735.802225769","166","373984.323373","366284.550337","367033.940416","367800.883184","368567.555735","369334.059478","370101.141684","370867.902659","374733.601222","375500.805242","376267.355979","377033.870233","377800.736946","378567.559446","379317.233963","380083.682674","379326.671166","Mapping"
"Blocked","m160","done","22","m160ball.wav","None","734.490094706","166","373984.323373","380850.750348","367033.940416","367800.883184","368567.555735","369334.059478","370101.141684","370867.902659","374733.601222","375500.805242","376267.355979","377033.870233","377800.736946","378567.559446","379317.233963","380083.682674","380092.496892","Mapping"
"Blocked","m160","done","22","m160jaw.wav","None","730.918216519","166","373984.323373","380850.750348","381617.221937","367800.883184","368567.555735","369334.059478","370101.141684","370867.902659","374733.601222","375500.805242","376267.355979","377033.870233","377800.736946","378567.559446","379317.233963","380083.682674","380860.569071","Mapping"
"Blocked","m160","done","22","m160done.wav","None","728.323944379","166","373984.323373","380850.750348","381617.221937","382383.808229","368567.555735","369334.059478","370101.141684","370867.902659","374733.601222","375500.805242","376267.355979","377033.870233","377800.736946","378567.559446","379317.233963","380083.682674","381627.696725","Mapping"
"Blocked","m160","done","22","m160cling.wav","space","481.371850707","166","373984.323373","380850.750348","381617.221937","382383.808229","383150.914859","369334.059478","370101.141684","370867.902659","374733.601222","375500.805242","376267.355979","377033.870233","377800.736946","378567.559446","379317.233963","380083.682674","382393.367555","Mapping"
"Blocked","m160","done","22","m160priest.wav","None","722.889606841","166","373984.323373","380850.750348","381617.221937","382383.808229","383150.914859","383917.537324","370101.141684","370867.902659","374733.601222","375500.805242","376267.355979","377033.870233","377800.736946","378567.559446","379317.233963","380083.682674","383161.059141","Mapping"
"Blocked","m160","done","22","m160gnash.wav","None","721.322717145","166","373984.323373","380850.750348","381617.221937","382383.808229","383150.914859","383917.537324","384684.24172","370867.902659","374733.601222","375500.805242","376267.355979","377033.870233","377800.736946","378567.559446","379317.233963","380083.682674","383927.598748","Mapping"
"Blocked","m160","done","22","m160reek.wav","None","719.92803691","166","373984.323373","380850.750348","381617.221937","382383.808229","383150.914859","383917.537324","384684.24172","385433.624379","374733.601222","375500.805242","376267.355979","377033.870233","377800.736946","378567.559446","379317.233963","380083.682674","384693.674595","Mapping"
"Blocked","m160","ball","5","m160cad.wav","None","735.398136079","166","388567.559137","380850.750348","381617.221937","382383.808229","383150.914859","383917.537324","384684.24172","385433.624379","374733.601222","375500.805242","376267.355979","377033.870233","377800.736946","378567.559446","379317.233963","380083.682674","385442.705105","Mapping"
"Blocked","m160","ball","5","m160knife.wav","None","719.540333841","166","388567.559137","380850.750348","381617.221937","382383.808229","383150.914859","383917.537324","384684.24172","385433.624379","389316.839149","375500.805242","376267.355979","377033.870233","377800.736946","378567.559446","379317.233963","380083.682674","388577.626434","Mapping"
"Blocked","m160","ball","5","m160ball.wav","None","735.331664328","166","388567.559137","380850.750348","381617.221937","382383.808229","383150.914859","383917.537324","384684.24172","385433.624379","389316.839149","390083.957837","376267.355979","377033.870233","377800.736946","378567.559446","379317.233963","380083.682674","389326.274497","Mapping"
"Blocked","m160","ball","5","m160jaw.wav","space","397.272103","166","388567.559137","380850.750348","381617.221937","382383.808229","383150.914859","383917.537324","384684.24172","385433.624379","389316.839149","390083.957837","390850.474874","377033.870233","377800.736946","378567.559446","379317.233963","380083.682674","390093.337225","Mapping"
"Blocked","m160","ball","5","m160cling.wav","None","729.530647397","166","388567.559137","380850.750348","381617.221937","382383.808229","383150.914859","383917.537324","384684.24172","385433.624379","389316.839149","390083.957837","390850.474874","391617.079408","377800.736946","378567.559446","379317.233963","380083.682674","390859.972366","Mapping"
"Blocked","m160","ball","5","m160tile.wav","None","727.019233163","166","388567.559137","380850.750348","381617.221937","382383.808229","383150.914859","383917.537324","384684.24172","385433.624379","389316.839149","390083.957837","390850.474874","391617.079408","392383.621488","378567.559446","379317.233963","380083.682674","391627.038186","Mapping"
"Blocked","m160","ball","5","m160priest.wav","None","725.713904016","166","388567.559137","380850.750348","381617.221937","382383.808229","383150.914859","383917.537324","384684.24172","385433.624379","389316.839149","390083.957837","390850.474874","391617.079408","392383.621488","393150.856735","379317.233963","380083.682674","392392.954499","Mapping"
"Blocked","m160","ball","5","m160ball.wav","None","722.618152853","166","388567.559137","380850.750348","381617.221937","382383.808229","383150.914859","383917.537324","384684.24172","385433.624379","389316.839149","390083.957837","390850.474874","391617.079408","392383.621488","393150.856735","393917.201872","380083.682674","393160.47975","Mapping"
"Blocked","m160","ball","5","m160bluff.wav","space","564.107835758","166","388567.559137","380850.750348","381617.221937","382383.808229","383150.914859","383917.537324","384684.24172","385433.624379","389316.839149","390083.957837","390850.474874","391617.079408","392383.621488","393150.856735","393917.201872","394666.631524","393926.486343","Mapping"
"Blocked","m160","ball","5","m160ball.wav","None","735.254989006","166","388567.559137","395433.547395","381617.221937","382383.808229","383150.914859","383917.537324","384684.24172","385433.624379","389316.839149","390083.957837","390850.474874","391617.079408","392383.621488","393150.856735","393917.201872","394666.631524","394675.972883","Mapping"
"Blocked","m160","ball","5","m160cave.wav","space","495.094194077","166","388567.559137","395433.547395","396200.413798","382383.808229","383150.914859","383917.537324","384684.24172","385433.624379","389316.839149","390083.957837","390850.474874","391617.079408","392383.621488","393150.856735","393917.201872","394666.631524","395443.427334","Mapping"
"Blocked","m160","ball","5","m160jaw.wav","None","729.85125985","166","388567.559137","395433.547395","396200.413798","396967.0038","383150.914859","383917.537324","384684.24172","385433.624379","389316.839149","390083.957837","390850.474874","391617.079408","392383.621488","393150.856735","393917.201872","394666.631524","396209.616029","Mapping"
"Blocked","m160","ball","5","m160jaw.wav","None","726.651626173","166","388567.559137","395433.547395","396200.413798","396967.0038","397733.498576","383917.537324","384684.24172","385433.624379","389316.839149","390083.957837","390850.474874","391617.079408","392383.621488","393150.856735","393917.201872","394666.631524","396977.041726","Mapping"
"Blocked","m160","ball","5","m160reek.wav","None","725.498101208","166","388567.559137","395433.547395","396200.413798","396967.0038","397733.498576","398500.722074","384684.24172","385433.624379","389316.839149","390083.957837","390850.474874","391617.079408","392383.621488","393150.856735","393917.201872","394666.631524","397742.874254","Mapping"
"Blocked","m160","ball","5","m160ball.wav","None","722.587854136","166","388567.559137","395433.547395","396200.413798","396967.0038","397733.498576","398500.722074","399267.297545","385433.624379","389316.839149","390083.957837","390850.474874","391617.079408","392383.621488","393150.856735","393917.201872","394666.631524","398510.352819","Mapping"
"Blocked","m160","ball","5","m160park.wav","space","533.423941582","166","388567.559137","395433.547395","396200.413798","396967.0038","397733.498576","398500.722074","399267.297545","400016.784395","389316.839149","390083.957837","390850.474874","391617.079408","392383.621488","393150.856735","393917.201872","394666.631524","399277.038665","Mapping"
"Blocked","m160","tile","17","m160greet.wav","None","734.374154359","166","403150.604449","395433.547395","396200.413798","396967.0038","397733.498576","398500.722074","399267.297545","400016.784395","389316.839149","390083.957837","390850.474874","391617.079408","392383.621488","393150.856735","393917.201872","394666.631524","400026.512221","Mapping"
"Blocked","m160","tile","17","m160tile.wav","None","719.700485002","166","403150.604449","395433.547395","396200.413798","396967.0038","397733.498576","398500.722074","399267.297545","400016.784395","403899.951862","390083.957837","390850.474874","391617.079408","392383.621488","393150.856735","393917.201872","394666.631524","403160.235813","Mapping"
"Blocked","m160","tile","17","m160romp.wav","space","437.030849047","166","403150.604449","395433.547395","396200.413798","396967.0038","397733.498576","398500.722074","399267.297545","400016.784395","403899.951862","404666.753957","390850.474874","391617.079408","392383.621488","393150.856735","393917.201872","394666.631524","403909.34578","Mapping"
"Blocked","m160","tile","17","m160park.wav","None","732.23405797","166","403150.604449","395433.547395","396200.413798","396967.0038","397733.498576","398500.722074","399267.297545","400016.784395","403899.951862","404666.753957","405433.358799","391617.079408","392383.621488","393150.856735","393917.201872","394666.631524","404675.853851","Mapping"
"Blocked","m160","tile","17","m160knife.wav","None","729.458919261","166","403150.604449","395433.547395","396200.413798","396967.0038","397733.498576","398500.722074","399267.297545","400016.784395","403899.951862","404666.753957","405433.358799","406200.250554","392383.621488","393150.856735","393917.201872","394666.631524","405443.190197","Mapping"
"Blocked","m160","tile","17","m160gnash.wav","None","727.91799996","166","403150.604449","395433.547395","396200.413798","396967.0038","397733.498576","398500.722074","399267.297545","400016.784395","403899.951862","404666.753957","405433.358799","406200.250554","406966.779031","393150.856735","393917.201872","394666.631524","406209.368381","Mapping"
"Blocked","m160","tile","17","m160cave.wav","None","725.535511505","166","403150.604449","395433.547395","396200.413798","396967.0038","397733.498576","398500.722074","399267.297545","400016.784395","403899.951862","404666.753957","405433.358799","406200.250554","406966.779031","407733.844232","393917.201872","394666.631524","406976.776455","Mapping"
"Blocked","m160","tile","17","m160tile.wav","None","723.426950164","166","403150.604449","395433.547395","396200.413798","396967.0038","397733.498576","398500.722074","399267.297545","400016.784395","403899.951862","404666.753957","405433.358799","406200.250554","406966.779031","407733.844232","408500.40208","394666.631524","407743.562782","Mapping"
"Blocked","m160","tile","17","m160ball.wav","space","403.097235598","166","403150.604449","395433.547395","396200.413798","396967.0038","397733.498576","398500.722074","399267.297545","400016.784395","403899.951862","404666.753957","405433.358799","406200.250554","406966.779031","407733.844232","408500.40208","409250.25901","408511.247566","Mapping"
"Blocked","m160","tile","17","m160done.wav","None","735.880755819","166","403150.604449","410016.671238","396200.413798","396967.0038","397733.498576","398500.722074","399267.297545","400016.784395","403899.951862","404666.753957","405433.358799","406200.250554","406966.779031","407733.844232","408500.40208","409250.25901","409259.451966","Mapping"
"Blocked","m160","tile","17","m160done.wav","None","733.120766468","166","403150.604449","410016.671238","410783.398821","396967.0038","397733.498576","398500.722074","399267.297545","400016.784395","403899.951862","404666.753957","405433.358799","406200.250554","406966.779031","407733.844232","408500.40208","409250.25901","410026.626924","Mapping"
"Blocked","m160","tile","17","m160tile.wav","None","731.515848543","166","403150.604449","410016.671238","410783.398821","411550.131352","397733.498576","398500.722074","399267.297545","400016.784395","403899.951862","404666.753957","405433.358799","406200.250554","406966.779031","407733.844232","408500.40208","409250.25901","410792.772953","Mapping"
"Blocked","m160","tile","17","m160gnash.wav","None","729.090075474","166","403150.604449","410016.671238","410783.398821","411550.131352","412316.65952","398500.722074","399267.297545","400016.784395","403899.951862","404666.753957","405433.358799","406200.250554","406966.779031","407733.844232","408500.40208","409250.25901","411559.837536","Mapping"
"Blocked","m160","tile","17","m160park.wav","space","20.4255273566","166","403150.604449","410016.671238","410783.398821","411550.131352","412316.65952","413083.237773","399267.297545","400016.784395","403899.951862","404666.753957","405433.358799","406200.250554","406966.779031","407733.844232","408500.40208","409250.25901","412325.824341","Mapping"
"Blocked","m160","tile","17","m160tile.wav","None","724.715892691","166","403150.604449","410016.671238","410783.398821","411550.131352","412316.65952","413083.237773","413850.444885","400016.784395","403899.951862","404666.753957","405433.358799","406200.250554","406966.779031","407733.844232","408500.40208","409250.25901","413092.779167","Mapping"
"Blocked","m160","tile","17","m160done.wav","space","526.018315926","166","403150.604449","410016.671238","410783.398821","411550.131352","412316.65952","413083.237773","413850.444885","414617.03365","403899.951862","404666.753957","405433.358799","406200.250554","406966.779031","407733.844232","408500.40208","409250.25901","413860.178894","Mapping"
"Blocked","m160","ball","6","m160cad.wav","None","718.897253275","166","417733.546498","410016.671238","410783.398821","411550.131352","412316.65952","413083.237773","413850.444885","414617.03365","403899.951862","404666.753957","405433.358799","406200.250554","406966.779031","407733.844232","408500.40208","409250.25901","414626.925647","Mapping"
"Blocked","m160","ball","6","m160depth.wav","None","720.354386605","166","417733.546498","410016.671238","410783.398821","411550.131352","412316.65952","413083.237773","413850.444885","414617.03365","418483.189171","404666.753957","405433.358799","406200.250554","406966.779031","407733.844232","408500.40208","409250.25901","417743.168896","Mapping"
"Blocked","m160","ball","6","m160tile.wav","None","735.83097849","166","417733.546498","410016.671238","410783.398821","411550.131352","412316.65952","413083.237773","413850.444885","414617.03365","418483.189171","419250.011671","405433.358799","406200.250554","406966.779031","407733.844232","408500.40208","409250.25901","418492.581853","Mapping"
"Blocked","m160","ball","6","m160knife.wav","None","733.619462699","166","417733.546498","410016.671238","410783.398821","411550.131352","412316.65952","413083.237773","413850.444885","414617.03365","418483.189171","419250.011671","420016.490989","406200.250554","406966.779031","407733.844232","408500.40208","409250.25901","419259.575326","Mapping"
"Blocked","m160","ball","6","m160ball.wav","None","732.049171813","166","417733.546498","410016.671238","410783.398821","411550.131352","412316.65952","413083.237773","413850.444885","414617.03365","418483.189171","419250.011671","420016.490989","420782.97309","406966.779031","407733.844232","408500.40208","409250.25901","420025.883671","Mapping"
"Blocked","m160","ball","6","m160cling.wav","space","522.012668196","166","417733.546498","410016.671238","410783.398821","411550.131352","412316.65952","413083.237773","413850.444885","414617.03365","418483.189171","419250.011671","420016.490989","420782.97309","421549.918332","407733.844232","408500.40208","409250.25901","420792.058453","Mapping"
"Blocked","m160","ball","6","m160romp.wav","None","726.516517811","166","417733.546498","410016.671238","410783.398821","411550.131352","412316.65952","413083.237773","413850.444885","414617.03365","418483.189171","419250.011671","420016.490989","420782.97309","421549.918332","422316.259141","408500.40208","409250.25901","421559.646467","Mapping"
"Blocked","m160","ball","6","m160knife.wav","None","725.763062946","166","417733.546498","410016.671238","410783.398821","411550.131352","412316.65952","413083.237773","413850.444885","414617.03365","418483.189171","419250.011671","420016.490989","420782.97309","421549.918332","422316.259141","423083.121524","409250.25901","422325.139213","Mapping"
"Blocked","m160","ball","6","m160ball.wav","None","723.152713384","166","417733.546498","410016.671238","410783.398821","411550.131352","412316.65952","413083.237773","413850.444885","414617.03365","418483.189171","419250.011671","420016.490989","420782.97309","421549.918332","422316.259141","423083.121524","423849.330315","423092.727535","Mapping"
"Blocked","m160","ball","6","m160reek.wav","space","495.220954996","166","417733.546498","424617.008917","410783.398821","411550.131352","412316.65952","413083.237773","413850.444885","414617.03365","418483.189171","419250.011671","420016.490989","420782.97309","421549.918332","422316.259141","423083.121524","423849.330315","423858.812658","Mapping"
"Blocked","m160","ball","6","m160ball.wav","None","720.188360661","166","417733.546498","424617.008917","425383.596445","411550.131352","412316.65952","413083.237773","413850.444885","414617.03365","418483.189171","419250.011671","420016.490989","420782.97309","421549.918332","422316.259141","423083.121524","423849.330315","424626.911734","Mapping"
"Blocked","m160","ball","6","m160gnash.wav","None","718.34908938","166","417733.546498","424617.008917","425383.596445","426132.937984","412316.65952","413083.237773","413850.444885","414617.03365","418483.189171","419250.011671","420016.490989","420782.97309","421549.918332","422316.259141","423083.121524","423849.330315","425393.634062","Mapping"
"Blocked","m160","ball","6","m160ball.wav","space","67.044517491","166","417733.546498","424617.008917","425383.596445","426132.937984","426899.596931","413083.237773","413850.444885","414617.03365","418483.189171","419250.011671","420016.490989","420782.97309","421549.918332","422316.259141","423083.121524","423849.330315","426142.944683","Mapping"
"Blocked","m160","ball","6","m160depth.wav","space","477.097531315","166","417733.546498","424617.008917","425383.596445","426132.937984","426899.596931","427666.341829","413850.444885","414617.03365","418483.189171","419250.011671","420016.490989","420782.97309","421549.918332","422316.259141","423083.121524","423849.330315","426908.846157","Mapping"
"Blocked","m160","ball","6","m160done.wav","None","728.145242203","166","417733.546498","424617.008917","425383.596445","426132.937984","426899.596931","427666.341829","428433.013143","414617.03365","418483.189171","419250.011671","420016.490989","420782.97309","421549.918332","422316.259141","423083.121524","423849.330315","427675.770993","Mapping"
"Blocked","m160","ball","6","m160bluff.wav","None","725.687624421","166","417733.546498","424617.008917","425383.596445","426132.937984","426899.596931","427666.341829","428433.013143","429199.431554","418483.189171","419250.011671","420016.490989","420782.97309","421549.918332","422316.259141","423083.121524","423849.330315","428442.826301","Mapping"
"Blocked","m160","ball","1","m160done.wav","None","725.387417246","166","432316.649626","424617.008917","425383.596445","426132.937984","426899.596931","427666.341829","428433.013143","429199.431554","418483.189171","419250.011671","420016.490989","420782.97309","421549.918332","422316.259141","423083.121524","423849.330315","429208.606887","Mapping"
"Blocked","m160","ball","1","m160ball.wav","None","719.71439803","166","432316.649626","424617.008917","425383.596445","426132.937984","426899.596931","427666.341829","428433.013143","429199.431554","433065.939842","419250.011671","420016.490989","420782.97309","421549.918332","422316.259141","423083.121524","423849.330315","432326.681369","Mapping"
"Blocked","m160","ball","1","m160knife.wav","space","487.058473751","166","432316.649626","424617.008917","425383.596445","426132.937984","426899.596931","427666.341829","428433.013143","429199.431554","433065.939842","433832.877355","420016.490989","420782.97309","421549.918332","422316.259141","423083.121524","423849.330315","433074.788997","Mapping"
"Blocked","m160","ball","1","m160ball.wav","None","732.058756519","166","432316.649626","424617.008917","425383.596445","426132.937984","426899.596931","427666.341829","428433.013143","429199.431554","433065.939842","433832.877355","434599.739429","420782.97309","421549.918332","422316.259141","423083.121524","423849.330315","433842.735342","Mapping"
"Blocked","m160","ball","1","m160romp.wav","space","384.678860661","166","432316.649626","424617.008917","425383.596445","426132.937984","426899.596931","427666.341829","428433.013143","429199.431554","433065.939842","433832.877355","434599.739429","435366.263886","421549.918332","422316.259141","423083.121524","423849.330315","434609.176013","Mapping"
"Blocked","m160","ball","1","m160knife.wav","None","727.49814298","166","432316.649626","424617.008917","425383.596445","426132.937984","426899.596931","427666.341829","428433.013143","429199.431554","433065.939842","433832.877355","434599.739429","435366.263886","436132.845541","422316.259141","423083.121524","423849.330315","435375.560724","Mapping"
"Blocked","m160","ball","1","m160cling.wav","None","726.184774656","166","432316.649626","424617.008917","425383.596445","426132.937984","426899.596931","427666.341829","428433.013143","429199.431554","433065.939842","433832.877355","434599.739429","435366.263886","436132.845541","436900.489205","423083.121524","423849.330315","436141.881437","Mapping"
"Blocked","m160","ball","1","m160dime.wav","None","722.75542561","166","432316.649626","424617.008917","425383.596445","426132.937984","426899.596931","427666.341829","428433.013143","429199.431554","433065.939842","433832.877355","434599.739429","435366.263886","436132.845541","436900.489205","437666.919364","423849.330315","436910.179002","Mapping"
"Blocked","m160","ball","1","m160lash.wav","None","720.552257728","166","432316.649626","424617.008917","425383.596445","426132.937984","426899.596931","427666.341829","428433.013143","429199.431554","433065.939842","433832.877355","434599.739429","435366.263886","436132.845541","436900.489205","437666.919364","438433.168039","437677.316241","Mapping"
"Blocked","m160","ball","1","m160ball.wav","None","719.672041479","166","432316.649626","439183.140909","425383.596445","426132.937984","426899.596931","427666.341829","428433.013143","429199.431554","433065.939842","433832.877355","434599.739429","435366.263886","436132.845541","436900.489205","437666.919364","438433.168039","438443.071166","Mapping"
"Blocked","m160","ball","1","m160jolt.wav","space","536.900285166","166","432316.649626","439183.140909","439949.654855","426132.937984","426899.596931","427666.341829","428433.013143","429199.431554","433065.939842","433832.877355","434599.739429","435366.263886","436132.845541","436900.489205","437666.919364","438433.168039","439192.838436","Mapping"
"Blocked","m160","ball","1","m160jolt.wav","None","733.150756452","166","432316.649626","439183.140909","439949.654855","440716.117478","426899.596931","427666.341829","428433.013143","429199.431554","433065.939842","433832.877355","434599.739429","435366.263886","436132.845541","436900.489205","437666.919364","438433.168039","439958.790304","Mapping"
"Blocked","m160","ball","1","m160tile.wav","None","731.33652797","166","432316.649626","439183.140909","439949.654855","440716.117478","441482.797449","427666.341829","428433.013143","429199.431554","433065.939842","433832.877355","434599.739429","435366.263886","436132.845541","436900.489205","437666.919364","438433.168039","440725.391746","Mapping"
"Blocked","m160","ball","1","m160ball.wav","None","729.58537098","166","432316.649626","439183.140909","439949.654855","440716.117478","441482.797449","442249.588722","428433.013143","429199.431554","433065.939842","433832.877355","434599.739429","435366.263886","436132.845541","436900.489205","437666.919364","438433.168039","441491.805519","Mapping"
"Blocked","m160","ball","1","m160depth.wav","space","542.515179608","166","432316.649626","439183.140909","439949.654855","440716.117478","441482.797449","442249.588722","443016.483569","429199.431554","433065.939842","433832.877355","434599.739429","435366.263886","436132.845541","436900.489205","437666.919364","438433.168039","442259.169382","Mapping"
"Blocked","m160","ball","1","m160dime.wav","None","723.656665534","166","432316.649626","439183.140909","439949.654855","440716.117478","441482.797449","442249.588722","443016.483569","443783.031833","433065.939842","433832.877355","434599.739429","435366.263886","436132.845541","436900.489205","437666.919364","438433.168039","443026.181096","Mapping"
"Blocked","m160","done","24","m160park.wav","None","721.446386538","166","446899.856018","439183.140909","439949.654855","440716.117478","441482.797449","442249.588722","443016.483569","443783.031833","433065.939842","433832.877355","434599.739429","435366.263886","436132.845541","436900.489205","437666.919364","438433.168039","443793.473539","Mapping"
"Blocked","m160","done","24","m160dime.wav","None","719.339061994","166","446899.856018","439183.140909","439949.654855","440716.117478","441482.797449","442249.588722","443016.483569","443783.031833","447666.23671","433832.877355","434599.739429","435366.263886","436132.845541","436900.489205","437666.919364","438433.168039","446910.557739","Mapping"
"Blocked","m160","done","24","m160gnash.wav","None","720.674689859","166","446899.856018","439183.140909","439949.654855","440716.117478","441482.797449","442249.588722","443016.483569","443783.031833","447666.23671","448416.235242","434599.739429","435366.263886","436132.845541","436900.489205","437666.919364","438433.168039","447675.624754","Mapping"
"Blocked","m160","done","24","m160done.wav","None","740.35727419","166","446899.856018","439183.140909","439949.654855","440716.117478","441482.797449","442249.588722","443016.483569","443783.031833","447666.23671","448416.235242","449182.577286","435366.263886","436132.845541","436900.489205","437666.919364","438433.168039","448420.694137","Mapping"
"Blocked","m160","done","24","m160cling.wav","space","473.856777884","166","446899.856018","439183.140909","439949.654855","440716.117478","441482.797449","442249.588722","443016.483569","443783.031833","447666.23671","448416.235242","449182.577286","449949.180274","436132.845541","436900.489205","437666.919364","438433.168039","449191.706553","Mapping"
"Blocked","m160","done","24","m160cave.wav","None","731.252432801","166","446899.856018","439183.140909","439949.654855","440716.117478","441482.797449","442249.588722","443016.483569","443783.031833","447666.23671","448416.235242","449182.577286","449949.180274","450715.940012","436900.489205","437666.919364","438433.168039","449958.544821","Mapping"
"Blocked","m160","done","24","m160done.wav","None","729.276197497","166","446899.856018","439183.140909","439949.654855","440716.117478","441482.797449","442249.588722","443016.483569","443783.031833","447666.23671","448416.235242","449182.577286","449949.180274","450715.940012","451482.632659","437666.919364","438433.168039","450725.396693","Mapping"
"Blocked","m160","done","24","m160lash.wav","space","629.111191723","166","446899.856018","439183.140909","439949.654855","440716.117478","441482.797449","442249.588722","443016.483569","443783.031833","447666.23671","448416.235242","449182.577286","449949.180274","450715.940012","451482.632659","452249.83637","438433.168039","451492.369451","Mapping"
"Blocked","m160","done","24","m160priest.wav","None","723.569169641","166","446899.856018","439183.140909","439949.654855","440716.117478","441482.797449","442249.588722","443016.483569","443783.031833","447666.23671","448416.235242","449182.577286","449949.180274","450715.940012","451482.632659","452249.83637","453016.556225","452259.50638","Mapping"
"Blocked","m160","done","24","m160done.wav","None","721.485033166","166","446899.856018","453782.940317","439949.654855","440716.117478","441482.797449","442249.588722","443016.483569","443783.031833","447666.23671","448416.235242","449182.577286","449949.180274","450715.940012","451482.632659","452249.83637","453016.556225","453026.372783","Mapping"
"Blocked","m160","done","24","m160priest.wav","space","488.642058801","166","446899.856018","453782.940317","454532.169626","440716.117478","441482.797449","442249.588722","443016.483569","443783.031833","447666.23671","448416.235242","449182.577286","449949.180274","450715.940012","451482.632659","452249.83637","453016.556225","453792.789648","Mapping"
"Blocked","m160","done","24","m160park.wav","None","734.705588315","166","446899.856018","453782.940317","454532.169626","455299.343656","441482.797449","442249.588722","443016.483569","443783.031833","447666.23671","448416.235242","449182.577286","449949.180274","450715.940012","451482.632659","452249.83637","453016.556225","454541.37093","Mapping"
"Blocked","m160","done","24","m160lash.wav","None","732.289090287","166","446899.856018","453782.940317","454532.169626","455299.343656","456065.611191","442249.588722","443016.483569","443783.031833","447666.23671","448416.235242","449182.577286","449949.180274","450715.940012","451482.632659","452249.83637","453016.556225","455308.559491","Mapping"
"Blocked","m160","done","24","m160done.wav","None","731.013132725","166","446899.856018","453782.940317","454532.169626","455299.343656","456065.611191","456832.580239","443016.483569","443783.031833","447666.23671","448416.235242","449182.577286","449949.180274","450715.940012","451482.632659","452249.83637","453016.556225","456074.82177","Mapping"
"Blocked","m160","done","24","m160cad.wav","space","575.334842317","166","446899.856018","453782.940317","454532.169626","455299.343656","456065.611191","456832.580239","457599.277833","443783.031833","447666.23671","448416.235242","449182.577286","449949.180274","450715.940012","451482.632659","452249.83637","453016.556225","456842.123488","Mapping"
"Blocked","m160","done","24","m160dime.wav","None","726.360694505","166","446899.856018","453782.940317","454532.169626","455299.343656","456065.611191","456832.580239","457599.277833","458366.895218","447666.23671","448416.235242","449182.577286","449949.180274","450715.940012","451482.632659","452249.83637","453016.556225","457608.440181","Mapping"
"Blocked","m160","done","20","m160cave.wav","None","721.976618282","166","461482.872578","453782.940317","454532.169626","455299.343656","456065.611191","456832.580239","457599.277833","458366.895218","447666.23671","448416.235242","449182.577286","449949.180274","450715.940012","451482.632659","452249.83637","453016.556225","458377.669904","Mapping"
"Blocked","m160","done","20","m160cave.wav","None","720.70066072","166","461482.872578","453782.940317","454532.169626","455299.343656","456065.611191","456832.580239","457599.277833","458366.895218","462232.586051","448416.235242","449182.577286","449949.180274","450715.940012","451482.632659","452249.83637","453016.556225","461492.297414","Mapping"
"Blocked","m160","done","20","m160cling.wav","None","736.568975262","166","461482.872578","453782.940317","454532.169626","455299.343656","456065.611191","456832.580239","457599.277833","458366.895218","462232.586051","462999.013738","449182.577286","449949.180274","450715.940012","451482.632659","452249.83637","453016.556225","462241.438608","Mapping"
"Blocked","m160","done","20","m160done.wav","None","734.609435778","166","461482.872578","453782.940317","454532.169626","455299.343656","456065.611191","456832.580239","457599.277833","458366.895218","462232.586051","462999.013738","463765.705148","449949.180274","450715.940012","451482.632659","452249.83637","453016.556225","463008.339329","Mapping"
"Blocked","m160","done","20","m160ball.wav","space","473.521016072","166","461482.872578","453782.940317","454532.169626","455299.343656","456065.611191","456832.580239","457599.277833","458366.895218","462232.586051","462999.013738","463765.705148","464532.356676","450715.940012","451482.632659","452249.83637","453016.556225","463775.753587","Mapping"
"Blocked","m160","done","20","m160ball.wav","None","729.60021114","166","461482.872578","453782.940317","454532.169626","455299.343656","456065.611191","456832.580239","457599.277833","458366.895218","462232.586051","462999.013738","463765.705148","464532.356676","465299.01686","451482.632659","452249.83637","453016.556225","464541.751831","Mapping"
"Blocked","m160","done","20","m160cling.wav","None","727.982616983","166","461482.872578","453782.940317","454532.169626","455299.343656","456065.611191","456832.580239","457599.277833","458366.895218","462232.586051","462999.013738","463765.705148","464532.356676","465299.01686","466065.667151","452249.83637","453016.556225","465308.447571","Mapping"
"Blocked","m160","done","20","m160done.wav","None","726.157876663","166","461482.872578","453782.940317","454532.169626","455299.343656","456065.611191","456832.580239","457599.277833","458366.895218","462232.586051","462999.013738","463765.705148","464532.356676","465299.01686","466065.667151","466832.272921","453016.556225","466075.143928","Mapping"
"Blocked","m160","done","20","m160jolt.wav","space","719.180147164","166","461482.872578","453782.940317","454532.169626","455299.343656","456065.611191","456832.580239","457599.277833","458366.895218","462232.586051","462999.013738","463765.705148","464532.356676","465299.01686","466065.667151","466832.272921","467599.232694","466842.030118","Mapping"
"Blocked","m160","done","20","m160done.wav","None","720.82711244","166","461482.872578","468366.043446","454532.169626","455299.343656","456065.611191","456832.580239","457599.277833","458366.895218","462232.586051","462999.013738","463765.705148","464532.356676","465299.01686","466065.667151","466832.272921","467599.232694","467609.073059","Mapping"
"Blocked","m160","done","20","m160reek.wav","space","585.13068594","166","461482.872578","468366.043446","469115.376946","455299.343656","456065.611191","456832.580239","457599.277833","458366.895218","462232.586051","462999.013738","463765.705148","464532.356676","465299.01686","466065.667151","466832.272921","467599.232694","468376.081681","Mapping"
"Blocked","m160","done","20","m160depth.wav","None","733.183837961","166","461482.872578","468366.043446","469115.376946","469882.230673","456065.611191","456832.580239","457599.277833","458366.895218","462232.586051","462999.013738","463765.705148","464532.356676","465299.01686","466065.667151","466832.272921","467599.232694","469125.204634","Mapping"
"Blocked","m160","done","20","m160done.wav","None","731.724231038","166","461482.872578","468366.043446","469115.376946","469882.230673","470649.146852","456832.580239","457599.277833","458366.895218","462232.586051","462999.013738","463765.705148","464532.356676","465299.01686","466065.667151","466832.272921","467599.232694","469891.574814","Mapping"
"Blocked","m160","done","20","m160tile.wav","space","502.640184481","166","461482.872578","468366.043446","469115.376946","469882.230673","470649.146852","471415.579794","457599.277833","458366.895218","462232.586051","462999.013738","463765.705148","464532.356676","465299.01686","466065.667151","466832.272921","467599.232694","470658.532114","Mapping"
"Blocked","m160","done","20","m160ball.wav","None","726.569695398","166","461482.872578","468366.043446","469115.376946","469882.230673","470649.146852","471415.579794","472182.197931","458366.895218","462232.586051","462999.013738","463765.705148","464532.356676","465299.01686","466065.667151","466832.272921","467599.232694","471425.044513","Mapping"
"Blocked","m160","done","20","m160lash.wav","None","724.686212372","166","461482.872578","468366.043446","469115.376946","469882.230673","470649.146852","471415.579794","472182.197931","472949.369797","462232.586051","462999.013738","463765.705148","464532.356676","465299.01686","466065.667151","466832.272921","467599.232694","472192.127028","Mapping"
"Blocked","m160","tile","16","m160cave.wav","None","722.866110038","166","476065.870587","468366.043446","469115.376946","469882.230673","470649.146852","471415.579794","472182.197931","472949.369797","462232.586051","462999.013738","463765.705148","464532.356676","465299.01686","466065.667151","466832.272921","467599.232694","472959.01229","Mapping"
"Blocked","m160","tile","16","m160priest.wav","None","719.882897567","166","476065.870587","468366.043446","469115.376946","469882.230673","470649.146852","471415.579794","472182.197931","472949.369797","476832.390716","462999.013738","463765.705148","464532.356676","465299.01686","466065.667151","466832.272921","467599.232694","476075.761965","Mapping"
"Blocked","m160","tile","16","m160jolt.wav","None","718.424527906","166","476065.870587","468366.043446","469115.376946","469882.230673","470649.146852","471415.579794","472182.197931","472949.369797","476832.390716","477581.943729","463765.705148","464532.356676","465299.01686","466065.667151","466832.272921","467599.232694","476842.674744","Mapping"
"Blocked","m160","tile","16","m160tile.wav","None","734.734650701","166","476065.870587","468366.043446","469115.376946","469882.230673","470649.146852","471415.579794","472182.197931","472949.369797","476832.390716","477581.943729","478348.655236","464532.356676","465299.01686","466065.667151","466832.272921","467599.232694","477591.568599","Mapping"
"Blocked","m160","tile","16","m160gnash.wav","space","403.121350799","166","476065.870587","468366.043446","469115.376946","469882.230673","470649.146852","471415.579794","472182.197931","472949.369797","476832.390716","477581.943729","478348.655236","479115.500615","465299.01686","466065.667151","466832.272921","467599.232694","478357.907244","Mapping"
"Blocked","m160","tile","16","m160tile.wav","None","730.100144166","166","476065.870587","468366.043446","469115.376946","469882.230673","470649.146852","471415.579794","472182.197931","472949.369797","476832.390716","477581.943729","478348.655236","479115.500615","479882.147505","466065.667151","466832.272921","467599.232694","479124.98914","Mapping"
"Blocked","m160","tile","16","m160cave.wav","space","676.720463671","166","476065.870587","468366.043446","469115.376946","469882.230673","470649.146852","471415.579794","472182.197931","472949.369797","476832.390716","477581.943729","478348.655236","479115.500615","479882.147505","480648.911571","466832.272921","467599.232694","479892.272309","Mapping"
"Blocked","m160","tile","16","m160tile.wav","None","725.657943636","166","476065.870587","468366.043446","469115.376946","469882.230673","470649.146852","471415.579794","472182.197931","472949.369797","476832.390716","477581.943729","478348.655236","479115.500615","479882.147505","480648.911571","481415.803326","467599.232694","480657.954578","Mapping"
"Blocked","m160","tile","16","m160reek.wav","space","511.330115609","166","476065.870587","468366.043446","469115.376946","469882.230673","470649.146852","471415.579794","472182.197931","472949.369797","476832.390716","477581.943729","478348.655236","479115.500615","479882.147505","480648.911571","481415.803326","482182.379725","481425.652657","Mapping"
"Blocked","m160","tile","16","m160tile.wav","None","720.587193966","166","476065.870587","482949.230978","469115.376946","469882.230673","470649.146852","471415.579794","472182.197931","472949.369797","476832.390716","477581.943729","478348.655236","479115.500615","479882.147505","480648.911571","481415.803326","482182.379725","482191.965331","Mapping"
"Blocked","m160","tile","16","m160park.wav","space","441.713277251","166","476065.870587","482949.230978","483698.714427","469882.230673","470649.146852","471415.579794","472182.197931","472949.369797","476832.390716","477581.943729","478348.655236","479115.500615","479882.147505","480648.911571","481415.803326","482182.379725","482959.259938","Mapping"
"Blocked","m160","tile","16","m160jolt.wav","None","733.047492336","166","476065.870587","482949.230978","483698.714427","484465.407693","470649.146852","471415.579794","472182.197931","472949.369797","476832.390716","477581.943729","478348.655236","479115.500615","479882.147505","480648.911571","481415.803326","482182.379725","483708.244382","Mapping"
"Blocked","m160","tile","16","m160lash.wav","None","731.501626316","166","476065.870587","482949.230978","483698.714427","484465.407693","485231.953483","471415.579794","472182.197931","472949.369797","476832.390716","477581.943729","478348.655236","479115.500615","479882.147505","480648.911571","481415.803326","482182.379725","484474.91446","Mapping"
"Blocked","m160","tile","16","m160reek.wav","None","730.218866374","166","476065.870587","482949.230978","483698.714427","484465.407693","485231.953483","485998.791442","472182.197931","472949.369797","476832.390716","477581.943729","478348.655236","479115.500615","479882.147505","480648.911571","481415.803326","482182.379725","485241.291751","Mapping"
"Blocked","m160","tile","16","m160done.wav","None","728.773791343","166","476065.870587","482949.230978","483698.714427","484465.407693","485231.953483","485998.791442","486765.252828","472949.369797","476832.390716","477581.943729","478348.655236","479115.500615","479882.147505","480648.911571","481415.803326","482182.379725","486008.030156","Mapping"
"Blocked","m160","tile","16","m160knife.wav","None","727.11229464","166","476065.870587","482949.230978","483698.714427","484465.407693","485231.953483","485998.791442","486765.252828","487531.785324","476832.390716","477581.943729","478348.655236","479115.500615","479882.147505","480648.911571","481415.803326","482182.379725","486774.858221","Mapping"
"Blocked","m160","cave","11","m160knife.wav","None","730.059024412","166","490665.532723","482949.230978","483698.714427","484465.407693","485231.953483","485998.791442","486765.252828","487531.785324","476832.390716","477581.943729","478348.655236","479115.500615","479882.147505","480648.911571","481415.803326","482182.379725","487540.830804","Mapping"
"Blocked","m160","cave","11","m160tile.wav","None","719.591347035","166","490665.532723","482949.230978","483698.714427","484465.407693","485231.953483","485998.791442","486765.252828","487531.785324","491415.215279","477581.943729","478348.655236","479115.500615","479882.147505","480648.911571","481415.803326","482182.379725","490675.702048","Mapping"
"Blocked","m160","cave","11","m160knife.wav","None","735.700198915","166","490665.532723","482949.230978","483698.714427","484465.407693","485231.953483","485998.791442","486765.252828","487531.785324","491415.215279","492181.612666","478348.655236","479115.500615","479882.147505","480648.911571","481415.803326","482182.379725","491424.786353","Mapping"
"Blocked","m160","cave","11","m160depth.wav","None","735.416995827","166","490665.532723","482949.230978","483698.714427","484465.407693","485231.953483","485998.791442","486765.252828","487531.785324","491415.215279","492181.612666","492948.727026","479115.500615","479882.147505","480648.911571","481415.803326","482182.379725","492190.777487","Mapping"
"Blocked","m160","cave","11","m160ball.wav","None","733.120457269","166","490665.532723","482949.230978","483698.714427","484465.407693","485231.953483","485998.791442","486765.252828","487531.785324","491415.215279","492181.612666","492948.727026","493715.478416","479882.147505","480648.911571","481415.803326","482182.379725","492958.137331","Mapping"
"Blocked","m160","cave","11","m160cling.wav","None","731.013441924","166","490665.532723","482949.230978","483698.714427","484465.407693","485231.953483","485998.791442","486765.252828","487531.785324","491415.215279","492181.612666","492948.727026","493715.478416","494481.771612","480648.911571","481415.803326","482182.379725","493725.296829","Mapping"
"Blocked","m160","cave","11","m160cave.wav","None","730.674897321","166","490665.532723","482949.230978","483698.714427","484465.407693","485231.953483","485998.791442","486765.252828","487531.785324","491415.215279","492181.612666","492948.727026","493715.478416","494481.771612","495248.63987","481415.803326","482182.379725","494490.846464","Mapping"
"Blocked","m160","cave","11","m160lash.wav","space","454.916827846","166","490665.532723","482949.230978","483698.714427","484465.407693","485231.953483","485998.791442","486765.252828","487531.785324","491415.215279","492181.612666","492948.727026","493715.478416","494481.771612","495248.63987","496015.204211","482182.379725","495257.817058","Mapping"
"Blocked","m160","cave","11","m160done.wav","None","725.04145233","166","490665.532723","482949.230978","483698.714427","484465.407693","485231.953483","485998.791442","486765.252828","487531.785324","491415.215279","492181.612666","492948.727026","493715.478416","494481.771612","495248.63987","496015.204211","496781.778754","496025.394869","Mapping"
"Blocked","m160","cave","11","m160cave.wav","None","724.396826234","166","490665.532723","497548.954948","483698.714427","484465.407693","485231.953483","485998.791442","486765.252828","487531.785324","491415.215279","492181.612666","492948.727026","493715.478416","494481.771612","495248.63987","496015.204211","496781.778754","496791.433615","Mapping"
"Blocked","m160","cave","11","m160ball.wav","space","529.120251071","166","490665.532723","497548.954948","498315.432411","484465.407693","485231.953483","485998.791442","486765.252828","487531.785324","491415.215279","492181.612666","492948.727026","493715.478416","494481.771612","495248.63987","496015.204211","496781.778754","497559.561135","Mapping"
"Blocked","m160","cave","11","m160cave.wav","None","719.420065638","166","490665.532723","497548.954948","498315.432411","499064.934101","485231.953483","485998.791442","486765.252828","487531.785324","491415.215279","492181.612666","492948.727026","493715.478416","494481.771612","495248.63987","496015.204211","496781.778754","498324.783664","Mapping"
