"Condition","Talker","Target","Trial","current_stimulus","response_response","response_time_response","subject_nr","time_Audio1","time_Audio10","time_Audio11","time_Audio12","time_Audio13","time_Audio14","time_Audio15","time_Audio16","time_Audio2","time_Audio3","time_Audio4","time_Audio5","time_Audio6","time_Audio7","time_Audio8","time_Audio9","time_response","title"
"Mixed","Both","cave","20","m150depth.wav","NA","NA","131","93631.1937827","NA","NA","NA","NA","NA","NA","NA","NA","NA","NA","NA","NA","NA","NA","NA","NA","Mapping"
"Mixed","Both","cave","20","m150jolt.wav","None","710.736008361","131","93631.1937827","NA","NA","NA","NA","NA","NA","NA","94381.3450453","NA","NA","NA","NA","NA","NA","NA","93650.2159727","Mapping"
"Mixed","Both","cave","20","m150cave.wav","None","733.772194479","131","93631.1937827","NA","NA","NA","NA","NA","NA","NA","94381.3450453","95147.5946479","NA","NA","NA","NA","NA","NA","94391.0094905","Mapping"
"Mixed","Both","cave","20","m160jolt.wav","None","731.654667296","131","93631.1937827","NA","NA","NA","NA","NA","NA","NA","94381.3450453","95147.5946479","95914.3049181","NA","NA","NA","NA","NA","95156.8206851","Mapping"
"Mixed","Both","cave","20","m160bluff.wav","None","727.855546866","131","93631.1937827","NA","NA","NA","NA","NA","NA","NA","94381.3450453","95147.5946479","95914.3049181","96681.147824","NA","NA","NA","NA","95924.2949225","Mapping"
"Mixed","Both","cave","20","m160romp.wav","None","725.35804566","131","93631.1937827","NA","NA","NA","NA","NA","NA","NA","94381.3450453","95147.5946479","95914.3049181","96681.147824","97448.0516366","NA","NA","NA","96690.5160812","Mapping"
"Mixed","Both","cave","20","m160cave.wav","None","721.586441621","131","93631.1937827","NA","NA","NA","NA","NA","NA","NA","94381.3450453","95147.5946479","95914.3049181","96681.147824","97448.0516366","98197.4809803","NA","NA","97457.973314","Mapping"
"Mixed","Both","cave","20","m150priest.wav","None","736.342042219","131","93631.1937827","NA","NA","NA","NA","NA","NA","NA","94381.3450453","95147.5946479","95914.3049181","96681.147824","97448.0516366","98197.4809803","98964.2190761","NA","98206.9704332","Mapping"
"Mixed","Both","cave","20","m160cave.wav","None","734.131762758","131","93631.1937827","NA","NA","NA","NA","NA","NA","NA","94381.3450453","95147.5946479","95914.3049181","96681.147824","97448.0516366","98197.4809803","98964.2190761","99730.9584087","98973.3467968","Mapping"
"Mixed","Both","cave","20","m160jolt.wav","None","730.901830364","131","93631.1937827","100497.6761","NA","NA","NA","NA","NA","NA","94381.3450453","95147.5946479","95914.3049181","96681.147824","97448.0516366","98197.4809803","98964.2190761","99730.9584087","99740.3068789","Mapping"
"Mixed","Both","cave","20","m150cave.wav","None","727.564923931","131","93631.1937827","100497.6761","101264.649476","NA","NA","NA","NA","NA","94381.3450453","95147.5946479","95914.3049181","96681.147824","97448.0516366","98197.4809803","98964.2190761","99730.9584087","100507.169572","Mapping"
"Mixed","Both","cave","20","m150romp.wav","space","301.122948062","131","93631.1937827","100497.6761","101264.649476","102031.013163","NA","NA","NA","NA","94381.3450453","95147.5946479","95914.3049181","96681.147824","97448.0516366","98197.4809803","98964.2190761","99730.9584087","101274.149132","Mapping"
"Mixed","Both","cave","20","m160done.wav","None","721.604992636","131","93631.1937827","100497.6761","101264.649476","102031.013163","102780.933783","NA","NA","NA","94381.3450453","95147.5946479","95914.3049181","96681.147824","97448.0516366","98197.4809803","98964.2190761","99730.9584087","102040.564451","Mapping"
"Mixed","Both","cave","20","m160done.wav","space","432.964602951","131","93631.1937827","100497.6761","101264.649476","102031.013163","102780.933783","103547.832958","NA","NA","94381.3450453","95147.5946479","95914.3049181","96681.147824","97448.0516366","98197.4809803","98964.2190761","99730.9584087","102790.272051","Mapping"
"Mixed","Both","cave","20","m150bluff.wav","None","731.833369471","131","93631.1937827","100497.6761","101264.649476","102031.013163","102780.933783","103547.832958","104314.581566","NA","94381.3450453","95147.5946479","95914.3049181","96681.147824","97448.0516366","98197.4809803","98964.2190761","99730.9584087","103557.562948","Mapping"
"Mixed","Both","cave","20","m150jolt.wav","None","729.159330018","131","93631.1937827","100497.6761","101264.649476","102031.013163","102780.933783","103547.832958","104314.581566","105081.161675","94381.3450453","95147.5946479","95914.3049181","96681.147824","97448.0516366","98197.4809803","98964.2190761","99730.9584087","104323.954152","Mapping"
"Mixed","Both","ball","10","m160dime.wav","None","725.705865305","131","108248.126951","100497.6761","101264.649476","102031.013163","102780.933783","103547.832958","104314.581566","105081.161675","94381.3450453","95147.5946479","95914.3049181","96681.147824","97448.0516366","98197.4809803","98964.2190761","99730.9584087","105091.085207","Mapping"
"Mixed","Both","ball","10","m150depth.wav","None","720.781973097","131","108248.126951","100497.6761","101264.649476","102031.013163","102780.933783","103547.832958","104314.581566","105081.161675","108997.645955","95147.5946479","95914.3049181","96681.147824","97448.0516366","98197.4809803","98964.2190761","99730.9584087","108257.70019","Mapping"
"Mixed","Both","ball","10","m150ball.wav","None","739.63350011","131","108248.126951","100497.6761","101264.649476","102031.013163","102780.933783","103547.832958","104314.581566","105081.161675","108997.645955","109764.562753","95914.3049181","96681.147824","97448.0516366","98197.4809803","98964.2190761","99730.9584087","109002.726907","Mapping"
"Mixed","Both","ball","10","m150bluff.wav","None","732.465628535","131","108248.126951","100497.6761","101264.649476","102031.013163","102780.933783","103547.832958","104314.581566","105081.161675","108997.645955","109764.562753","110531.285081","96681.147824","97448.0516366","98197.4809803","98964.2190761","99730.9584087","109774.236782","Mapping"
"Mixed","Both","ball","10","m150ball.wav","None","730.200007092","131","108248.126951","100497.6761","101264.649476","102031.013163","102780.933783","103547.832958","104314.581566","105081.161675","108997.645955","109764.562753","110531.285081","111297.762544","97448.0516366","98197.4809803","98964.2190761","99730.9584087","110540.399198","Mapping"
"Mixed","Both","ball","10","m160park.wav","None","727.089724969","131","108248.126951","100497.6761","101264.649476","102031.013163","102780.933783","103547.832958","104314.581566","105081.161675","108997.645955","109764.562753","110531.285081","111297.762544","112064.435405","98197.4809803","98964.2190761","99730.9584087","111307.485114","Mapping"
"Mixed","Both","ball","10","m150tile.wav","None","717.991994694","131","108248.126951","100497.6761","101264.649476","102031.013163","102780.933783","103547.832958","104314.581566","105081.161675","108997.645955","109764.562753","110531.285081","111297.762544","112064.435405","112831.348184","98964.2190761","99730.9584087","112080.478093","Mapping"
"Mixed","Both","ball","10","m160cling.wav","None","720.74827319","131","108248.126951","100497.6761","101264.649476","102031.013163","102780.933783","103547.832958","104314.581566","105081.161675","108997.645955","109764.562753","110531.285081","111297.762544","112064.435405","112831.348184","113581.380724","99730.9584087","112841.46093","Mapping"
"Mixed","Both","ball","10","m150reek.wav","None","735.688759014","131","108248.126951","100497.6761","101264.649476","102031.013163","102780.933783","103547.832958","104314.581566","105081.161675","108997.645955","109764.562753","110531.285081","111297.762544","112064.435405","112831.348184","113581.380724","114347.625998","113590.681581","Mapping"
"Mixed","Both","ball","10","m160done.wav","None","733.465185389","131","108248.126951","115114.387591","101264.649476","102031.013163","102780.933783","103547.832958","104314.581566","105081.161675","108997.645955","109764.562753","110531.285081","111297.762544","112064.435405","112831.348184","113581.380724","114347.625998","114356.788036","Mapping"
"Mixed","Both","ball","10","m160ball.wav","None","730.12209544","131","108248.126951","115114.387591","115881.011602","102031.013163","102780.933783","103547.832958","104314.581566","105081.161675","108997.645955","109764.562753","110531.285081","111297.762544","112064.435405","112831.348184","113581.380724","114347.625998","115123.996076","Mapping"
"Mixed","Both","ball","10","m150jaw.wav","None","727.689211722","131","108248.126951","115114.387591","115881.011602","116647.584909","102780.933783","103547.832958","104314.581566","105081.161675","108997.645955","109764.562753","110531.285081","111297.762544","112064.435405","112831.348184","113581.380724","114347.625998","115890.304112","Mapping"
"Mixed","Both","ball","10","m160ball.wav","None","724.831523839","131","108248.126951","115114.387591","115881.011602","116647.584909","117414.903323","103547.832958","104314.581566","105081.161675","108997.645955","109764.562753","110531.285081","111297.762544","112064.435405","112831.348184","113581.380724","114347.625998","116656.883911","Mapping"
"Mixed","Both","ball","10","m160done.wav","None","720.828040037","131","108248.126951","115114.387591","115881.011602","116647.584909","117414.903323","118164.407487","104314.581566","105081.161675","108997.645955","109764.562753","110531.285081","111297.762544","112064.435405","112831.348184","113581.380724","114347.625998","117424.851898","Mapping"
"Mixed","Both","ball","10","m150done.wav","None","735.331045464","131","108248.126951","115114.387591","115881.011602","116647.584909","117414.903323","118164.407487","118930.944311","105081.161675","108997.645955","109764.562753","110531.285081","111297.762544","112064.435405","112831.348184","113581.380724","114347.625998","118174.223735","Mapping"
"Mixed","Both","ball","10","m160jolt.wav","None","733.146736864","131","108248.126951","115114.387591","115881.011602","116647.584909","117414.903323","118164.407487","118930.944311","119697.557501","108997.645955","109764.562753","110531.285081","111297.762544","112064.435405","112831.348184","113581.380724","114347.625998","118940.287834","Mapping"
"Mixed","Both","tile","32","m150gnash.wav","None","730.494030751","131","122831.246775","115114.387591","115881.011602","116647.584909","117414.903323","118164.407487","118930.944311","119697.557501","108997.645955","109764.562753","110531.285081","111297.762544","112064.435405","112831.348184","113581.380724","114347.625998","119706.920811","Mapping"
"Mixed","Both","tile","32","m150tile.wav","None","720.744872466","131","122831.246775","115114.387591","115881.011602","116647.584909","117414.903323","118164.407487","118930.944311","119697.557501","123580.610574","109764.562753","110531.285081","111297.762544","112064.435405","112831.348184","113581.380724","114347.625998","122840.853095","Mapping"
"Mixed","Both","tile","32","m150cad.wav","None","735.703908373","131","122831.246775","115114.387591","115881.011602","116647.584909","117414.903323","118164.407487","118930.944311","119697.557501","123580.610574","124347.627544","110531.285081","111297.762544","112064.435405","112831.348184","113581.380724","114347.625998","123589.871548","Mapping"
"Mixed","Both","tile","32","m160priest.wav","None","732.573220506","131","122831.246775","115114.387591","115881.011602","116647.584909","117414.903323","118164.407487","118930.944311","119697.557501","123580.610574","124347.627544","125114.237951","111297.762544","112064.435405","112831.348184","113581.380724","114347.625998","124356.852654","Mapping"
"Mixed","Both","tile","32","m160jaw.wav","None","729.326284025","131","122831.246775","115114.387591","115881.011602","116647.584909","117414.903323","118164.407487","118930.944311","119697.557501","123580.610574","124347.627544","125114.237951","125880.870001","112064.435405","112831.348184","113581.380724","114347.625998","125123.950627","Mapping"
"Mixed","Both","tile","32","m150park.wav","None","726.591647137","131","122831.246775","115114.387591","115881.011602","116647.584909","117414.903323","118164.407487","118930.944311","119697.557501","123580.610574","124347.627544","125114.237951","125880.870001","126647.847088","112831.348184","113581.380724","114347.625998","125890.756741","Mapping"
"Mixed","Both","tile","32","m160cad.wav","None","723.50022383","131","122831.246775","115114.387591","115881.011602","116647.584909","117414.903323","118164.407487","118930.944311","119697.557501","123580.610574","124347.627544","125114.237951","125880.870001","126647.847088","127414.513764","113581.380724","114347.625998","126657.790716","Mapping"
"Mixed","Both","tile","32","m160cad.wav","None","721.069195308","131","122831.246775","115114.387591","115881.011602","116647.584909","117414.903323","118164.407487","118930.944311","119697.557501","123580.610574","124347.627544","125114.237951","125880.870001","126647.847088","127414.513764","128164.51446","114347.625998","127424.41751","Mapping"
"Mixed","Both","tile","32","m160dime.wav","None","735.717512202","131","122831.246775","115114.387591","115881.011602","116647.584909","117414.903323","118164.407487","118930.944311","119697.557501","123580.610574","124347.627544","125114.237951","125880.870001","126647.847088","127414.513764","128164.51446","128930.687078","128173.791511","Mapping"
"Mixed","Both","tile","32","m160tile.wav","None","733.012555633","131","122831.246775","129697.366431","115881.011602","116647.584909","117414.903323","118164.407487","118930.944311","119697.557501","123580.610574","124347.627544","125114.237951","125880.870001","126647.847088","127414.513764","128164.51446","128930.687078","128940.431909","Mapping"
"Mixed","Both","tile","32","m160knife.wav","None","731.176994741","131","122831.246775","129697.366431","130464.113184","116647.584909","117414.903323","118164.407487","118930.944311","119697.557501","123580.610574","124347.627544","125114.237951","125880.870001","126647.847088","127414.513764","128164.51446","128930.687078","129706.731597","Mapping"
"Mixed","Both","tile","32","m150knife.wav","None","728.28096943","131","122831.246775","129697.366431","130464.113184","131230.604869","117414.903323","118164.407487","118930.944311","119697.557501","123580.610574","124347.627544","125114.237951","125880.870001","126647.847088","127414.513764","128164.51446","128930.687078","130473.615623","Mapping"
"Mixed","Both","tile","32","m160tile.wav","None","726.322047878","131","122831.246775","129697.366431","130464.113184","131230.604869","131997.227644","118164.407487","118930.944311","119697.557501","123580.610574","124347.627544","125114.237951","125880.870001","126647.847088","127414.513764","128164.51446","128930.687078","131239.629017","Mapping"
"Mixed","Both","tile","32","m150priest.wav","None","728.50542888","131","122831.246775","129697.366431","130464.113184","131230.604869","131997.227644","132764.293463","118930.944311","119697.557501","123580.610574","124347.627544","125114.237951","125880.870001","126647.847088","127414.513764","128164.51446","128930.687078","132001.460534","Mapping"
"Mixed","Both","tile","32","m150tile.wav","None","719.500759616","131","122831.246775","129697.366431","130464.113184","131230.604869","131997.227644","132764.293463","133513.874302","119697.557501","123580.610574","124347.627544","125114.237951","125880.870001","126647.847088","127414.513764","128164.51446","128930.687078","132774.369108","Mapping"
"Mixed","Both","tile","32","m150jaw.wav","None","667.156191077","131","122831.246775","129697.366431","130464.113184","131230.604869","131997.227644","132764.293463","133513.874302","134280.66403","123580.610574","124347.627544","125114.237951","125880.870001","126647.847088","127414.513764","128164.51446","128930.687078","133590.719919","Mapping"
"Mixed","Both","cave","24","m150gnash.wav","None","731.581393164","131","137414.394733","129697.366431","130464.113184","131230.604869","131997.227644","132764.293463","133513.874302","134280.66403","123580.610574","124347.627544","125114.237951","125880.870001","126647.847088","127414.513764","128164.51446","128930.687078","134290.271587","Mapping"
"Mixed","Both","cave","24","m150cave.wav","None","720.441882499","131","137414.394733","129697.366431","130464.113184","131230.604869","131997.227644","132764.293463","133513.874302","134280.66403","138163.46018","124347.627544","125114.237951","125880.870001","126647.847088","127414.513764","128164.51446","128930.687078","137423.656325","Mapping"
"Mixed","Both","cave","24","m160jaw.wav","None","736.370486207","131","137414.394733","129697.366431","130464.113184","131230.604869","131997.227644","132764.293463","133513.874302","134280.66403","138163.46018","138930.628336","125114.237951","125880.870001","126647.847088","127414.513764","128164.51446","128930.687078","138172.375807","Mapping"
"Mixed","Both","cave","24","m160cave.wav","None","733.15632157","131","137414.394733","129697.366431","130464.113184","131230.604869","131997.227644","132764.293463","133513.874302","134280.66403","138163.46018","138930.628336","139696.894324","125880.870001","126647.847088","127414.513764","128164.51446","128930.687078","138939.628367","Mapping"
"Mixed","Both","cave","24","m160ball.wav","None","731.196163222","131","137414.394733","129697.366431","130464.113184","131230.604869","131997.227644","132764.293463","133513.874302","134280.66403","138163.46018","138930.628336","139696.894324","140463.959525","126647.847088","127414.513764","128164.51446","128930.687078","139705.616409","Mapping"
"Mixed","Both","cave","24","m160knife.wav","None","727.576981764","131","137414.394733","129697.366431","130464.113184","131230.604869","131997.227644","132764.293463","133513.874302","134280.66403","138163.46018","138930.628336","139696.894324","140463.959525","141230.455848","127414.513764","128164.51446","128930.687078","140473.19051","Mapping"
"Mixed","Both","cave","24","m160priest.wav","space","646.784459706","131","137414.394733","129697.366431","130464.113184","131230.604869","131997.227644","132764.293463","133513.874302","134280.66403","138163.46018","138930.628336","139696.894324","140463.959525","141230.455848","141997.539909","128164.51446","128930.687078","141239.771855","Mapping"
"Mixed","Both","cave","24","m150tile.wav","None","721.118662506","131","137414.394733","129697.366431","130464.113184","131230.604869","131997.227644","132764.293463","133513.874302","134280.66403","138163.46018","138930.628336","139696.894324","140463.959525","141230.455848","141997.539909","142746.875264","128930.687078","142007.021014","Mapping"
"Mixed","Both","cave","24","m160knife.wav","None","736.555371433","131","137414.394733","129697.366431","130464.113184","131230.604869","131997.227644","132764.293463","133513.874302","134280.66403","138163.46018","138930.628336","139696.894324","140463.959525","141230.455848","141997.539909","142746.875264","143513.93459","142755.4845","Mapping"
"Mixed","Both","cave","24","m150jolt.wav","None","732.802317943","131","137414.394733","144280.436787","130464.113184","131230.604869","131997.227644","132764.293463","133513.874302","134280.66403","138163.46018","138930.628336","139696.894324","140463.959525","141230.455848","141997.539909","142746.875264","143513.93459","143523.248742","Mapping"
"Mixed","Both","cave","24","m150tile.wav","None","730.564831756","131","137414.394733","144280.436787","145047.103155","131230.604869","131997.227644","132764.293463","133513.874302","134280.66403","138163.46018","138930.628336","139696.894324","140463.959525","141230.455848","141997.539909","142746.875264","143513.93459","144289.476393","Mapping"
"Mixed","Both","cave","24","m160cave.wav","None","727.787219454","131","137414.394733","144280.436787","145047.103155","145813.981307","131997.227644","132764.293463","133513.874302","134280.66403","138163.46018","138930.628336","139696.894324","140463.959525","141230.455848","141997.539909","142746.875264","143513.93459","145056.242006","Mapping"
"Mixed","Both","cave","24","m150jolt.wav","None","724.740626756","131","137414.394733","144280.436787","145047.103155","145813.981307","146580.732079","132764.293463","133513.874302","134280.66403","138163.46018","138930.628336","139696.894324","140463.959525","141230.455848","141997.539909","142746.875264","143513.93459","145823.387592","Mapping"
"Mixed","Both","cave","24","m150done.wav","None","721.17184056","131","137414.394733","144280.436787","145047.103155","145813.981307","146580.732079","147347.446059","133513.874302","134280.66403","138163.46018","138930.628336","139696.894324","140463.959525","141230.455848","141997.539909","142746.875264","143513.93459","146590.95891","Mapping"
"Mixed","Both","cave","24","m150cave.wav","None","719.149847981","131","137414.394733","144280.436787","145047.103155","145813.981307","146580.732079","147347.446059","148096.718343","134280.66403","138163.46018","138930.628336","139696.894324","140463.959525","141230.455848","141997.539909","142746.875264","143513.93459","147357.127199","Mapping"
"Mixed","Both","cave","24","m160jolt.wav","None","734.952926636","131","137414.394733","144280.436787","145047.103155","145813.981307","146580.732079","147347.446059","148096.718343","148863.790964","138163.46018","138930.628336","139696.894324","140463.959525","141230.455848","141997.539909","142746.875264","143513.93459","148105.435172","Mapping"
"Mixed","Both","ball","6","m150cling.wav","None","731.534089427","131","151997.397689","144280.436787","145047.103155","145813.981307","146580.732079","147347.446059","148096.718343","148863.790964","138163.46018","138930.628336","139696.894324","140463.959525","141230.455848","141997.539909","142746.875264","143513.93459","148872.931979","Mapping"
"Mixed","Both","ball","6","m160ball.wav","None","719.670804683","131","151997.397689","144280.436787","145047.103155","145813.981307","146580.732079","147347.446059","148096.718343","148863.790964","152746.936171","138930.628336","139696.894324","140463.959525","141230.455848","141997.539909","142746.875264","143513.93459","152007.215484","Mapping"
"Mixed","Both","ball","6","m160tile.wav","None","735.031147953","131","151997.397689","144280.436787","145047.103155","145813.981307","146580.732079","147347.446059","148096.718343","148863.790964","152746.936171","153513.756507","139696.894324","140463.959525","141230.455848","141997.539909","142746.875264","143513.93459","152755.810678","Mapping"
"Mixed","Both","ball","6","m150greet.wav","None","732.280433644","131","151997.397689","144280.436787","145047.103155","145813.981307","146580.732079","147347.446059","148096.718343","148863.790964","152746.936171","153513.756507","154279.978902","140463.959525","141230.455848","141997.539909","142746.875264","143513.93459","153522.722839","Mapping"
"Mixed","Both","ball","6","m160ball.wav","None","730.176510289","131","151997.397689","144280.436787","145047.103155","145813.981307","146580.732079","147347.446059","148096.718343","148863.790964","152746.936171","153513.756507","154279.978902","155046.896009","141230.455848","141997.539909","142746.875264","143513.93459","154288.831767","Mapping"
"Mixed","Both","ball","6","m150depth.wav","None","726.783643477","131","151997.397689","144280.436787","145047.103155","145813.981307","146580.732079","147347.446059","148096.718343","148863.790964","152746.936171","153513.756507","154279.978902","155046.896009","155813.324932","141997.539909","142746.875264","143513.93459","155056.351762","Mapping"
"Mixed","Both","ball","6","m160jolt.wav","None","725.288481917","131","151997.397689","144280.436787","145047.103155","145813.981307","146580.732079","147347.446059","148096.718343","148863.790964","152746.936171","153513.756507","154279.978902","155046.896009","155813.324932","156580.809063","142746.875264","143513.93459","155822.029085","Mapping"
"Mixed","Both","ball","6","m150depth.wav","None","721.24078637","131","151997.397689","144280.436787","145047.103155","145813.981307","146580.732079","147347.446059","148096.718343","148863.790964","152746.936171","153513.756507","154279.978902","155046.896009","155813.324932","156580.809063","157330.303024","143513.93459","156590.215039","Mapping"
"Mixed","Both","ball","6","m160knife.wav","None","735.721840523","131","151997.397689","144280.436787","145047.103155","145813.981307","146580.732079","147347.446059","148096.718343","148863.790964","152746.936171","153513.756507","154279.978902","155046.896009","155813.324932","156580.809063","157330.303024","158096.792544","157339.881828","Mapping"
"Mixed","Both","ball","6","m150ball.wav","None","733.780233189","131","151997.397689","158863.673788","145047.103155","145813.981307","146580.732079","147347.446059","148096.718343","148863.790964","152746.936171","153513.756507","154279.978902","155046.896009","155813.324932","156580.809063","157330.303024","158096.792544","158105.958911","Mapping"
"Mixed","Both","ball","6","m150cling.wav","None","730.952225626","131","151997.397689","158863.673788","159630.109203","145813.981307","146580.732079","147347.446059","148096.718343","148863.790964","152746.936171","153513.756507","154279.978902","155046.896009","155813.324932","156580.809063","157330.303024","158096.792544","158873.153347","Mapping"
"Mixed","Both","ball","6","m160cad.wav","None","728.919720743","131","151997.397689","158863.673788","159630.109203","160396.827821","146580.732079","147347.446059","148096.718343","148863.790964","152746.936171","153513.756507","154279.978902","155046.896009","155813.324932","156580.809063","157330.303024","158096.792544","159639.232286","Mapping"
"Mixed","Both","ball","6","m160cave.wav","None","725.948566571","131","151997.397689","158863.673788","159630.109203","160396.827821","161163.918683","147347.446059","148096.718343","148863.790964","152746.936171","153513.756507","154279.978902","155046.896009","155813.324932","156580.809063","157330.303024","158096.792544","160406.259768","Mapping"
"Mixed","Both","ball","6","m160cling.wav","None","722.608568612","131","151997.397689","158863.673788","159630.109203","160396.827821","161163.918683","161930.636374","148096.718343","148863.790964","152746.936171","153513.756507","154279.978902","155046.896009","155813.324932","156580.809063","157330.303024","158096.792544","161173.62363","Mapping"
"Mixed","Both","ball","6","m150ball.wav","None","720.287296455","131","151997.397689","158863.673788","159630.109203","160396.827821","161163.918683","161930.636374","162679.866919","148863.790964","152746.936171","153513.756507","154279.978902","155046.896009","155813.324932","156580.809063","157330.303024","158096.792544","161940.144377","Mapping"
"Mixed","Both","ball","6","m150done.wav","None","735.080615617","131","151997.397689","158863.673788","159630.109203","160396.827821","161163.918683","161930.636374","162679.866919","163446.763621","152746.936171","153513.756507","154279.978902","155046.896009","155813.324932","156580.809063","157330.303024","158096.792544","162689.545277","Mapping"
"Mixed","Both","tile","26","m160ball.wav","None","732.702764217","131","166580.551212","158863.673788","159630.109203","160396.827821","161163.918683","161930.636374","162679.866919","163446.763621","152746.936171","153513.756507","154279.978902","155046.896009","155813.324932","156580.809063","157330.303024","158096.792544","163456.139299","Mapping"
"Mixed","Both","tile","26","m150cave.wav","None","720.619657543","131","166580.551212","158863.673788","159630.109203","160396.827821","161163.918683","161930.636374","162679.866919","163446.763621","167329.776811","153513.756507","154279.978902","155046.896009","155813.324932","156580.809063","157330.303024","158096.792544","166590.07622","Mapping"
"Mixed","Both","tile","26","m150tile.wav","None","736.024521291","131","166580.551212","158863.673788","159630.109203","160396.827821","161163.918683","161930.636374","162679.866919","163446.763621","167329.776811","168096.450599","154279.978902","155046.896009","155813.324932","156580.809063","157330.303024","158096.792544","167339.023872","Mapping"
"Mixed","Both","tile","26","m160gnash.wav","None","733.960790094","131","166580.551212","158863.673788","159630.109203","160396.827821","161163.918683","161930.636374","162679.866919","163446.763621","167329.776811","168096.450599","168863.513018","155046.896009","155813.324932","156580.809063","157330.303024","158096.792544","168105.249977","Mapping"
"Mixed","Both","tile","26","m160tile.wav","None","730.847724713","131","166580.551212","158863.673788","159630.109203","160396.827821","161163.918683","161930.636374","162679.866919","163446.763621","167329.776811","168096.450599","168863.513018","169629.417582","155813.324932","156580.809063","157330.303024","158096.792544","168872.7035","Mapping"
"Mixed","Both","tile","26","m150depth.wav","None","731.552949175","131","166580.551212","158863.673788","159630.109203","160396.827821","161163.918683","161930.636374","162679.866919","163446.763621","167329.776811","168096.450599","168863.513018","169629.417582","170396.630568","156580.809063","157330.303024","158096.792544","169638.016926","Mapping"
"Mixed","Both","tile","26","m150gnash.wav","None","728.426280431","131","166580.551212","158863.673788","159630.109203","160396.827821","161163.918683","161930.636374","162679.866919","163446.763621","167329.776811","168096.450599","168863.513018","169629.417582","170396.630568","171163.455851","157330.303024","158096.792544","170405.710058","Mapping"
"Mixed","Both","tile","26","m160ball.wav","None","725.736164488","131","166580.551212","158863.673788","159630.109203","160396.827821","161163.918683","161930.636374","162679.866919","163446.763621","167329.776811","168096.450599","168863.513018","169629.417582","170396.630568","171163.455851","171930.515178","158096.792544","171172.638604","Mapping"
"Mixed","Both","tile","26","m160cad.wav","None","722.618152853","131","166580.551212","158863.673788","159630.109203","160396.827821","161163.918683","161930.636374","162679.866919","163446.763621","167329.776811","168096.450599","168863.513018","169629.417582","170396.630568","171163.455851","171930.515178","172696.941628","171939.990718","Mapping"
"Mixed","Both","tile","26","m150lash.wav","None","720.51515663","131","166580.551212","173446.391686","159630.109203","160396.827821","161163.918683","161930.636374","162679.866919","163446.763621","167329.776811","168096.450599","168863.513018","169629.417582","170396.630568","171163.455851","171930.515178","172696.941628","172706.357806","Mapping"
"Mixed","Both","tile","26","m160tile.wav","None","735.192535911","131","166580.551212","173446.391686","174213.315904","160396.827821","161163.918683","161930.636374","162679.866919","163446.763621","167329.776811","168096.450599","168863.513018","169629.417582","170396.630568","171163.455851","171930.515178","172696.941628","173455.969253","Mapping"
"Mixed","Both","tile","26","m160greet.wav","None","733.145190869","131","166580.551212","173446.391686","174213.315904","174979.886119","161163.918683","161930.636374","162679.866919","163446.763621","167329.776811","168096.450599","168863.513018","169629.417582","170396.630568","171163.455851","171930.515178","172696.941628","174222.355201","Mapping"
"Mixed","Both","tile","26","m150cave.wav","None","730.89842964","131","166580.551212","173446.391686","174213.315904","174979.886119","175746.201266","161930.636374","162679.866919","163446.763621","167329.776811","168096.450599","168863.513018","169629.417582","170396.630568","171163.455851","171930.515178","172696.941628","174988.910575","Mapping"
"Mixed","Both","tile","26","m160jolt.wav","None","729.420581367","131","166580.551212","173446.391686","174213.315904","174979.886119","175746.201266","176513.287182","162679.866919","163446.763621","167329.776811","168096.450599","168863.513018","169629.417582","170396.630568","171163.455851","171930.515178","172696.941628","175754.808339","Mapping"
"Mixed","Both","tile","26","m150tile.wav","None","725.615896285","131","166580.551212","173446.391686","174213.315904","174979.886119","175746.201266","176513.287182","177280.236752","163446.763621","167329.776811","168096.450599","168863.513018","169629.417582","170396.630568","171163.455851","171930.515178","172696.941628","176522.801987","Mapping"
"Mixed","Both","tile","26","m150cling.wav","None","723.110356368","131","166580.551212","173446.391686","174213.315904","174979.886119","175746.201266","176513.287182","177280.236752","178046.370724","167329.776811","168096.450599","168863.513018","169629.417582","170396.630568","171163.455851","171930.515178","172696.941628","177289.672409","Mapping"
"Mixed","Both","done","46","m150tile.wav","None","721.818012651","131","181163.596525","173446.391686","174213.315904","174979.886119","175746.201266","176513.287182","177280.236752","178046.370724","167329.776811","168096.450599","168863.513018","169629.417582","170396.630568","171163.455851","171930.515178","172696.941628","178055.317269","Mapping"
"Mixed","Both","done","46","m160done.wav","None","720.149714034","131","181163.596525","173446.391686","174213.315904","174979.886119","175746.201266","176513.287182","177280.236752","178046.370724","181912.637856","168096.450599","168863.513018","169629.417582","170396.630568","171163.455851","171930.515178","172696.941628","181173.104528","Mapping"
"Mixed","Both","done","46","m160park.wav","None","736.092230305","131","181163.596525","173446.391686","174213.315904","174979.886119","175746.201266","176513.287182","177280.236752","178046.370724","181912.637856","182679.794573","168863.513018","169629.417582","170396.630568","171163.455851","171930.515178","172696.941628","181921.447746","Mapping"
"Mixed","Both","done","46","m150jolt.wav","None","732.697508298","131","181163.596525","173446.391686","174213.315904","174979.886119","175746.201266","176513.287182","177280.236752","178046.370724","181912.637856","182679.794573","183446.41271","169629.417582","170396.630568","171163.455851","171930.515178","172696.941628","182688.810681","Mapping"
"Mixed","Both","done","46","m150done.wav","None","729.875993915","131","181163.596525","173446.391686","174213.315904","174979.886119","175746.201266","176513.287182","177280.236752","178046.370724","181912.637856","182679.794573","183446.41271","184212.712089","170396.630568","171163.455851","171930.515178","172696.941628","183455.917312","Mapping"
"Mixed","Both","done","46","m160cling.wav","None","728.969497606","131","181163.596525","173446.391686","174213.315904","174979.886119","175746.201266","176513.287182","177280.236752","178046.370724","181912.637856","182679.794573","183446.41271","184212.712089","184979.676809","171163.455851","171930.515178","172696.941628","184221.422735","Mapping"
"Mixed","Both","done","46","m150park.wav","None","726.378007792","131","181163.596525","173446.391686","174213.315904","174979.886119","175746.201266","176513.287182","177280.236752","178046.370724","181912.637856","182679.794573","183446.41271","184212.712089","184979.676809","185746.34565","171930.515178","172696.941628","184988.691681","Mapping"
"Mixed","Both","done","46","m160done.wav","None","725.350316614","131","181163.596525","173446.391686","174213.315904","174979.886119","175746.201266","176513.287182","177280.236752","178046.370724","181912.637856","182679.794573","183446.41271","184212.712089","184979.676809","185746.34565","186513.453208","172696.941628","185755.02105","Mapping"
"Mixed","Both","done","46","m160jolt.wav","None","721.532336436","131","181163.596525","173446.391686","174213.315904","174979.886119","175746.201266","176513.287182","177280.236752","178046.370724","181912.637856","182679.794573","183446.41271","184212.712089","184979.676809","185746.34565","186513.453208","187280.138126","186523.237612","Mapping"
"Mixed","Both","done","46","m150lash.wav","None","719.301033765","131","181163.596525","188029.615392","174213.315904","174979.886119","175746.201266","176513.287182","177280.236752","178046.370724","181912.637856","182679.794573","183446.41271","184212.712089","184979.676809","185746.34565","186513.453208","187280.138126","187289.564198","Mapping"
"Mixed","Both","done","46","m160gnash.wav","None","734.32499636","131","181163.596525","188029.615392","188796.30402","174979.886119","175746.201266","176513.287182","177280.236752","178046.370724","181912.637856","182679.794573","183446.41271","184212.712089","184979.676809","185746.34565","186513.453208","187280.138126","188038.647577","Mapping"
"Mixed","Both","done","46","m150park.wav","None","731.758549344","131","181163.596525","188029.615392","188796.30402","189563.183099","175746.201266","176513.287182","177280.236752","178046.370724","181912.637856","182679.794573","183446.41271","184212.712089","184979.676809","185746.34565","186513.453208","187280.138126","188805.39433","Mapping"
"Mixed","Both","done","46","m150done.wav","None","729.027622379","131","181163.596525","188029.615392","188796.30402","189563.183099","190329.344896","176513.287182","177280.236752","178046.370724","181912.637856","182679.794573","183446.41271","184212.712089","184979.676809","185746.34565","186513.453208","187280.138126","189572.380692","Mapping"
"Mixed","Both","done","46","m150reek.wav","None","727.551320102","131","181163.596525","188029.615392","188796.30402","189563.183099","190329.344896","191096.813259","177280.236752","178046.370724","181912.637856","182679.794573","183446.41271","184212.712089","184979.676809","185746.34565","186513.453208","187280.138126","190338.227751","Mapping"
"Mixed","Both","done","46","m160depth.wav","None","723.916989751","131","181163.596525","188029.615392","188796.30402","189563.183099","190329.344896","191096.813259","191863.25795","178046.370724","181912.637856","182679.794573","183446.41271","184212.712089","184979.676809","185746.34565","186513.453208","187280.138126","191106.037132","Mapping"
"Mixed","Both","done","46","m160greet.wav","None","721.690014936","131","181163.596525","188029.615392","188796.30402","189563.183099","190329.344896","191096.813259","191863.25795","192629.884743","181912.637856","182679.794573","183446.41271","184212.712089","184979.676809","185746.34565","186513.453208","187280.138126","191872.610439","Mapping"
"Mixed","Both","done","40","m150knife.wav","None","719.136244152","131","195746.570419","188029.615392","188796.30402","189563.183099","190329.344896","191096.813259","191863.25795","192629.884743","181912.637856","182679.794573","183446.41271","184212.712089","184979.676809","185746.34565","186513.453208","187280.138126","192639.508377","Mapping"
"Mixed","Both","done","40","m160done.wav","None","725.102669094","131","195746.570419","188029.615392","188796.30402","189563.183099","190329.344896","191096.813259","191863.25795","192629.884743","196496.060669","182679.794573","183446.41271","184212.712089","184979.676809","185746.34565","186513.453208","187280.138126","195751.073526","Mapping"
"Mixed","Both","done","40","m150romp.wav","None","735.083397478","131","195746.570419","188029.615392","188796.30402","189563.183099","190329.344896","191096.813259","191863.25795","192629.884743","196496.060669","197262.907285","183446.41271","184212.712089","184979.676809","185746.34565","186513.453208","187280.138126","196505.448714","Mapping"
"Mixed","Both","done","40","m160done.wav","None","733.278754167","131","195746.570419","188029.615392","188796.30402","189563.183099","190329.344896","191096.813259","191863.25795","192629.884743","196496.060669","197262.907285","198029.471935","184212.712089","184979.676809","185746.34565","186513.453208","187280.138126","197272.119101","Mapping"
"Mixed","Both","done","40","m150bluff.wav","None","731.1921441","131","195746.570419","188029.615392","188796.30402","189563.183099","190329.344896","191096.813259","191863.25795","192629.884743","196496.060669","197262.907285","198029.471935","198796.168602","184979.676809","185746.34565","186513.453208","187280.138126","198038.475368","Mapping"
"Mixed","Both","done","40","m150done.wav","None","728.323016781","131","195746.570419","188029.615392","188796.30402","189563.183099","190329.344896","191096.813259","191863.25795","192629.884743","196496.060669","197262.907285","198029.471935","198796.168602","199562.855993","185746.34565","186513.453208","187280.138126","198805.71587","Mapping"
"Mixed","Both","done","40","m150knife.wav","None","726.394394413","131","195746.570419","188029.615392","188796.30402","189563.183099","190329.344896","191096.813259","191863.25795","192629.884743","196496.060669","197262.907285","198029.471935","198796.168602","199562.855993","200329.829061","186513.453208","187280.138126","199571.866228","Mapping"
"Mixed","Both","done","40","m160cave.wav","None","723.004000727","131","195746.570419","188029.615392","188796.30402","189563.183099","190329.344896","191096.813259","191863.25795","192629.884743","196496.060669","197262.907285","198029.471935","198796.168602","199562.855993","200329.829061","201096.552317","187280.138126","200339.678392","Mapping"
"Mixed","Both","done","40","m160jolt.wav","None","721.121136099","131","195746.570419","188029.615392","188796.30402","189563.183099","190329.344896","191096.813259","191863.25795","192629.884743","196496.060669","197262.907285","198029.471935","198796.168602","199562.855993","200329.829061","201096.552317","201845.648062","201105.937887","Mapping"
"Mixed","Both","done","40","m150done.wav","None","737.008309923","131","195746.570419","202612.716974","188796.30402","189563.183099","190329.344896","191096.813259","191863.25795","192629.884743","196496.060669","197262.907285","198029.471935","198796.168602","199562.855993","200329.829061","201096.552317","201845.648062","201854.427963","Mapping"
"Mixed","Both","done","40","m160cling.wav","None","734.280165751","131","195746.570419","202612.716974","203379.234938","189563.183099","190329.344896","191096.813259","191863.25795","192629.884743","196496.060669","197262.907285","198029.471935","198796.168602","199562.855993","200329.829061","201096.552317","201845.648062","202621.767092","Mapping"
"Mixed","Both","done","40","m150greet.wav","None","732.077925466","131","195746.570419","202612.716974","203379.234938","204146.064859","190329.344896","191096.813259","191863.25795","192629.884743","196496.060669","197262.907285","198029.471935","198796.168602","199562.855993","200329.829061","201096.552317","201845.648062","203388.284438","Mapping"
"Mixed","Both","done","40","m150gnash.wav","None","729.482725263","131","195746.570419","202612.716974","203379.234938","204146.064859","204912.862934","191096.813259","191863.25795","192629.884743","196496.060669","197262.907285","198029.471935","198796.168602","199562.855993","200329.829061","201096.552317","201845.648062","204155.243902","Mapping"
"Mixed","Both","done","40","m160greet.wav","None","727.132699918","131","195746.570419","202612.716974","203379.234938","204146.064859","204912.862934","205679.358329","191863.25795","192629.884743","196496.060669","197262.907285","198029.471935","198796.168602","199562.855993","200329.829061","201096.552317","201845.648062","204922.320542","Mapping"
"Mixed","Both","done","40","m160cave.wav","None","725.518816151","131","195746.570419","202612.716974","203379.234938","204146.064859","204912.862934","205679.358329","206445.885879","192629.884743","196496.060669","197262.907285","198029.471935","198796.168602","199562.855993","200329.829061","201096.552317","201845.648062","205688.382786","Mapping"
"Mixed","Both","done","40","m160cling.wav","None","723.213929217","131","195746.570419","202612.716974","203379.234938","204146.064859","204912.862934","205679.358329","206445.885879","207213.226244","196496.060669","197262.907285","198029.471935","198796.168602","199562.855993","200329.829061","201096.552317","201845.648062","206454.9159","Mapping"
"Mixed","Both","done","48","m150cad.wav","None","719.582381658","131","210329.58636","202612.716974","203379.234938","204146.064859","204912.862934","205679.358329","206445.885879","207213.226244","196496.060669","197262.907285","198029.471935","198796.168602","199562.855993","200329.829061","201096.552317","201845.648062","207222.929954","Mapping"
"Mixed","Both","done","48","m160romp.wav","None","720.722611994","131","210329.58636","202612.716974","203379.234938","204146.064859","204912.862934","205679.358329","206445.885879","207213.226244","211079.026525","197262.907285","198029.471935","198796.168602","199562.855993","200329.829061","201096.552317","201845.648062","210339.081687","Mapping"
"Mixed","Both","done","48","m150cad.wav","None","736.193639226","131","210329.58636","202612.716974","203379.234938","204146.064859","204912.862934","205679.358329","206445.885879","207213.226244","211079.026525","211845.890145","198029.471935","198796.168602","199562.855993","200329.829061","201096.552317","201845.648062","211088.14466","Mapping"
"Mixed","Both","done","48","m160cad.wav","None","733.666457236","131","210329.58636","202612.716974","203379.234938","204146.064859","204912.862934","205679.358329","206445.885879","207213.226244","211079.026525","211845.890145","212612.682037","198796.168602","199562.855993","200329.829061","201096.552317","201845.648062","211855.282208","Mapping"
"Mixed","Both","done","48","m160done.wav","None","731.512138154","131","210329.58636","202612.716974","203379.234938","204146.064859","204912.862934","205679.358329","206445.885879","207213.226244","211079.026525","211845.890145","212612.682037","213379.260909","199562.855993","200329.829061","201096.552317","201845.648062","212622.070082","Mapping"
"Mixed","Both","done","48","m150gnash.wav","None","729.095949791","131","210329.58636","202612.716974","203379.234938","204146.064859","204912.862934","205679.358329","206445.885879","207213.226244","211079.026525","211845.890145","212612.682037","213379.260909","214145.807008","200329.829061","201096.552317","201845.648062","213388.941431","Mapping"
"Mixed","Both","done","48","m150jolt.wav","None","727.217722684","131","210329.58636","202612.716974","203379.234938","204146.064859","204912.862934","205679.358329","206445.885879","207213.226244","211079.026525","211845.890145","212612.682037","213379.260909","214145.807008","214912.574166","201096.552317","201845.648062","214155.204637","Mapping"
"Mixed","Both","done","48","m150reek.wav","None","725.140388124","131","210329.58636","202612.716974","203379.234938","204146.064859","204912.862934","205679.358329","206445.885879","207213.226244","211079.026525","211845.890145","212612.682037","213379.260909","214145.807008","214912.574166","215679.063378","201845.648062","214921.74177","Mapping"
"Mixed","Both","done","48","m160done.wav","None","723.520320375","131","210329.58636","202612.716974","203379.234938","204146.064859","204912.862934","205679.358329","206445.885879","207213.226244","211079.026525","211845.890145","212612.682037","213379.260909","214145.807008","214912.574166","215679.063378","216446.310373","215687.887799","Mapping"
"Mixed","Both","done","48","m160jolt.wav","None","720.123434439","131","210329.58636","217195.608937","203379.234938","204146.064859","204912.862934","205679.358329","206445.885879","207213.226244","211079.026525","211845.890145","212612.682037","213379.260909","214145.807008","214912.574166","215679.063378","216446.310373","216455.680795","Mapping"
"Mixed","Both","done","48","m160tile.wav","None","735.626924317","131","210329.58636","217195.608937","217962.606429","204146.064859","204912.862934","205679.358329","206445.885879","207213.226244","211079.026525","211845.890145","212612.682037","213379.260909","214145.807008","214912.574166","215679.063378","216446.310373","217204.659673","Mapping"
"Mixed","Both","done","48","m150done.wav","None","738.099382725","131","210329.58636","217195.608937","217962.606429","218729.062559","204912.862934","205679.358329","206445.885879","207213.226244","211079.026525","211845.890145","212612.682037","213379.260909","214145.807008","214912.574166","215679.063378","216446.310373","217966.732036","Mapping"
"Mixed","Both","done","48","m160bluff.wav","None","731.13772925","131","210329.58636","217195.608937","217962.606429","218729.062559","219495.829717","205679.358329","206445.885879","207213.226244","211079.026525","211845.890145","212612.682037","213379.260909","214145.807008","214912.574166","215679.063378","216446.310373","218738.118242","Mapping"
"Mixed","Both","done","48","m150done.wav","equal","468.343910761","131","210329.58636","217195.608937","217962.606429","218729.062559","219495.829717","220262.497013","206445.885879","207213.226244","211079.026525","211845.890145","212612.682037","213379.260909","214145.807008","214912.574166","215679.063378","216446.310373","219504.901168","Mapping"
"Mixed","Both","done","48","m150reek.wav","None","725.708339363","131","210329.58636","217195.608937","217962.606429","218729.062559","219495.829717","220262.497013","221029.60488","207213.226244","211079.026525","211845.890145","212612.682037","213379.260909","214145.807008","214912.574166","215679.063378","216446.310373","220271.522705","Mapping"
"Mixed","Both","done","48","m160cave.wav","None","722.245289944","131","210329.58636","217195.608937","217962.606429","218729.062559","219495.829717","220262.497013","221029.60488","221796.093164","211079.026525","211845.890145","212612.682037","213379.260909","214145.807008","214912.574166","215679.063378","216446.310373","221039.469978","Mapping"
"Mixed","Both","ball","8","m160greet.wav","None","720.697877929","131","224912.772038","217195.608937","217962.606429","218729.062559","219495.829717","220262.497013","221029.60488","221796.093164","211079.026525","211845.890145","212612.682037","213379.260909","214145.807008","214912.574166","215679.063378","216446.310373","221805.523255","Mapping"
"Mixed","Both","ball","8","m160gnash.wav","None","720.069947653","131","224912.772038","217195.608937","217962.606429","218729.062559","219495.829717","220262.497013","221029.60488","221796.093164","225661.637449","211845.890145","212612.682037","213379.260909","214145.807008","214912.574166","215679.063378","216446.310373","224922.625696","Mapping"
"Mixed","Both","ball","8","m150ball.wav","None","736.999035347","131","224912.772038","217195.608937","217962.606429","218729.062559","219495.829717","220262.497013","221029.60488","221796.093164","225661.637449","226429.030064","212612.682037","213379.260909","214145.807008","214912.574166","215679.063378","216446.310373","225670.385195","Mapping"
"Mixed","Both","ball","8","m160cave.wav","None","733.903283719","131","224912.772038","217195.608937","217962.606429","218729.062559","219495.829717","220262.497013","221029.60488","221796.093164","225661.637449","226429.030064","227195.608318","213379.260909","214145.807008","214912.574166","215679.063378","216446.310373","226438.027623","Mapping"
"Mixed","Both","ball","8","m160reek.wav","None","731.810490135","131","224912.772038","217195.608937","217962.606429","218729.062559","219495.829717","220262.497013","221029.60488","221796.093164","225661.637449","226429.030064","227195.608318","227961.853592","214145.807008","214912.574166","215679.063378","216446.310373","227204.637722","Mapping"
"Mixed","Both","ball","8","m160jolt.wav","None","730.811242945","131","224912.772038","217195.608937","217962.606429","218729.062559","219495.829717","220262.497013","221029.60488","221796.093164","225661.637449","226429.030064","227195.608318","227961.853592","228728.925904","214912.574166","215679.063378","216446.310373","227970.56331","Mapping"
"Mixed","Both","ball","8","m150ball.wav","None","727.389932144","131","224912.772038","217195.608937","217962.606429","218729.062559","219495.829717","220262.497013","221029.60488","221796.093164","225661.637449","226429.030064","227195.608318","227961.853592","228728.925904","229495.530128","215679.063378","216446.310373","228738.521713","Mapping"
"Mixed","Both","ball","8","m150lash.wav","None","725.758116227","131","224912.772038","217195.608937","217962.606429","218729.062559","219495.829717","220262.497013","221029.60488","221796.093164","225661.637449","226429.030064","227195.608318","227961.853592","228728.925904","229495.530128","230262.686536","216446.310373","229504.694022","Mapping"
"Mixed","Both","ball","8","m160done.wav","None","723.364496604","131","224912.772038","217195.608937","217962.606429","218729.062559","219495.829717","220262.497013","221029.60488","221796.093164","225661.637449","226429.030064","227195.608318","227961.853592","228728.925904","229495.530128","230262.686536","231029.200172","230271.933288","Mapping"
"Mixed","Both","ball","8","m160ball.wav","None","721.390735358","131","224912.772038","231779.011035","217962.606429","218729.062559","219495.829717","220262.497013","221029.60488","221796.093164","225661.637449","226429.030064","227195.608318","227961.853592","228728.925904","229495.530128","230262.686536","231029.200172","231038.620679","Mapping"
"Mixed","Both","ball","8","m150gnash.wav","None","736.708721612","131","224912.772038","231779.011035","232545.498701","218729.062559","219495.829717","220262.497013","221029.60488","221796.093164","225661.637449","226429.030064","227195.608318","227961.853592","228728.925904","229495.530128","230262.686536","231029.200172","231787.875031","Mapping"
"Mixed","Both","ball","8","m150depth.wav","None","734.323450364","131","224912.772038","231779.011035","232545.498701","233311.645658","219495.829717","220262.497013","221029.60488","221796.093164","225661.637449","226429.030064","227195.608318","227961.853592","228728.925904","229495.530128","230262.686536","231029.200172","232554.814089","Mapping"
"Mixed","Both","ball","8","m160ball.wav","None","735.246641096","131","224912.772038","231779.011035","232545.498701","233311.645658","234078.534012","220262.497013","221029.60488","221796.093164","225661.637449","226429.030064","227195.608318","227961.853592","228728.925904","229495.530128","230262.686536","231029.200172","233320.303126","Mapping"
"Mixed","Both","ball","8","m150park.wav","None","732.93804517","131","224912.772038","231779.011035","232545.498701","233311.645658","234078.534012","234845.443081","221029.60488","221796.093164","225661.637449","226429.030064","227195.608318","227961.853592","228728.925904","229495.530128","230262.686536","231029.200172","234087.379457","Mapping"
"Mixed","Both","ball","8","m150lash.wav","None","730.303271208","131","224912.772038","231779.011035","232545.498701","233311.645658","234078.534012","234845.443081","235612.278875","221796.093164","225661.637449","226429.030064","227195.608318","227961.853592","228728.925904","229495.530128","230262.686536","231029.200172","234854.560598","Mapping"
"Mixed","Both","ball","8","m150jaw.wav","None","728.469873779","131","224912.772038","231779.011035","232545.498701","233311.645658","234078.534012","234845.443081","235612.278875","236378.808897","225661.637449","226429.030064","227195.608318","227961.853592","228728.925904","229495.530128","230262.686536","231029.200172","235621.29653","Mapping"
"Mixed","Both","ball","12","m160cad.wav","None","726.35420179","131","239495.782104","231779.011035","232545.498701","233311.645658","234078.534012","234845.443081","235612.278875","236378.808897","225661.637449","226429.030064","227195.608318","227961.853592","228728.925904","229495.530128","230262.686536","231029.200172","236387.796563","Mapping"
"Mixed","Both","ball","12","m160ball.wav","None","719.720890746","131","239495.782104","231779.011035","232545.498701","233311.645658","234078.534012","234845.443081","235612.278875","236378.808897","240245.173729","226429.030064","227195.608318","227961.853592","228728.925904","229495.530128","230262.686536","231029.200172","239505.55105","Mapping"
"Mixed","Both","ball","12","m150knife.wav","None","735.624759924","131","239495.782104","231779.011035","232545.498701","233311.645658","234078.534012","234845.443081","235612.278875","236378.808897","240245.173729","241012.142159","227195.608318","227961.853592","228728.925904","229495.530128","230262.686536","231029.200172","240254.234668","Mapping"
"Mixed","Both","ball","12","m150ball.wav","None","733.374288771","131","239495.782104","231779.011035","232545.498701","233311.645658","234078.534012","234845.443081","235612.278875","236378.808897","240245.173729","241012.142159","241778.385269","227961.853592","228728.925904","229495.530128","230262.686536","231029.200172","241021.223503","Mapping"
"Mixed","Both","ball","12","m160reek.wav","None","731.980535667","131","239495.782104","231779.011035","232545.498701","233311.645658","234078.534012","234845.443081","235612.278875","236378.808897","240245.173729","241012.142159","241778.385269","242545.273932","228728.925904","229495.530128","230262.686536","231029.200172","241787.244936","Mapping"
"Mixed","Both","ball","12","m160cling.wav","None","728.968570475","131","239495.782104","231779.011035","232545.498701","233311.645658","234078.534012","234845.443081","235612.278875","236378.808897","240245.173729","241012.142159","241778.385269","242545.273932","243312.077882","229495.530128","230262.686536","231029.200172","242554.732158","Mapping"
"Mixed","Both","ball","12","m150cave.wav","None","727.232253645","131","239495.782104","231779.011035","232545.498701","233311.645658","234078.534012","234845.443081","235612.278875","236378.808897","240245.173729","241012.142159","241778.385269","242545.273932","243312.077882","244078.340779","230262.686536","231029.200172","243321.185815","Mapping"
"Mixed","Both","ball","12","m150cad.wav","None","725.929397624","131","239495.782104","231779.011035","232545.498701","233311.645658","234078.534012","234845.443081","235612.278875","236378.808897","240245.173729","241012.142159","241778.385269","242545.273932","243312.077882","244078.340779","244845.886435","231029.200172","244087.225798","Mapping"
"Mixed","Both","ball","12","m160done.wav","None","722.300322726","131","239495.782104","231779.011035","232545.498701","233311.645658","234078.534012","234845.443081","235612.278875","236378.808897","240245.173729","241012.142159","241778.385269","242545.273932","243312.077882","244078.340779","244845.886435","245612.581556","244855.568812","Mapping"
"Mixed","Both","ball","12","m150depth.wav","None","720.46939889","131","239495.782104","246361.694925","232545.498701","233311.645658","234078.534012","234845.443081","235612.278875","236378.808897","240245.173729","241012.142159","241778.385269","242545.273932","243312.077882","244078.340779","244845.886435","245612.581556","245622.073482","Mapping"
"Mixed","Both","ball","12","m150done.wav","None","736.786633264","131","239495.782104","246361.694925","247128.579878","233311.645658","234078.534012","234845.443081","235612.278875","236378.808897","240245.173729","241012.142159","241778.385269","242545.273932","243312.077882","244078.340779","244845.886435","245612.581556","246370.372179","Mapping"
"Mixed","Both","ball","12","m160depth.wav","None","734.358695801","131","239495.782104","246361.694925","247128.579878","247894.852977","234078.534012","234845.443081","235612.278875","236378.808897","240245.173729","241012.142159","241778.385269","242545.273932","243312.077882","244078.340779","244845.886435","245612.581556","247137.629068","Mapping"
"Mixed","Both","ball","12","m150ball.wav","None","733.555773273","131","239495.782104","246361.694925","247128.579878","247894.852977","248662.096262","234845.443081","235612.278875","236378.808897","240245.173729","241012.142159","241778.385269","242545.273932","243312.077882","244078.340779","244845.886435","245612.581556","247903.884854","Mapping"
"Mixed","Both","ball","12","m150dime.wav","None","728.820476215","131","239495.782104","246361.694925","247128.579878","247894.852977","248662.096262","249428.596604","235612.278875","236378.808897","240245.173729","241012.142159","241778.385269","242545.273932","243312.077882","244078.340779","244845.886435","245612.581556","248673.19558","Mapping"
"Mixed","Both","ball","12","m160ball.wav","None","729.201996233","131","239495.782104","246361.694925","247128.579878","247894.852977","248662.096262","249428.596604","250194.902167","236378.808897","240245.173729","241012.142159","241778.385269","242545.273932","243312.077882","244078.340779","244845.886435","245612.581556","249437.636828","Mapping"
"Mixed","Both","ball","12","m160lash.wav","None","726.127268281","131","239495.782104","246361.694925","247128.579878","247894.852977","248662.096262","249428.596604","250194.902167","250961.505463","240245.173729","241012.142159","241778.385269","242545.273932","243312.077882","244078.340779","244845.886435","245612.581556","250205.421785","Mapping"
"Mixed","Both","done","44","m160dime.wav","None","726.142727304","131","254078.831746","246361.694925","247128.579878","247894.852977","248662.096262","249428.596604","250194.902167","250961.505463","240245.173729","241012.142159","241778.385269","242545.273932","243312.077882","244078.340779","244845.886435","245612.581556","250970.228166","Mapping"
"Mixed","Both","done","44","m160jolt.wav","None","717.201129068","131","254078.831746","246361.694925","247128.579878","247894.852977","248662.096262","249428.596604","250194.902167","250961.505463","254828.570572","241012.142159","241778.385269","242545.273932","243312.077882","244078.340779","244845.886435","245612.581556","254091.905753","Mapping"
"Mixed","Both","done","44","m160cad.wav","None","736.270622816","131","254078.831746","246361.694925","247128.579878","247894.852977","248662.096262","249428.596604","250194.902167","250961.505463","254828.570572","255595.302793","241778.385269","242545.273932","243312.077882","244078.340779","244845.886435","245612.581556","254837.564729","Mapping"
"Mixed","Both","done","44","m150knife.wav","None","734.337672126","131","254078.831746","246361.694925","247128.579878","247894.852977","248662.096262","249428.596604","250194.902167","250961.505463","254828.570572","255595.302793","256361.387915","242545.273932","243312.077882","244078.340779","244845.886435","245612.581556","255604.220585","Mapping"
"Mixed","Both","done","44","m160dime.wav","None","732.851167675","131","254078.831746","246361.694925","247128.579878","247894.852977","248662.096262","249428.596604","250194.902167","250961.505463","254828.570572","255595.302793","256361.387915","257128.396229","243312.077882","244078.340779","244845.886435","245612.581556","256370.360122","Mapping"
"Mixed","Both","done","44","m150lash.wav","None","730.326150078","131","254078.831746","246361.694925","247128.579878","247894.852977","248662.096262","249428.596604","250194.902167","250961.505463","254828.570572","255595.302793","256361.387915","257128.396229","257895.068471","244078.340779","244845.886435","245612.581556","257137.416048","Mapping"
"Mixed","Both","done","44","m150done.wav","None","723.304208368","131","254078.831746","246361.694925","247128.579878","247894.852977","248662.096262","249428.596604","250194.902167","250961.505463","254828.570572","255595.302793","256361.387915","257128.396229","257895.068471","258661.814296","244845.886435","245612.581556","257909.315172","Mapping"
"Mixed","Both","done","44","m150ball.wav","None","725.879621226","131","254078.831746","246361.694925","247128.579878","247894.852977","248662.096262","249428.596604","250194.902167","250961.505463","254828.570572","255595.302793","256361.387915","257128.396229","257895.068471","258661.814296","259428.760775","245612.581556","258671.475649","Mapping"
"Mixed","Both","done","44","m160done.wav","None","723.575353157","131","254078.831746","246361.694925","247128.579878","247894.852977","248662.096262","249428.596604","250194.902167","250961.505463","254828.570572","255595.302793","256361.387915","257128.396229","257895.068471","258661.814296","259428.760775","260194.785299","259438.440988","Mapping"
"Mixed","Both","done","44","m160ball.wav","None","723.215166479","131","254078.831746","260961.888528","247128.579878","247894.852977","248662.096262","249428.596604","250194.902167","250961.505463","254828.570572","255595.302793","256361.387915","257128.396229","257895.068471","258661.814296","259428.760775","260194.785299","260203.507075","Mapping"
"Mixed","Both","done","44","m160reek.wav","None","720.593377482","131","254078.831746","260961.888528","261711.409078","247894.852977","248662.096262","249428.596604","250194.902167","250961.505463","254828.570572","255595.302793","256361.387915","257128.396229","257895.068471","258661.814296","259428.760775","260194.785299","260970.764891","Mapping"
"Mixed","Both","done","44","m160done.wav","None","735.16501952","131","254078.831746","260961.888528","261711.409078","262478.312891","248662.096262","249428.596604","250194.902167","250961.505463","254828.570572","255595.302793","256361.387915","257128.396229","257895.068471","258661.814296","259428.760775","260194.785299","261720.894203","Mapping"
"Mixed","Both","done","44","m150cad.wav","None","733.472296502","131","254078.831746","260961.888528","261711.409078","262478.312891","263244.978022","249428.596604","250194.902167","250961.505463","254828.570572","255595.302793","256361.387915","257128.396229","257895.068471","258661.814296","259428.760775","260194.785299","262487.325599","Mapping"
"Mixed","Both","done","44","m150bluff.wav","None","730.944805313","131","254078.831746","260961.888528","261711.409078","262478.312891","263244.978022","264011.33769","250194.902167","250961.505463","254828.570572","255595.302793","256361.387915","257128.396229","257895.068471","258661.814296","259428.760775","260194.785299","263254.635356","Mapping"
"Mixed","Both","done","44","m150done.wav","None","730.406535324","131","254078.831746","260961.888528","261711.409078","262478.312891","263244.978022","264011.33769","264778.320033","250961.505463","254828.570572","255595.302793","256361.387915","257128.396229","257895.068471","258661.814296","259428.760775","260194.785299","264020.204468","Mapping"
"Mixed","Both","done","44","m150cave.wav","None","727.701578289","131","254078.831746","260961.888528","261711.409078","262478.312891","263244.978022","264011.33769","264778.320033","265545.112543","254828.570572","255595.302793","256361.387915","257128.396229","257895.068471","258661.814296","259428.760775","260194.785299","264787.705295","Mapping"
"Mixed","Both","tile","34","m160jolt.wav","None","726.235169917","131","268678.535928","260961.888528","261711.409078","262478.312891","263244.978022","264011.33769","264778.320033","265545.112543","254828.570572","255595.302793","256361.387915","257128.396229","257895.068471","258661.814296","259428.760775","260194.785299","265553.934183","Mapping"
"Mixed","Both","tile","34","m150tile.wav","None","720.68272857","131","268678.535928","260961.888528","261711.409078","262478.312891","263244.978022","264011.33769","264778.320033","265545.112543","269428.197461","255595.302793","256361.387915","257128.396229","257895.068471","258661.814296","259428.760775","260194.785299","268688.224489","Mapping"
"Mixed","Both","tile","34","m150cad.wav","None","736.934417859","131","268678.535928","260961.888528","261711.409078","262478.312891","263244.978022","264011.33769","264778.320033","265545.112543","269428.197461","270194.746653","256361.387915","257128.396229","257895.068471","258661.814296","259428.760775","260194.785299","269436.89203","Mapping"
"Mixed","Both","tile","34","m150jaw.wav","None","734.704351518","131","268678.535928","260961.888528","261711.409078","262478.312891","263244.978022","264011.33769","264778.320033","265545.112543","269428.197461","270194.746653","270961.631606","257128.396229","257895.068471","258661.814296","259428.760775","260194.785299","270203.959086","Mapping"
"Mixed","Both","tile","34","m160knife.wav","None","732.917021494","131","268678.535928","260961.888528","261711.409078","262478.312891","263244.978022","264011.33769","264778.320033","265545.112543","269428.197461","270194.746653","270961.631606","271727.871315","257895.068471","258661.814296","259428.760775","260194.785299","270970.839711","Mapping"
"Mixed","Both","tile","34","m160tile.wav","None","731.978371274","131","268678.535928","260961.888528","261711.409078","262478.312891","263244.978022","264011.33769","264778.320033","265545.112543","269428.197461","270194.746653","270961.631606","271727.871315","272494.841599","258661.814296","259428.760775","260194.785299","271736.72789","Mapping"
"Mixed","Both","tile","34","m160reek.wav","None","729.474687018","131","268678.535928","260961.888528","261711.409078","262478.312891","263244.978022","264011.33769","264778.320033","265545.112543","269428.197461","270194.746653","270961.631606","271727.871315","272494.841599","273261.098931","259428.760775","260194.785299","272504.161935","Mapping"
"Mixed","Both","tile","34","m160tile.wav","None","728.86345163","131","268678.535928","260961.888528","261711.409078","262478.312891","263244.978022","264011.33769","264778.320033","265545.112543","269428.197461","270194.746653","270961.631606","271727.871315","272494.841599","273261.098931","274027.800545","260194.785299","273269.893363","Mapping"
"Mixed","Both","tile","34","m160priest.wav","None","727.004083805","131","268678.535928","260961.888528","261711.409078","262478.312891","263244.978022","264011.33769","264778.320033","265545.112543","269428.197461","270194.746653","270961.631606","271727.871315","272494.841599","273261.098931","274027.800545","274795.011985","274036.647536","Mapping"
"Mixed","Both","tile","34","m150romp.wav","None","724.244712852","131","268678.535928","275561.723801","261711.409078","262478.312891","263244.978022","264011.33769","264778.320033","265545.112543","269428.197461","270194.746653","270961.631606","271727.871315","272494.841599","273261.098931","274027.800545","274795.011985","274804.267394","Mapping"
"Mixed","Both","tile","34","m150done.wav","None","722.163668368","131","268678.535928","275561.723801","276328.283504","262478.312891","263244.978022","264011.33769","264778.320033","265545.112543","269428.197461","270194.746653","270961.631606","271727.871315","272494.841599","273261.098931","274027.800545","274795.011985","275571.329503","Mapping"
"Mixed","Both","tile","34","m150tile.wav","None","720.44961201","131","268678.535928","275561.723801","276328.283504","277078.261012","263244.978022","264011.33769","264778.320033","265545.112543","269428.197461","270194.746653","270961.631606","271727.871315","272494.841599","273261.098931","274027.800545","274795.011985","276337.99618","Mapping"
"Mixed","Both","tile","34","m160depth.wav","None","735.546539538","131","268678.535928","275561.723801","276328.283504","277078.261012","277844.611714","264011.33769","264778.320033","265545.112543","269428.197461","270194.746653","270961.631606","271727.871315","272494.841599","273261.098931","274027.800545","274795.011985","277087.831159","Mapping"
"Mixed","Both","tile","34","m150cad.wav","None","734.333034605","131","268678.535928","275561.723801","276328.283504","277078.261012","277844.611714","278611.506252","264778.320033","265545.112543","269428.197461","270194.746653","270961.631606","271727.871315","272494.841599","273261.098931","274027.800545","274795.011985","277854.113843","Mapping"
"Mixed","Both","tile","34","m150jaw.wav","None","732.968034688","131","268678.535928","275561.723801","276328.283504","277078.261012","277844.611714","278611.506252","279377.860354","265545.112543","269428.197461","270194.746653","270961.631606","271727.871315","272494.841599","273261.098931","274027.800545","274795.011985","278620.640465","Mapping"
"Mixed","Both","tile","34","m160lash.wav","None","731.875726022","131","268678.535928","275561.723801","276328.283504","277078.261012","277844.611714","278611.506252","279377.860354","280144.67327","269428.197461","270194.746653","270961.631606","271727.871315","272494.841599","273261.098931","274027.800545","274795.011985","279386.752485","Mapping"
"Mixed","Both","cave","16","m160ball.wav","None","729.833327699","131","283278.391297","275561.723801","276328.283504","277078.261012","277844.611714","278611.506252","279377.860354","280144.67327","269428.197461","270194.746653","270961.631606","271727.871315","272494.841599","273261.098931","274027.800545","274795.011985","280153.746267","Mapping"
"Mixed","Both","cave","16","m150gnash.wav","None","720.521340147","131","283278.391297","275561.723801","276328.283504","277078.261012","277844.611714","278611.506252","279377.860354","280144.67327","284027.62277","270194.746653","270961.631606","271727.871315","272494.841599","273261.098931","274027.800545","274795.011985","283287.967628","Mapping"
"Mixed","Both","cave","16","m150cad.wav","None","736.862689722","131","283278.391297","275561.723801","276328.283504","277078.261012","277844.611714","278611.506252","279377.860354","280144.67327","284027.62277","284794.499067","270961.631606","271727.871315","272494.841599","273261.098931","274027.800545","274795.011985","284036.538398","Mapping"
"Mixed","Both","cave","16","m150jolt.wav","None","734.855537303","131","283278.391297","275561.723801","276328.283504","277078.261012","277844.611714","278611.506252","279377.860354","280144.67327","284027.62277","284794.499067","285561.34661","271727.871315","272494.841599","273261.098931","274027.800545","274795.011985","284803.402018","Mapping"
"Mixed","Both","cave","16","m150cave.wav","None","732.86909936","131","283278.391297","275561.723801","276328.283504","277078.261012","277844.611714","278611.506252","279377.860354","280144.67327","284027.62277","284794.499067","285561.34661","286327.620946","272494.841599","273261.098931","274027.800545","274795.011985","285570.334893","Mapping"
"Mixed","Both","cave","16","m150bluff.wav","None","731.613547076","131","283278.391297","275561.723801","276328.283504","277078.261012","277844.611714","278611.506252","279377.860354","280144.67327","284027.62277","284794.499067","285561.34661","286327.620946","287094.508991","273261.098931","274027.800545","274795.011985","286336.51926","Mapping"
"Mixed","Both","cave","16","m160done.wav","None","729.250845499","131","283278.391297","275561.723801","276328.283504","277078.261012","277844.611714","278611.506252","279377.860354","280144.67327","284027.62277","284794.499067","285561.34661","286327.620946","287094.508991","287861.352515","274027.800545","274795.011985","287103.918986","Mapping"
"Mixed","Both","cave","16","m160cave.wav","None","727.505562827","131","283278.391297","275561.723801","276328.283504","277078.261012","277844.611714","278611.506252","279377.860354","280144.67327","284027.62277","284794.499067","285561.34661","286327.620946","287094.508991","287861.352515","288627.865224","274795.011985","287870.498477","Mapping"
"Mixed","Both","cave","16","m160ball.wav","None","726.152311545","131","283278.391297","275561.723801","276328.283504","277078.261012","277844.611714","278611.506252","279377.860354","280144.67327","284027.62277","284794.499067","285561.34661","286327.620946","287094.508991","287861.352515","288627.865224","289394.865808","288636.91967","Mapping"
"Mixed","Both","cave","16","m150cave.wav","None","723.465596791","131","283278.391297","290161.491983","276328.283504","277078.261012","277844.611714","278611.506252","279377.860354","280144.67327","284027.62277","284794.499067","285561.34661","286327.620946","287094.508991","287861.352515","288627.865224","289394.865808","289404.536746","Mapping"
"Mixed","Both","cave","16","m150priest.wav","None","722.423682921","131","283278.391297","290161.491983","290928.321285","277078.261012","277844.611714","278611.506252","279377.860354","280144.67327","284027.62277","284794.499067","285561.34661","286327.620946","287094.508991","287861.352515","288627.865224","289394.865808","290170.376384","Mapping"
"Mixed","Both","cave","16","m160cave.wav","None","719.761083368","131","283278.391297","290161.491983","290928.321285","291677.671171","277844.611714","278611.506252","279377.860354","280144.67327","284027.62277","284794.499067","285561.34661","286327.620946","287094.508991","287861.352515","288627.865224","289394.865808","290937.838564","Mapping"
"Mixed","Both","cave","16","m150greet.wav","None","735.490269493","131","283278.391297","290161.491983","290928.321285","291677.671171","292444.444513","278611.506252","279377.860354","280144.67327","284027.62277","284794.499067","285561.34661","286327.620946","287094.508991","287861.352515","288627.865224","289394.865808","291686.812805","Mapping"
"Mixed","Both","cave","16","m160park.wav","None","733.254638501","131","283278.391297","290161.491983","290928.321285","291677.671171","292444.444513","293211.216309","279377.860354","280144.67327","284027.62277","284794.499067","285561.34661","286327.620946","287094.508991","287861.352515","288627.865224","289394.865808","292453.952207","Mapping"
"Mixed","Both","cave","16","m160jolt.wav","None","731.718357187","131","283278.391297","290161.491983","290928.321285","291677.671171","292444.444513","293211.216309","293977.752205","280144.67327","284027.62277","284794.499067","285561.34661","286327.620946","287094.508991","287861.352515","288627.865224","289394.865808","293220.328261","Mapping"
"Mixed","Both","cave","16","m160park.wav","None","730.156722944","131","283278.391297","290161.491983","290928.321285","291677.671171","292444.444513","293211.216309","293977.752205","294744.375289","284027.62277","284794.499067","285561.34661","286327.620946","287094.508991","287861.352515","288627.865224","289394.865808","293987.096965","Mapping"
"Mixed","Both","done","43","m160ball.wav","None","728.974135593","131","297878.077239","290161.491983","290928.321285","291677.671171","292444.444513","293211.216309","293977.752205","294744.375289","284027.62277","284794.499067","285561.34661","286327.620946","287094.508991","287861.352515","288627.865224","289394.865808","294753.164465","Mapping"
"Mixed","Both","done","43","m150cave.wav","None","719.705741387","131","297878.077239","290161.491983","290928.321285","291677.671171","292444.444513","293211.216309","293977.752205","294744.375289","298627.346122","284794.499067","285561.34661","286327.620946","287094.508991","287861.352515","288627.865224","289394.865808","297887.591735","Mapping"
"Mixed","Both","done","43","m150jaw.wav","None","735.753994435","131","297878.077239","290161.491983","290928.321285","291677.671171","292444.444513","293211.216309","293977.752205","294744.375289","298627.346122","299394.389063","285561.34661","286327.620946","287094.508991","287861.352515","288627.865224","289394.865808","298636.464258","Mapping"
"Mixed","Both","done","43","m160done.wav","None","733.644814696","131","297878.077239","290161.491983","290928.321285","291677.671171","292444.444513","293211.216309","293977.752205","294744.375289","298627.346122","299394.389063","300160.570956","286327.620946","287094.508991","287861.352515","288627.865224","289394.865808","299403.548937","Mapping"
"Mixed","Both","done","43","m160tile.wav","None","732.862915844","131","297878.077239","290161.491983","290928.321285","291677.671171","292444.444513","293211.216309","293977.752205","294744.375289","298627.346122","299394.389063","300160.570956","300927.358211","287094.508991","287861.352515","288627.865224","289394.865808","300169.397851","Mapping"
"Mixed","Both","done","43","m150done.wav","None","731.059818063","131","297878.077239","290161.491983","290928.321285","291677.671171","292444.444513","293211.216309","293977.752205","294744.375289","298627.346122","299394.389063","300160.570956","300927.358211","301694.05395","287861.352515","288627.865224","289394.865808","300936.177376","Mapping"
"Mixed","Both","done","43","m160greet.wav","None","729.827144183","131","297878.077239","290161.491983","290928.321285","291677.671171","292444.444513","293211.216309","293977.752205","294744.375289","298627.346122","299394.389063","300160.570956","300927.358211","301694.05395","302460.570987","288627.865224","289394.865808","301702.842198","Mapping"
"Mixed","Both","done","43","m160done.wav","None","728.381759953","131","297878.077239","290161.491983","290928.321285","291677.671171","292444.444513","293211.216309","293977.752205","294744.375289","298627.346122","299394.389063","300160.570956","300927.358211","301694.05395","302460.570987","303227.618875","289394.865808","302469.212069","Mapping"
"Mixed","Both","done","43","m150lash.wav","None","726.033279672","131","297878.077239","290161.491983","290928.321285","291677.671171","292444.444513","293211.216309","293977.752205","294744.375289","298627.346122","299394.389063","300160.570956","300927.358211","301694.05395","302460.570987","303227.618875","303994.577102","303236.578405","Mapping"
"Mixed","Both","done","43","m160priest.wav","None","723.69562136","131","297878.077239","304760.639654","290928.321285","291677.671171","292444.444513","293211.216309","293977.752205","294744.375289","298627.346122","299394.389063","300160.570956","300927.358211","301694.05395","302460.570987","303227.618875","303994.577102","304004.043676","Mapping"
"Mixed","Both","done","43","m150priest.wav","None","723.170336336","131","297878.077239","304760.639654","305527.415161","291677.671171","292444.444513","293211.216309","293977.752205","294744.375289","298627.346122","299394.389063","300160.570956","300927.358211","301694.05395","302460.570987","303227.618875","303994.577102","304769.583107","Mapping"
"Mixed","Both","done","43","m150jaw.wav","None","721.498018131","131","297878.077239","304760.639654","305527.415161","306277.078857","292444.444513","293211.216309","293977.752205","294744.375289","298627.346122","299394.389063","300160.570956","300927.358211","301694.05395","302460.570987","303227.618875","303994.577102","305536.187022","Mapping"
"Mixed","Both","done","43","m150done.wav","None","736.940292176","131","297878.077239","304760.639654","305527.415161","306277.078857","307044.115924","293211.216309","293977.752205","294744.375289","298627.346122","299394.389063","300160.570956","300927.358211","301694.05395","302460.570987","303227.618875","303994.577102","306285.768479","Mapping"
"Mixed","Both","done","43","m150romp.wav","None","734.367971309","131","297878.077239","304760.639654","305527.415161","306277.078857","307044.115924","307810.983563","293977.752205","294744.375289","298627.346122","299394.389063","300160.570956","300927.358211","301694.05395","302460.570987","303227.618875","303994.577102","307053.275798","Mapping"
"Mixed","Both","done","43","m160cad.wav","None","732.788096182","131","297878.077239","304760.639654","305527.415161","306277.078857","307044.115924","307810.983563","308577.486997","294744.375289","298627.346122","299394.389063","300160.570956","300927.358211","301694.05395","302460.570987","303227.618875","303994.577102","307820.088095","Mapping"
"Mixed","Both","done","43","m160lash.wav","None","730.80134904","131","297878.077239","304760.639654","305527.415161","306277.078857","307044.115924","307810.983563","308577.486997","309344.121519","298627.346122","299394.389063","300160.570956","300927.358211","301694.05395","302460.570987","303227.618875","303994.577102","308587.040758","Mapping"
"Mixed","Both","cave","21","m150tile.wav","None","729.973074049","131","312477.783896","304760.639654","305527.415161","306277.078857","307044.115924","307810.983563","308577.486997","309344.121519","298627.346122","299394.389063","300160.570956","300927.358211","301694.05395","302460.570987","303227.618875","303994.577102","309353.492869","Mapping"
"Mixed","Both","cave","21","m150jaw.wav","None","720.550093334","131","312477.783896","304760.639654","305527.415161","306277.078857","307044.115924","307810.983563","308577.486997","309344.121519","313244.280218","299394.389063","300160.570956","300927.358211","301694.05395","302460.570987","303227.618875","303994.577102","312487.363318","Mapping"
"Mixed","Both","cave","21","m160jaw.wav","None","718.976710923","131","312477.783896","304760.639654","305527.415161","306277.078857","307044.115924","307810.983563","308577.486997","309344.121519","313244.280218","313994.00575","300160.570956","300927.358211","301694.05395","302460.570987","303227.618875","303994.577102","313254.091521","Mapping"
"Mixed","Both","cave","21","m160park.wav","None","739.681730978","131","312477.783896","304760.639654","305527.415161","306277.078857","307044.115924","307810.983563","308577.486997","309344.121519","313244.280218","313994.00575","314760.601008","300927.358211","301694.05395","302460.570987","303227.618875","303994.577102","313998.371894","Mapping"
"Mixed","Both","cave","21","m150reek.wav","None","733.951205853","131","312477.783896","304760.639654","305527.415161","306277.078857","307044.115924","307810.983563","308577.486997","309344.121519","313244.280218","313994.00575","314760.601008","315527.397847","301694.05395","302460.570987","303227.618875","303994.577102","314769.699357","Mapping"
"Mixed","Both","cave","21","m160jolt.wav","None","731.854393147","131","312477.783896","304760.639654","305527.415161","306277.078857","307044.115924","307810.983563","308577.486997","309344.121519","313244.280218","313994.00575","314760.601008","315527.397847","316293.715776","302460.570987","303227.618875","303994.577102","315536.806914","Mapping"
"Mixed","Both","cave","21","m150cave.wav","None","731.293243356","131","312477.783896","304760.639654","305527.415161","306277.078857","307044.115924","307810.983563","308577.486997","309344.121519","313244.280218","313994.00575","314760.601008","315527.397847","316293.715776","317060.760572","303227.618875","303994.577102","316302.433842","Mapping"
"Mixed","Both","cave","21","m150gnash.wav","None","728.914155625","131","312477.783896","304760.639654","305527.415161","306277.078857","307044.115924","307810.983563","308577.486997","309344.121519","313244.280218","313994.00575","314760.601008","315527.397847","316293.715776","317060.760572","317827.367269","303994.577102","317069.86294","Mapping"
"Mixed","Both","cave","21","m150cave.wav","None","727.457331959","131","312477.783896","304760.639654","305527.415161","306277.078857","307044.115924","307810.983563","308577.486997","309344.121519","313244.280218","313994.00575","314760.601008","315527.397847","316293.715776","317060.760572","317827.367269","318594.046932","317836.422334","Mapping"
"Mixed","Both","cave","21","m150romp.wav","None","725.648668595","131","312477.783896","319361.132538","305527.415161","306277.078857","307044.115924","307810.983563","308577.486997","309344.121519","313244.280218","313994.00575","314760.601008","315527.397847","316293.715776","317060.760572","317827.367269","318594.046932","318603.138788","Mapping"
"Mixed","Both","cave","21","m160cave.wav","None","723.25257631","131","312477.783896","319361.132538","320127.654213","306277.078857","307044.115924","307810.983563","308577.486997","309344.121519","313244.280218","313994.00575","314760.601008","315527.397847","316293.715776","317060.760572","317827.367269","318594.046932","319371.031027","Mapping"
"Mixed","Both","cave","21","m160cad.wav","None","722.006917465","131","312477.783896","319361.132538","320127.654213","320894.425391","307044.115924","307810.983563","308577.486997","309344.121519","313244.280218","313994.00575","314760.601008","315527.397847","316293.715776","317060.760572","317827.367269","318594.046932","320137.27321","Mapping"
"Mixed","Both","cave","21","m160ball.wav","None","720.174757298","131","312477.783896","319361.132538","320127.654213","320894.425391","321644.214612","307810.983563","308577.486997","309344.121519","313244.280218","313994.00575","314760.601008","315527.397847","316293.715776","317060.760572","317827.367269","318594.046932","320904.21165","Mapping"
"Mixed","Both","cave","21","m160bluff.wav","None","736.204151064","131","312477.783896","319361.132538","320127.654213","320894.425391","321644.214612","322410.410418","308577.486997","309344.121519","313244.280218","313994.00575","314760.601008","315527.397847","316293.715776","317060.760572","317827.367269","318594.046932","321653.312033","Mapping"
"Mixed","Both","cave","21","m160cave.wav","None","734.375391155","131","312477.783896","319361.132538","320127.654213","320894.425391","321644.214612","322410.410418","323177.217769","309344.121519","313244.280218","313994.00575","314760.601008","315527.397847","316293.715776","317060.760572","317827.367269","318594.046932","322420.180909","Mapping"
"Mixed","Both","cave","21","m150cling.wav","None","733.28277329","131","312477.783896","319361.132538","320127.654213","320894.425391","321644.214612","322410.410418","323177.217769","323943.848582","313244.280218","313994.00575","314760.601008","315527.397847","316293.715776","317060.760572","317827.367269","318594.046932","323186.272833","Mapping"
"Mixed","Both","done","37","m150dime.wav","None","731.532234699","131","327077.456852","319361.132538","320127.654213","320894.425391","321644.214612","322410.410418","323177.217769","323943.848582","313244.280218","313994.00575","314760.601008","315527.397847","316293.715776","317060.760572","317827.367269","318594.046932","323952.97321","Mapping"
"Mixed","Both","done","37","m150cad.wav","None","720.602961723","131","327077.456852","319361.132538","320127.654213","320894.425391","321644.214612","322410.410418","323177.217769","323943.848582","327827.255967","313994.00575","314760.601008","315527.397847","316293.715776","317060.760572","317827.367269","318594.046932","327087.047405","Mapping"
"Mixed","Both","done","37","m160jaw.wav","None","736.963171046","131","327077.456852","319361.132538","320127.654213","320894.425391","321644.214612","322410.410418","323177.217769","323943.848582","327827.255967","328610.323664","314760.601008","315527.397847","316293.715776","317060.760572","317827.367269","318594.046932","327835.893957","Mapping"
"Mixed","Both","done","37","m150priest.wav","None","721.81492066","131","327077.456852","319361.132538","320127.654213","320894.425391","321644.214612","322410.410418","323177.217769","323943.848582","327827.255967","328610.323664","329377.24108","315527.397847","316293.715776","317060.760572","317827.367269","318594.046932","328618.95578","Mapping"
"Mixed","Both","done","37","m150done.wav","None","719.1795283","131","327077.456852","319361.132538","320127.654213","320894.425391","321644.214612","322410.410418","323177.217769","323943.848582","327827.255967","328610.323664","329377.24108","330126.818827","316293.715776","317060.760572","317827.367269","318594.046932","329387.063204","Mapping"
"Mixed","Both","done","37","m160cave.wav","None","735.54561194","131","327077.456852","319361.132538","320127.654213","320894.425391","321644.214612","322410.410418","323177.217769","323943.848582","327827.255967","328610.323664","329377.24108","330126.818827","330893.752321","317060.760572","317827.367269","318594.046932","330135.895225","Mapping"
"Mixed","Both","done","37","m160bluff.wav","None","733.793218154","131","327077.456852","319361.132538","320127.654213","320894.425391","321644.214612","322410.410418","323177.217769","323943.848582","327827.255967","328610.323664","329377.24108","330126.818827","330893.752321","331660.557198","317827.367269","318594.046932","330902.860872","Mapping"
"Mixed","Both","done","37","m160done.wav","None","732.287853491","131","327077.456852","319361.132538","320127.654213","320894.425391","321644.214612","322410.410418","323177.217769","323943.848582","327827.255967","328610.323664","329377.24108","330126.818827","330893.752321","331660.557198","332427.069907","318594.046932","331669.700377","Mapping"
"Mixed","Both","done","37","m160knife.wav","None","730.882970616","131","327077.456852","319361.132538","320127.654213","320894.425391","321644.214612","322410.410418","323177.217769","323943.848582","327827.255967","328610.323664","329377.24108","330126.818827","330893.752321","331660.557198","332427.069907","333193.726381","332436.105803","Mapping"
"Mixed","Both","done","37","m150done.wav","None","728.677329142","131","327077.456852","333960.552901","320127.654213","320894.425391","321644.214612","322410.410418","323177.217769","323943.848582","327827.255967","328610.323664","329377.24108","330126.818827","330893.752321","331660.557198","332427.069907","333193.726381","333203.412777","Mapping"
"Mixed","Both","done","37","m160reek.wav","None","727.491649799","131","327077.456852","333960.552901","334727.372309","320894.425391","321644.214612","322410.410418","323177.217769","323943.848582","327827.255967","328610.323664","329377.24108","330126.818827","330893.752321","331660.557198","332427.069907","333193.726381","333970.036788","Mapping"
"Mixed","Both","done","37","m150dime.wav","None","726.741286926","131","327077.456852","333960.552901","334727.372309","335493.672925","321644.214612","322410.410418","323177.217769","323943.848582","327827.255967","328610.323664","329377.24108","330126.818827","330893.752321","331660.557198","332427.069907","333193.726381","334735.979381","Mapping"
"Mixed","Both","done","37","m160done.wav","None","725.238704588","131","327077.456852","333960.552901","334727.372309","335493.672925","336260.975262","322410.410418","323177.217769","323943.848582","327827.255967","328610.323664","329377.24108","330126.818827","330893.752321","331660.557198","332427.069907","333193.726381","335502.718096","Mapping"
"Mixed","Both","done","37","m150jaw.wav","None","722.810767591","131","327077.456852","333960.552901","334727.372309","335493.672925","336260.975262","337026.978144","323177.217769","323943.848582","327827.255967","328610.323664","329377.24108","330126.818827","330893.752321","331660.557198","332427.069907","333193.726381","336270.342901","Mapping"
"Mixed","Both","done","37","m150jaw.wav","None","722.731928807","131","327077.456852","333960.552901","334727.372309","335493.672925","336260.975262","337026.978144","337793.486524","323943.848582","327827.255967","328610.323664","329377.24108","330126.818827","330893.752321","331660.557198","332427.069907","333193.726381","337035.663128","Mapping"
"Mixed","Both","done","37","m160jolt.wav","None","721.255935729","131","327077.456852","333960.552901","334727.372309","335493.672925","336260.975262","337026.978144","337793.486524","338543.407762","327827.255967","328610.323664","329377.24108","330126.818827","330893.752321","331660.557198","332427.069907","333193.726381","337802.377109","Mapping"
"Mixed","Both","ball","4","m150romp.wav","None","735.75244844","131","341677.216996","333960.552901","334727.372309","335493.672925","336260.975262","337026.978144","337793.486524","338543.407762","327827.255967","328610.323664","329377.24108","330126.818827","330893.752321","331660.557198","332427.069907","333193.726381","338553.006663","Mapping"
"Mixed","Both","ball","4","m160ball.wav","None","720.966858789","131","341677.216996","333960.552901","334727.372309","335493.672925","336260.975262","337026.978144","337793.486524","338543.407762","342443.430734","328610.323664","329377.24108","330126.818827","330893.752321","331660.557198","332427.069907","333193.726381","341686.680169","Mapping"
"Mixed","Both","ball","4","m150reek.wav","None","720.686129294","131","341677.216996","333960.552901","334727.372309","335493.672925","336260.975262","337026.978144","337793.486524","338543.407762","342443.430734","343193.434212","329377.24108","330126.818827","330893.752321","331660.557198","332427.069907","333193.726381","342452.290711","Mapping"
"Mixed","Both","ball","4","m150park.wav","None","735.370310489","131","341677.216996","333960.552901","334727.372309","335493.672925","336260.975262","337026.978144","337793.486524","338543.407762","342443.430734","343193.434212","343960.082957","330126.818827","330893.752321","331660.557198","332427.069907","333193.726381","343202.803397","Mapping"
"Mixed","Both","ball","4","m160jolt.wav","None","733.703248668","131","341677.216996","333960.552901","334727.372309","335493.672925","336260.975262","337026.978144","337793.486524","338543.407762","342443.430734","343193.434212","343960.082957","344726.82971","330893.752321","331660.557198","332427.069907","333193.726381","343969.787595","Mapping"
"Mixed","Both","ball","4","m150ball.wav","None","738.006939646","131","341677.216996","333960.552901","334727.372309","335493.672925","336260.975262","337026.978144","337793.486524","338543.407762","342443.430734","343193.434212","343960.082957","344726.82971","345493.472272","331660.557198","332427.069907","333193.726381","344730.761156","Mapping"
"Mixed","Both","ball","4","m150romp.wav","None","731.050852221","131","341677.216996","333960.552901","334727.372309","335493.672925","336260.975262","337026.978144","337793.486524","338543.407762","342443.430734","343193.434212","343960.082957","344726.82971","345493.472272","346260.322288","332427.069907","333193.726381","345503.230705","Mapping"
"Mixed","Both","ball","4","m160ball.wav","None","729.652152397","131","341677.216996","333960.552901","334727.372309","335493.672925","336260.975262","337026.978144","337793.486524","338543.407762","342443.430734","343193.434212","343960.082957","344726.82971","345493.472272","346260.322288","347026.778727","333193.726381","346269.763819","Mapping"
"Mixed","Both","ball","4","m160cave.wav","None","728.908900172","131","341677.216996","333960.552901","334727.372309","335493.672925","336260.975262","337026.978144","337793.486524","338543.407762","342443.430734","343193.434212","343960.082957","344726.82971","345493.472272","346260.322288","347026.778727","347793.440148","347035.806585","Mapping"
"Mixed","Both","ball","4","m150ball.wav","None","727.161143906","131","341677.216996","348560.244098","334727.372309","335493.672925","336260.975262","337026.978144","337793.486524","338543.407762","342443.430734","343193.434212","343960.082957","344726.82971","345493.472272","346260.322288","347026.778727","347793.440148","347802.580854","Mapping"
"Mixed","Both","ball","4","m160romp.wav","None","725.776975509","131","341677.216996","348560.244098","349327.099062","335493.672925","336260.975262","337026.978144","337793.486524","338543.407762","342443.430734","343193.434212","343960.082957","344726.82971","345493.472272","346260.322288","347026.778727","347793.440148","348569.335027","Mapping"
"Mixed","Both","ball","4","m160knife.wav","None","723.513209261","131","341677.216996","348560.244098","349327.099062","350093.298887","336260.975262","337026.978144","337793.486524","338543.407762","342443.430734","343193.434212","343960.082957","344726.82971","345493.472272","346260.322288","347026.778727","347793.440148","349336.913147","Mapping"
"Mixed","Both","ball","4","m150cave.wav","None","723.670578562","131","341677.216996","348560.244098","349327.099062","350093.298887","350860.354195","337026.978144","337793.486524","338543.407762","342443.430734","343193.434212","343960.082957","344726.82971","345493.472272","346260.322288","347026.778727","347793.440148","350102.191636","Mapping"
"Mixed","Both","ball","4","m160greet.wav","None","720.960366074","131","341677.216996","348560.244098","349327.099062","350093.298887","350860.354195","351627.151652","337793.486524","338543.407762","342443.430734","343193.434212","343960.082957","344726.82971","345493.472272","346260.322288","347026.778727","347793.440148","350870.015548","Mapping"
