"Condition","Talker","Target","Trial","current_stimulus","response_response","response_time_response","subject_nr","time_Audio1","time_Audio10","time_Audio11","time_Audio12","time_Audio13","time_Audio14","time_Audio15","time_Audio16","time_Audio2","time_Audio3","time_Audio4","time_Audio5","time_Audio6","time_Audio7","time_Audio8","time_Audio9","time_response","title"
"Blocked","m150","done","23","m150ball.wav","NA","NA","145","137966.07226","NA","NA","NA","NA","NA","NA","NA","NA","NA","NA","NA","NA","NA","NA","NA","NA","Mapping"
"Blocked","m150","done","23","m150cave.wav","None","717.172685079","145","137966.07226","NA","NA","NA","NA","NA","NA","NA","138733.084593","NA","NA","NA","NA","NA","NA","NA","137980.201476","Mapping"
"Blocked","m150","done","23","m150romp.wav","None","719.209827483","145","137966.07226","NA","NA","NA","NA","NA","NA","NA","138733.084593","139482.130562","NA","NA","NA","NA","NA","NA","138743.191774","Mapping"
"Blocked","m150","done","23","m150done.wav","None","736.273405608","145","137966.07226","NA","NA","NA","NA","NA","NA","NA","138733.084593","139482.130562","140248.812388","NA","NA","NA","NA","NA","139491.42369","Mapping"
"Blocked","m150","done","23","m150bluff.wav","space","443.118778523","145","137966.07226","NA","NA","NA","NA","NA","NA","NA","138733.084593","139482.130562","140248.812388","141015.834615","NA","NA","NA","NA","140258.094386","Mapping"
"Blocked","m150","done","23","m150romp.wav","None","732.678339817","145","137966.07226","NA","NA","NA","NA","NA","NA","NA","138733.084593","139482.130562","140248.812388","141015.834615","141782.444404","NA","NA","NA","141025.183084","Mapping"
"Blocked","m150","done","23","m150done.wav","None","731.453704648","145","137966.07226","NA","NA","NA","NA","NA","NA","NA","138733.084593","139482.130562","140248.812388","141015.834615","141782.444404","142548.791086","NA","NA","141791.899229","Mapping"
"Blocked","m150","done","23","m150knife.wav","space","423.079717439","145","137966.07226","NA","NA","NA","NA","NA","NA","NA","138733.084593","139482.130562","140248.812388","141015.834615","141782.444404","142548.791086","143315.644504","NA","142558.097509","Mapping"
"Blocked","m150","done","23","m150done.wav","None","728.424116503","145","137966.07226","NA","NA","NA","NA","NA","NA","NA","138733.084593","139482.130562","140248.812388","141015.834615","141782.444404","142548.791086","143315.644504","144082.530384","143325.866697","Mapping"
"Blocked","m150","done","23","m150dime.wav","space","393.360752612","145","137966.07226","144849.080813","NA","NA","NA","NA","NA","NA","138733.084593","139482.130562","140248.812388","141015.834615","141782.444404","142548.791086","143315.644504","144082.530384","144091.790122","Mapping"
"Blocked","m150","done","23","m150park.wav","None","726.297313813","145","137966.07226","144849.080813","145615.777788","NA","NA","NA","NA","NA","138733.084593","139482.130562","140248.812388","141015.834615","141782.444404","142548.791086","143315.644504","144082.530384","144858.495445","Mapping"
"Blocked","m150","done","23","m150done.wav","None","725.048872642","145","137966.07226","144849.080813","145615.777788","146382.915336","NA","NA","NA","NA","138733.084593","139482.130562","140248.812388","141015.834615","141782.444404","142548.791086","143315.644504","144082.530384","145625.07308","Mapping"
"Blocked","m150","done","23","m150jaw.wav","space","388.025660068","145","137966.07226","144849.080813","145615.777788","146382.915336","147149.230483","NA","NA","NA","138733.084593","139482.130562","140248.812388","141015.834615","141782.444404","142548.791086","143315.644504","144082.530384","146393.071676","Mapping"
"Blocked","m150","done","23","m150jolt.wav","None","721.538829152","145","137966.07226","144849.080813","145615.777788","146382.915336","147149.230483","147915.556761","NA","NA","138733.084593","139482.130562","140248.812388","141015.834615","141782.444404","142548.791086","143315.644504","144082.530384","147159.041786","Mapping"
"Blocked","m150","done","23","m150depth.wav","None","721.09300131","145","137966.07226","144849.080813","145615.777788","146382.915336","147149.230483","147915.556761","148666.262062","NA","138733.084593","139482.130562","140248.812388","141015.834615","141782.444404","142548.791086","143315.644504","144082.530384","147924.743224","Mapping"
"Blocked","m150","done","23","m150knife.wav","None","735.758631956","145","137966.07226","144849.080813","145615.777788","146382.915336","147149.230483","147915.556761","148666.262062","149432.364189","138733.084593","139482.130562","140248.812388","141015.834615","141782.444404","142548.791086","143315.644504","144082.530384","148675.609604","Mapping"
"Blocked","m150","tile","17","m150cling.wav","None","734.277692623","145","152632.847859","144849.080813","145615.777788","146382.915336","147149.230483","147915.556761","148666.262062","149432.364189","138733.084593","139482.130562","140248.812388","141015.834615","141782.444404","142548.791086","143315.644504","144082.530384","149442.333169","Mapping"
"Blocked","m150","tile","17","m150cave.wav","None","722.156866454","145","152632.847859","144849.080813","145615.777788","146382.915336","147149.230483","147915.556761","148666.262062","149432.364189","153398.873311","139482.130562","140248.812388","141015.834615","141782.444404","142548.791086","143315.644504","144082.530384","152642.355244","Mapping"
"Blocked","m150","tile","17","m150lash.wav","None","722.328766715","145","152632.847859","144849.080813","145615.777788","146382.915336","147149.230483","147915.556761","148666.262062","149432.364189","153398.873311","154165.870185","140248.812388","141015.834615","141782.444404","142548.791086","143315.644504","144082.530384","153407.895912","Mapping"
"Blocked","m150","tile","17","m150reek.wav","None","719.334733207","145","152632.847859","144849.080813","145615.777788","146382.915336","147149.230483","147915.556761","148666.262062","149432.364189","153398.873311","154165.870185","154915.746284","141015.834615","141782.444404","142548.791086","143315.644504","144082.530384","154176.30509","Mapping"
"Blocked","m150","tile","17","m150park.wav","None","736.288245767","145","152632.847859","144849.080813","145615.777788","146382.915336","147149.230483","147915.556761","148666.262062","149432.364189","153398.873311","154165.870185","154915.746284","155682.063286","141782.444404","142548.791086","143315.644504","144082.530384","154924.808769","Mapping"
"Blocked","m150","tile","17","m150tile.wav","None","735.476975329","145","152632.847859","144849.080813","145615.777788","146382.915336","147149.230483","147915.556761","148666.262062","149432.364189","153398.873311","154165.870185","154915.746284","155682.063286","156448.863216","142548.791086","143315.644504","144082.530384","155691.397534","Mapping"
"Blocked","m150","tile","17","m150jaw.wav","space","426.721468568","145","152632.847859","144849.080813","145615.777788","146382.915336","147149.230483","147915.556761","148666.262062","149432.364189","153398.873311","154165.870185","154915.746284","155682.063286","156448.863216","157215.518763","143315.644504","144082.530384","156458.209522","Mapping"
"Blocked","m150","tile","17","m150tile.wav","None","731.943435036","145","152632.847859","144849.080813","145615.777788","146382.915336","147149.230483","147915.556761","148666.262062","149432.364189","153398.873311","154165.870185","154915.746284","155682.063286","156448.863216","157215.518763","157982.256241","144082.530384","157225.51897","Mapping"
"Blocked","m150","tile","17","m150greet.wav","space","444.955267012","145","152632.847859","144849.080813","145615.777788","146382.915336","147149.230483","147915.556761","148666.262062","149432.364189","153398.873311","154165.870185","154915.746284","155682.063286","156448.863216","157215.518763","157982.256241","158748.874068","157991.93769","Mapping"
"Blocked","m150","tile","17","m150park.wav","None","730.31223705","145","152632.847859","159515.162626","145615.777788","146382.915336","147149.230483","147915.556761","148666.262062","149432.364189","153398.873311","154165.870185","154915.746284","155682.063286","156448.863216","157215.518763","157982.256241","158748.874068","158757.845038","Mapping"
"Blocked","m150","tile","17","m150cad.wav","None","729.525391478","145","152632.847859","159515.162626","160282.21577","146382.915336","147149.230483","147915.556761","148666.262062","149432.364189","153398.873311","154165.870185","154915.746284","155682.063286","156448.863216","157215.518763","157982.256241","158748.874068","159524.159566","Mapping"
"Blocked","m150","tile","17","m150tile.wav","None","727.365198079","145","152632.847859","159515.162626","160282.21577","161048.404774","147149.230483","147915.556761","148666.262062","149432.364189","153398.873311","154165.870185","154915.746284","155682.063286","156448.863216","157215.518763","157982.256241","158748.874068","160291.881143","Mapping"
"Blocked","m150","tile","17","m150lash.wav","space","411.668134388","145","152632.847859","159515.162626","160282.21577","161048.404774","161815.645277","147915.556761","148666.262062","149432.364189","153398.873311","154165.870185","154915.746284","155682.063286","156448.863216","157215.518763","157982.256241","158748.874068","161057.131497","Mapping"
"Blocked","m150","tile","17","m150tile.wav","None","728.453178424","145","152632.847859","159515.162626","160282.21577","161048.404774","161815.645277","162582.267433","148666.262062","149432.364189","153398.873311","154165.870185","154915.746284","155682.063286","156448.863216","157215.518763","157982.256241","158748.874068","161824.882754","Mapping"
"Blocked","m150","tile","17","m150cave.wav","space","405.021838378","145","152632.847859","159515.162626","160282.21577","161048.404774","161815.645277","162582.267433","163348.744587","149432.364189","153398.873311","154165.870185","154915.746284","155682.063286","156448.863216","157215.518763","157982.256241","158748.874068","162591.815319","Mapping"
"Blocked","m150","tile","17","m150jaw.wav","None","725.68453243","145","152632.847859","159515.162626","160282.21577","161048.404774","161815.645277","162582.267433","163348.744587","164115.504634","153398.873311","154165.870185","154915.746284","155682.063286","156448.863216","157215.518763","157982.256241","158748.874068","163358.686669","Mapping"
"Blocked","m150","ball","2","m150cling.wav","None","725.04608985","145","167249.023553","159515.162626","160282.21577","161048.404774","161815.645277","162582.267433","163348.744587","164115.504634","153398.873311","154165.870185","154915.746284","155682.063286","156448.863216","157215.518763","157982.256241","158748.874068","164124.860215","Mapping"
"Blocked","m150","ball","2","m150cave.wav","None","721.894687507","145","167249.023553","159515.162626","160282.21577","161048.404774","161815.645277","162582.267433","163348.744587","164115.504634","168015.707853","154165.870185","154915.746284","155682.063286","156448.863216","157215.518763","157982.256241","158748.874068","167258.651207","Mapping"
"Blocked","m150","ball","2","m150ball.wav","None","720.429515932","145","167249.023553","159515.162626","160282.21577","161048.404774","161815.645277","162582.267433","163348.744587","164115.504634","168015.707853","168782.01929","154915.746284","155682.063286","156448.863216","157215.518763","157982.256241","158748.874068","168025.634477","Mapping"
"Blocked","m150","ball","2","m150romp.wav","space","389.509691391","145","167249.023553","159515.162626","160282.21577","161048.404774","161815.645277","162582.267433","163348.744587","164115.504634","168015.707853","168782.01929","169531.491918","155682.063286","156448.863216","157215.518763","157982.256241","158748.874068","168791.219976","Mapping"
"Blocked","m150","ball","2","m150depth.wav","None","736.21342564","145","167249.023553","159515.162626","160282.21577","161048.404774","161815.645277","162582.267433","163348.744587","164115.504634","168015.707853","168782.01929","169531.491918","170298.462512","156448.863216","157215.518763","157982.256241","158748.874068","169540.542036","Mapping"
"Blocked","m150","ball","2","m150jaw.wav","None","734.376009554","145","167249.023553","159515.162626","160282.21577","161048.404774","161815.645277","162582.267433","163348.744587","164115.504634","168015.707853","168782.01929","169531.491918","170298.462512","171065.272646","157215.518763","157982.256241","158748.874068","170307.658869","Mapping"
"Blocked","m150","ball","2","m150ball.wav","None","732.428218238","145","167249.023553","159515.162626","160282.21577","161048.404774","161815.645277","162582.267433","163348.744587","164115.504634","168015.707853","168782.01929","169531.491918","170298.462512","171065.272646","171832.058045","157982.256241","158748.874068","171075.234516","Mapping"
"Blocked","m150","ball","2","m150bluff.wav","space","499.29771293","145","167249.023553","159515.162626","160282.21577","161048.404774","161815.645277","162582.267433","163348.744587","164115.504634","168015.707853","168782.01929","169531.491918","170298.462512","171065.272646","171832.058045","172598.300846","158748.874068","171841.351792","Mapping"
"Blocked","m150","ball","2","m150ball.wav","None","730.702104513","145","167249.023553","159515.162626","160282.21577","161048.404774","161815.645277","162582.267433","163348.744587","164115.504634","168015.707853","168782.01929","169531.491918","170298.462512","171065.272646","171832.058045","172598.300846","173365.374085","172607.440315","Mapping"
"Blocked","m150","ball","2","m150priest.wav","space","582.141290419","145","167249.023553","174131.96687","160282.21577","161048.404774","161815.645277","162582.267433","163348.744587","164115.504634","168015.707853","168782.01929","169531.491918","170298.462512","171065.272646","171832.058045","172598.300846","173365.374085","173374.50768","Mapping"
"Blocked","m150","ball","2","m150ball.wav","None","727.570180316","145","167249.023553","174131.96687","174898.525027","161048.404774","161815.645277","162582.267433","163348.744587","164115.504634","168015.707853","168782.01929","169531.491918","170298.462512","171065.272646","171832.058045","172598.300846","173365.374085","174141.569171","Mapping"
"Blocked","m150","ball","2","m150priest.wav","space","488.879194483","145","167249.023553","174131.96687","174898.525027","175665.135126","161815.645277","162582.267433","163348.744587","164115.504634","168015.707853","168782.01929","169531.491918","170298.462512","171065.272646","171832.058045","172598.300846","173365.374085","174907.688921","Mapping"
"Blocked","m150","ball","2","m150tile.wav","None","724.931695964","145","167249.023553","174131.96687","174898.525027","175665.135126","176432.358623","162582.267433","163348.744587","164115.504634","168015.707853","168782.01929","169531.491918","170298.462512","171065.272646","171832.058045","172598.300846","173365.374085","175674.861096","Mapping"
"Blocked","m150","ball","2","m150lash.wav","None","722.905993462","145","167249.023553","174131.96687","174898.525027","175665.135126","176432.358623","177198.936877","163348.744587","164115.504634","168015.707853","168782.01929","169531.491918","170298.462512","171065.272646","171832.058045","172598.300846","173365.374085","176442.262987","Mapping"
"Blocked","m150","ball","2","m150jolt.wav","None","721.987439319","145","167249.023553","174131.96687","174898.525027","175665.135126","176432.358623","177198.936877","177965.100838","164115.504634","168015.707853","168782.01929","169531.491918","170298.462512","171065.272646","171832.058045","172598.300846","173365.374085","177208.761164","Mapping"
"Blocked","m150","ball","2","m150lash.wav","None","722.065042239","145","167249.023553","174131.96687","174898.525027","175665.135126","176432.358623","177198.936877","177965.100838","178731.780501","168015.707853","168782.01929","169531.491918","170298.462512","171065.272646","171832.058045","172598.300846","173365.374085","177974.256075","Mapping"
"Blocked","m150","done","19","m150depth.wav","None","720.901314169","145","181848.645806","174131.96687","174898.525027","175665.135126","176432.358623","177198.936877","177965.100838","178731.780501","168015.707853","168782.01929","169531.491918","170298.462512","171065.272646","171832.058045","172598.300846","173365.374085","178740.894308","Mapping"
"Blocked","m150","done","19","m150depth.wav","None","721.320243552","145","181848.645806","174131.96687","174898.525027","175665.135126","176432.358623","177198.936877","177965.100838","178731.780501","182615.543126","168782.01929","169531.491918","170298.462512","171065.272646","171832.058045","172598.300846","173365.374085","181859.115338","Mapping"
"Blocked","m150","done","19","m150done.wav","None","720.512992702","145","181848.645806","174131.96687","174898.525027","175665.135126","176432.358623","177198.936877","177965.100838","178731.780501","182615.543126","183381.73213","169531.491918","170298.462512","171065.272646","171832.058045","172598.300846","173365.374085","182625.412243","Mapping"
"Blocked","m150","done","19","m150lash.wav","space","541.4986182","145","181848.645806","174131.96687","174898.525027","175665.135126","176432.358623","177198.936877","177965.100838","178731.780501","182615.543126","183381.73213","184131.227946","170298.462512","171065.272646","171832.058045","172598.300846","173365.374085","183390.964351","Mapping"
"Blocked","m150","done","19","m150done.wav","None","736.091302708","145","181848.645806","174131.96687","174898.525027","175665.135126","176432.358623","177198.936877","177965.100838","178731.780501","182615.543126","183381.73213","184131.227946","184898.166077","171065.272646","171832.058045","172598.300846","173365.374085","184140.286102","Mapping"
"Blocked","m150","done","19","m150park.wav","space","513.084982522","145","181848.645806","174131.96687","174898.525027","175665.135126","176432.358623","177198.936877","177965.100838","178731.780501","182615.543126","183381.73213","184131.227946","184898.166077","185664.970336","171832.058045","172598.300846","173365.374085","184907.327807","Mapping"
"Blocked","m150","done","19","m150lash.wav","None","732.574766502","145","181848.645806","174131.96687","174898.525027","175665.135126","176432.358623","177198.936877","177965.100838","178731.780501","182615.543126","183381.73213","184131.227946","184898.166077","185664.970336","186431.738731","172598.300846","173365.374085","185674.384042","Mapping"
"Blocked","m150","done","19","m150bluff.wav","None","731.17390275","145","181848.645806","174131.96687","174898.525027","175665.135126","176432.358623","177198.936877","177965.100838","178731.780501","182615.543126","183381.73213","184131.227946","184898.166077","185664.970336","186431.738731","187198.330279","173365.374085","186441.454499","Mapping"
"Blocked","m150","done","19","m150done.wav","None","730.906159151","145","181848.645806","174131.96687","174898.525027","175665.135126","176432.358623","177198.936877","177965.100838","178731.780501","182615.543126","183381.73213","184131.227946","184898.166077","185664.970336","186431.738731","187198.330279","187964.744362","187207.380088","Mapping"
"Blocked","m150","done","19","m150romp.wav","space","398.415734991","145","181848.645806","188731.77308","174898.525027","175665.135126","176432.358623","177198.936877","177965.100838","178731.780501","182615.543126","183381.73213","184131.227946","184898.166077","185664.970336","186431.738731","187198.330279","187964.744362","187973.94381","Mapping"
"Blocked","m150","done","19","m150done.wav","None","727.454858832","145","181848.645806","188731.77308","189498.26662","175665.135126","176432.358623","177198.936877","177965.100838","178731.780501","182615.543126","183381.73213","184131.227946","184898.166077","185664.970336","186431.738731","187198.330279","187964.744362","188741.433197","Mapping"
"Blocked","m150","done","19","m150priest.wav","space","464.17903807","145","181848.645806","188731.77308","189498.26662","190264.590115","176432.358623","177198.936877","177965.100838","178731.780501","182615.543126","183381.73213","184131.227946","184898.166077","185664.970336","186431.738731","187198.330279","187964.744362","189508.162327","Mapping"
"Blocked","m150","done","19","m150ball.wav","None","726.10315308","145","181848.645806","188731.77308","189498.26662","190264.590115","191032.049203","177198.936877","177965.100838","178731.780501","182615.543126","183381.73213","184131.227946","184898.166077","185664.970336","186431.738731","187198.330279","187964.744362","190273.611171","Mapping"
"Blocked","m150","done","19","m150romp.wav","None","723.441789858","145","181848.645806","188731.77308","189498.26662","190264.590115","191032.049203","191798.655591","177965.100838","178731.780501","182615.543126","183381.73213","184131.227946","184898.166077","185664.970336","186431.738731","187198.330279","187964.744362","191041.865143","Mapping"
"Blocked","m150","done","19","m150dime.wav","None","722.547352314","145","181848.645806","188731.77308","189498.26662","190264.590115","191032.049203","191798.655591","192565.423058","178731.780501","182615.543126","183381.73213","184131.227946","184898.166077","185664.970336","186431.738731","187198.330279","187964.744362","191808.16916","Mapping"
"Blocked","m150","done","19","m150cad.wav","None","721.241404302","145","181848.645806","188731.77308","189498.26662","190264.590115","191032.049203","191798.655591","192565.423058","193331.879807","182615.543126","183381.73213","184131.227946","184898.166077","185664.970336","186431.738731","187198.330279","187964.744362","192575.111001","Mapping"
"Blocked","m150","cave","9","m150cad.wav","None","720.563078299","145","196448.458199","188731.77308","189498.26662","190264.590115","191032.049203","191798.655591","192565.423058","193331.879807","182615.543126","183381.73213","184131.227946","184898.166077","185664.970336","186431.738731","187198.330279","187964.744362","193341.146346","Mapping"
"Blocked","m150","cave","9","m150romp.wav","None","721.70671029","145","196448.458199","188731.77308","189498.26662","190264.590115","191032.049203","191798.655591","192565.423058","193331.879807","197215.112819","183381.73213","184131.227946","184898.166077","185664.970336","186431.738731","187198.330279","187964.744362","196458.49458","Mapping"
"Blocked","m150","cave","9","m150jolt.wav","None","720.513611101","145","196448.458199","188731.77308","189498.26662","190264.590115","191032.049203","191798.655591","192565.423058","193331.879807","197215.112819","197981.512988","184131.227946","184898.166077","185664.970336","186431.738731","187198.330279","187964.744362","197225.362219","Mapping"
"Blocked","m150","cave","9","m150ball.wav","None","720.867923461","145","196448.458199","188731.77308","189498.26662","190264.590115","191032.049203","191798.655591","192565.423058","193331.879807","197215.112819","197981.512988","198748.456684","184898.166077","185664.970336","186431.738731","187198.330279","187964.744362","197990.844454","Mapping"
"Blocked","m150","cave","9","m150cave.wav","None","719.168707728","145","196448.458199","188731.77308","189498.26662","190264.590115","191032.049203","191798.655591","192565.423058","193331.879807","197215.112819","197981.512988","198748.456684","199497.890975","185664.970336","186431.738731","187198.330279","187964.744362","198758.0797","Mapping"
"Blocked","m150","cave","9","m150done.wav","space","544.918383006","145","196448.458199","188731.77308","189498.26662","190264.590115","191032.049203","191798.655591","192565.423058","193331.879807","197215.112819","197981.512988","198748.456684","199497.890975","200264.690905","186431.738731","187198.330279","187964.744362","199507.212856","Mapping"
"Blocked","m150","cave","9","m150priest.wav","None","733.274116646","145","196448.458199","188731.77308","189498.26662","190264.590115","191032.049203","191798.655591","192565.423058","193331.879807","197215.112819","197981.512988","198748.456684","199497.890975","200264.690905","201031.521753","187198.330279","187964.744362","200274.698842","Mapping"
"Blocked","m150","cave","9","m150tile.wav","None","732.70183662","145","196448.458199","188731.77308","189498.26662","190264.590115","191032.049203","191798.655591","192565.423058","193331.879807","197215.112819","197981.512988","198748.456684","199497.890975","200264.690905","201031.521753","201797.999525","187964.744362","201040.885373","Mapping"
"Blocked","m150","cave","9","m150done.wav","None","732.001559343","145","196448.458199","188731.77308","189498.26662","190264.590115","191032.049203","191798.655591","192565.423058","193331.879807","197215.112819","197981.512988","198748.456684","199497.890975","200264.690905","201031.521753","201797.999525","202564.660019","201807.028929","Mapping"
"Blocked","m150","cave","9","m150cave.wav","None","730.373453349","145","196448.458199","203331.461187","189498.26662","190264.590115","191032.049203","191798.655591","192565.423058","193331.879807","197215.112819","197981.512988","198748.456684","199497.890975","200264.690905","201031.521753","201797.999525","202564.660019","202574.224601","Mapping"
"Blocked","m150","cave","9","m150depth.wav","space","447.190589737","145","196448.458199","203331.461187","204098.009759","190264.590115","191032.049203","191798.655591","192565.423058","193331.879807","197215.112819","197981.512988","198748.456684","199497.890975","200264.690905","201031.521753","201797.999525","202564.660019","203340.899626","Mapping"
"Blocked","m150","cave","9","m150cave.wav","None","715.678760316","145","196448.458199","203331.461187","204098.009759","204864.737034","191032.049203","191798.655591","192565.423058","193331.879807","197215.112819","197981.512988","198748.456684","199497.890975","200264.690905","201031.521753","201797.999525","202564.660019","204119.417839","Mapping"
"Blocked","m150","cave","9","m150bluff.wav","space","546.046246774","145","196448.458199","203331.461187","204098.009759","204864.737034","205631.440812","191798.655591","192565.423058","193331.879807","197215.112819","197981.512988","198748.456684","199497.890975","200264.690905","201031.521753","201797.999525","202564.660019","204874.033563","Mapping"
"Blocked","m150","cave","9","m150cave.wav","None","723.614927381","145","196448.458199","203331.461187","204098.009759","204864.737034","205631.440812","206398.409242","192565.423058","193331.879807","197215.112819","197981.512988","198748.456684","199497.890975","200264.690905","201031.521753","201797.999525","202564.660019","205642.403475","Mapping"
"Blocked","m150","cave","9","m150greet.wav","space","403.99229154","145","196448.458199","203331.461187","204098.009759","204864.737034","205631.440812","206398.409242","207165.141773","193331.879807","197215.112819","197981.512988","198748.456684","199497.890975","200264.690905","201031.521753","201797.999525","202564.660019","206464.020123","Mapping"
"Blocked","m150","cave","9","m150jaw.wav","None","721.807500813","145","196448.458199","203331.461187","204098.009759","204864.737034","205631.440812","206398.409242","207165.141773","207931.809068","197215.112819","197981.512988","198748.456684","199497.890975","200264.690905","201031.521753","201797.999525","202564.660019","207174.714084","Mapping"
"Blocked","m150","tile","16","m150cave.wav","None","720.681800973","145","211048.089727","203331.461187","204098.009759","204864.737034","205631.440812","206398.409242","207165.141773","207931.809068","197215.112819","197981.512988","198748.456684","199497.890975","200264.690905","201031.521753","201797.999525","202564.660019","207941.544005","Mapping"
"Blocked","m150","tile","16","m150romp.wav","None","721.506056841","145","211048.089727","203331.461187","204098.009759","204864.737034","205631.440812","206398.409242","207165.141773","207931.809068","211814.409821","197981.512988","198748.456684","199497.890975","200264.690905","201031.521753","201797.999525","202564.660019","211058.504845","Mapping"
"Blocked","m150","tile","16","m150park.wav","None","722.483662423","145","211048.089727","203331.461187","204098.009759","204864.737034","205631.440812","206398.409242","207165.141773","207931.809068","211814.409821","212581.622498","198748.456684","199497.890975","200264.690905","201031.521753","201797.999525","202564.660019","211823.369351","Mapping"
"Blocked","m150","tile","16","m150greet.wav","None","720.71890207","145","211048.089727","203331.461187","204098.009759","204864.737034","205631.440812","206398.409242","207165.141773","207931.809068","211814.409821","212581.622498","213347.805628","199497.890975","200264.690905","201031.521753","201797.999525","202564.660019","212591.177186","Mapping"
"Blocked","m150","tile","16","m150dime.wav","None","721.525844187","145","211048.089727","203331.461187","204098.009759","204864.737034","205631.440812","206398.409242","207165.141773","207931.809068","211814.409821","212581.622498","213347.805628","214114.329157","200264.690905","201031.521753","201797.999525","202564.660019","213356.604388","Mapping"
"Blocked","m150","tile","16","m150tile.wav","None","720.739925746","145","211048.089727","203331.461187","204098.009759","204864.737034","205631.440812","206398.409242","207165.141773","207931.809068","211814.409821","212581.622498","213347.805628","214114.329157","214864.416731","201031.521753","201797.999525","202564.660019","214123.236437","Mapping"
"Blocked","m150","tile","16","m150dime.wav","space","465.736343991","145","211048.089727","203331.461187","204098.009759","204864.737034","205631.440812","206398.409242","207165.141773","207931.809068","211814.409821","212581.622498","213347.805628","214114.329157","214864.416731","215631.019409","201797.999525","202564.660019","214874.122296","Mapping"
"Blocked","m150","tile","16","m150tile.wav","None","735.111532733","145","211048.089727","203331.461187","204098.009759","204864.737034","205631.440812","206398.409242","207165.141773","207931.809068","211814.409821","212581.622498","213347.805628","214114.329157","214864.416731","215631.019409","216397.61714","202564.660019","215639.675331","Mapping"
"Blocked","m150","tile","16","m150bluff.wav","space","453.362304717","145","211048.089727","203331.461187","204098.009759","204864.737034","205631.440812","206398.409242","207165.141773","207931.809068","211814.409821","212581.622498","213347.805628","214114.329157","214864.416731","215631.019409","216397.61714","217164.648023","216406.473407","Mapping"
"Blocked","m150","tile","16","m150tile.wav","None","732.079471461","145","211048.089727","217930.919268","204098.009759","204864.737034","205631.440812","206398.409242","207165.141773","207931.809068","211814.409821","212581.622498","213347.805628","214114.329157","214864.416731","215631.019409","216397.61714","217164.648023","217173.704324","Mapping"
"Blocked","m150","tile","16","m150greet.wav","space","512.051107828","145","211048.089727","217930.919268","218697.73342","204864.737034","205631.440812","206398.409242","207165.141773","207931.809068","211814.409821","212581.622498","213347.805628","214114.329157","214864.416731","215631.019409","216397.61714","217164.648023","217939.773988","Mapping"
"Blocked","m150","tile","16","m150done.wav","None","730.34191737","145","211048.089727","217930.919268","218697.73342","219464.087832","205631.440812","206398.409242","207165.141773","207931.809068","211814.409821","212581.622498","213347.805628","214114.329157","214864.416731","215631.019409","216397.61714","217164.648023","218706.716757","Mapping"
"Blocked","m150","tile","16","m150cave.wav","None","730.063661933","145","211048.089727","217930.919268","218697.73342","219464.087832","220230.833658","206398.409242","207165.141773","207931.809068","211814.409821","212581.622498","213347.805628","214114.329157","214864.416731","215631.019409","216397.61714","217164.648023","219472.749629","Mapping"
"Blocked","m150","tile","16","m150tile.wav","None","729.282690212","145","211048.089727","217930.919268","218697.73342","219464.087832","220230.833658","220997.716756","207165.141773","207931.809068","211814.409821","212581.622498","213347.805628","214114.329157","214864.416731","215631.019409","216397.61714","217164.648023","220239.435165","Mapping"
"Blocked","m150","tile","16","m150jaw.wav","space","460.976931732","145","211048.089727","217930.919268","218697.73342","219464.087832","220230.833658","220997.716756","221764.408785","207931.809068","211814.409821","212581.622498","213347.805628","214114.329157","214864.416731","215631.019409","216397.61714","217164.648023","221006.803356","Mapping"
"Blocked","m150","tile","16","m150park.wav","None","725.920122582","145","211048.089727","217930.919268","218697.73342","219464.087832","220230.833658","220997.716756","221764.408785","222531.210261","211814.409821","212581.622498","213347.805628","214114.329157","214864.416731","215631.019409","216397.61714","217164.648023","221773.666976","Mapping"
"Blocked","m150","cave","12","m150tile.wav","None","724.651584867","145","225664.583561","217930.919268","218697.73342","219464.087832","220230.833658","220997.716756","221764.408785","222531.210261","211814.409821","212581.622498","213347.805628","214114.329157","214864.416731","215631.019409","216397.61714","217164.648023","222540.727849","Mapping"
"Blocked","m150","cave","12","m150cave.wav","None","721.523679793","145","225664.583561","217930.919268","218697.73342","219464.087832","220230.833658","220997.716756","221764.408785","222531.210261","226431.527875","212581.622498","213347.805628","214114.329157","214864.416731","215631.019409","216397.61714","217164.648023","225674.23502","Mapping"
"Blocked","m150","cave","12","m150done.wav","space","474.476979114","145","225664.583561","217930.919268","218697.73342","219464.087832","220230.833658","220997.716756","221764.408785","222531.210261","226431.527875","227181.571236","213347.805628","214114.329157","214864.416731","215631.019409","216397.61714","217164.648023","226441.182427","Mapping"
"Blocked","m150","cave","12","m150ball.wav","None","735.811810009","145","225664.583561","217930.919268","218697.73342","219464.087832","220230.833658","220997.716756","221764.408785","222531.210261","226431.527875","227181.571236","227947.433445","214114.329157","214864.416731","215631.019409","216397.61714","217164.648023","227190.628774","Mapping"
"Blocked","m150","cave","12","m150greet.wav","None","735.509129241","145","225664.583561","217930.919268","218697.73342","219464.087832","220230.833658","220997.716756","221764.408785","222531.210261","226431.527875","227181.571236","227947.433445","228714.079098","214864.416731","215631.019409","216397.61714","217164.648023","227956.648352","Mapping"
"Blocked","m150","cave","12","m150tile.wav","None","735.054953955","145","225664.583561","217930.919268","218697.73342","219464.087832","220230.833658","220997.716756","221764.408785","222531.210261","226431.527875","227181.571236","227947.433445","228714.079098","229480.99095","215631.019409","216397.61714","217164.648023","228723.184867","Mapping"
"Blocked","m150","cave","12","m150park.wav","None","733.859999571","145","225664.583561","217930.919268","218697.73342","219464.087832","220230.833658","220997.716756","221764.408785","222531.210261","226431.527875","227181.571236","227947.433445","228714.079098","229480.99095","230247.536121","216397.61714","217164.648023","229490.150824","Mapping"
"Blocked","m150","cave","12","m150greet.wav","None","733.242271468","145","225664.583561","217930.919268","218697.73342","219464.087832","220230.833658","220997.716756","221764.408785","222531.210261","226431.527875","227181.571236","227947.433445","228714.079098","229480.99095","230247.536121","231014.229696","217164.648023","230256.585312","Mapping"
"Blocked","m150","cave","12","m150cave.wav","None","732.516642194","145","225664.583561","217930.919268","218697.73342","219464.087832","220230.833658","220997.716756","221764.408785","222531.210261","226431.527875","227181.571236","227947.433445","228714.079098","229480.99095","230247.536121","231014.229696","231780.840104","231023.463463","Mapping"
"Blocked","m150","cave","12","m150greet.wav","space","495.14737213","145","225664.583561","232547.223269","218697.73342","219464.087832","220230.833658","220997.716756","221764.408785","222531.210261","226431.527875","227181.571236","227947.433445","228714.079098","229480.99095","230247.536121","231014.229696","231780.840104","231796.41625","Mapping"
"Blocked","m150","cave","12","m150bluff.wav","None","737.021604553","145","225664.583561","232547.223269","233314.268065","219464.087832","220230.833658","220997.716756","221764.408785","222531.210261","226431.527875","227181.571236","227947.433445","228714.079098","229480.99095","230247.536121","231014.229696","231780.840104","232550.436506","Mapping"
"Blocked","m150","cave","12","m150tile.wav","None","729.867646005","145","225664.583561","232547.223269","233314.268065","234080.878163","220230.833658","220997.716756","221764.408785","222531.210261","226431.527875","227181.571236","227947.433445","228714.079098","229480.99095","230247.536121","231014.229696","231780.840104","233323.283555","Mapping"
"Blocked","m150","cave","12","m150cave.wav","None","728.933324572","145","225664.583561","232547.223269","233314.268065","234080.878163","234847.473112","220997.716756","221764.408785","222531.210261","226431.527875","227181.571236","227947.433445","228714.079098","229480.99095","230247.536121","231014.229696","231780.840104","234089.95116","Mapping"
"Blocked","m150","cave","12","m150bluff.wav","space","410.520174541","145","225664.583561","232547.223269","233314.268065","234080.878163","234847.473112","235614.197604","221764.408785","222531.210261","226431.527875","227181.571236","227947.433445","228714.079098","229480.99095","230247.536121","231014.229696","231780.840104","234856.974932","Mapping"
"Blocked","m150","cave","12","m150cave.wav","None","726.605559699","145","225664.583561","232547.223269","233314.268065","234080.878163","234847.473112","235614.197604","236380.869537","222531.210261","226431.527875","227181.571236","227947.433445","228714.079098","229480.99095","230247.536121","231014.229696","231780.840104","235623.302137","Mapping"
"Blocked","m150","cave","12","m150park.wav","space","517.244289629","145","225664.583561","232547.223269","233314.268065","234080.878163","234847.473112","235614.197604","236380.869537","237147.797156","226431.527875","227181.571236","227947.433445","228714.079098","229480.99095","230247.536121","231014.229696","231780.840104","236390.221717","Mapping"
"Blocked","m150","ball","4","m150lash.wav","None","723.337289412","145","240281.25857","232547.223269","233314.268065","234080.878163","234847.473112","235614.197604","236380.869537","237147.797156","226431.527875","227181.571236","227947.433445","228714.079098","229480.99095","230247.536121","231014.229696","231780.840104","237157.307633","Mapping"
"Blocked","m150","ball","4","m150ball.wav","None","721.946937963","145","240281.25857","232547.223269","233314.268065","234080.878163","234847.473112","235614.197604","236380.869537","237147.797156","241047.685328","227181.571236","227947.433445","228714.079098","229480.99095","230247.536121","231014.229696","231780.840104","240290.488317","Mapping"
"Blocked","m150","ball","4","m150cave.wav","space","474.120502826","145","240281.25857","232547.223269","233314.268065","234080.878163","234847.473112","235614.197604","236380.869537","237147.797156","241047.685328","241814.368701","227947.433445","228714.079098","229480.99095","230247.536121","231014.229696","231780.840104","241057.296905","Mapping"
"Blocked","m150","ball","4","m150dime.wav","None","720.465380233","145","240281.25857","232547.223269","233314.268065","234080.878163","234847.473112","235614.197604","236380.869537","237147.797156","241047.685328","241814.368701","242581.200785","228714.079098","229480.99095","230247.536121","231014.229696","231780.840104","241823.962345","Mapping"
"Blocked","m150","ball","4","m150depth.wav","None","719.212919008","145","240281.25857","232547.223269","233314.268065","234080.878163","234847.473112","235614.197604","236380.869537","237147.797156","241047.685328","241814.368701","242581.200785","243347.648568","229480.99095","230247.536121","231014.229696","231780.840104","242591.178732","Mapping"
"Blocked","m150","ball","4","m150ball.wav","None","719.609279186","145","240281.25857","232547.223269","233314.268065","234080.878163","234847.473112","235614.197604","236380.869537","237147.797156","241047.685328","241814.368701","242581.200785","243347.648568","244097.258159","230247.536121","231014.229696","231780.840104","243357.202638","Mapping"
"Blocked","m150","ball","4","m150bluff.wav","space","449.400559533","145","240281.25857","232547.223269","233314.268065","234080.878163","234847.473112","235614.197604","236380.869537","237147.797156","241047.685328","241814.368701","242581.200785","243347.648568","244097.258159","244863.780143","231014.229696","231780.840104","244105.949636","Mapping"
"Blocked","m150","ball","4","m150cling.wav","None","735.174294561","145","240281.25857","232547.223269","233314.268065","234080.878163","234847.473112","235614.197604","236380.869537","237147.797156","241047.685328","241814.368701","242581.200785","243347.648568","244097.258159","244863.780143","245630.657985","231780.840104","244873.091512","Mapping"
"Blocked","m150","ball","4","m150ball.wav","None","734.399506822","145","240281.25857","232547.223269","233314.268065","234080.878163","234847.473112","235614.197604","236380.869537","237147.797156","241047.685328","241814.368701","242581.200785","243347.648568","244097.258159","244863.780143","245630.657985","246397.463172","245639.794054","Mapping"
"Blocked","m150","ball","4","m150reek.wav","space","660.338921938","145","240281.25857","247163.949601","233314.268065","234080.878163","234847.473112","235614.197604","236380.869537","237147.797156","241047.685328","241814.368701","242581.200785","243347.648568","244097.258159","244863.780143","245630.657985","246397.463172","246406.962209","Mapping"
"Blocked","m150","ball","4","m150reek.wav","None","731.773080304","145","240281.25857","247163.949601","247930.655234","234080.878163","234847.473112","235614.197604","236380.869537","237147.797156","241047.685328","241814.368701","242581.200785","243347.648568","244097.258159","244863.780143","245630.657985","246397.463172","247173.318167","Mapping"
"Blocked","m150","ball","4","m150gnash.wav","None","731.243157294","145","240281.25857","247163.949601","247930.655234","248697.188039","234847.473112","235614.197604","236380.869537","237147.797156","241047.685328","241814.368701","242581.200785","243347.648568","244097.258159","244863.780143","245630.657985","246397.463172","247939.737197","Mapping"
"Blocked","m150","ball","4","m150reek.wav","None","730.641197413","145","240281.25857","247163.949601","247930.655234","248697.188039","249463.923661","235614.197604","236380.869537","237147.797156","241047.685328","241814.368701","242581.200785","243347.648568","244097.258159","244863.780143","245630.657985","246397.463172","248706.249905","Mapping"
"Blocked","m150","ball","4","m150ball.wav","None","729.692654219","145","240281.25857","247163.949601","247930.655234","248697.188039","249463.923661","250230.246847","236380.869537","237147.797156","241047.685328","241814.368701","242581.200785","243347.648568","244097.258159","244863.780143","245630.657985","246397.463172","249473.233175","Mapping"
"Blocked","m150","ball","4","m150dime.wav","space","420.175344218","145","240281.25857","247163.949601","247930.655234","248697.188039","249463.923661","250230.246847","250997.193325","237147.797156","241047.685328","241814.368701","242581.200785","243347.648568","244097.258159","244863.780143","245630.657985","246397.463172","250239.085181","Mapping"
"Blocked","m150","ball","4","m150reek.wav","None","727.288523223","145","240281.25857","247163.949601","247930.655234","248697.188039","249463.923661","250230.246847","250997.193325","251763.815791","241047.685328","241814.368701","242581.200785","243347.648568","244097.258159","244863.780143","245630.657985","246397.463172","251006.763782","Mapping"
"Blocked","m150","tile","14","m150done.wav","None","726.61514394","145","254897.430554","247163.949601","247930.655234","248697.188039","249463.923661","250230.246847","250997.193325","251763.815791","241047.685328","241814.368701","242581.200785","243347.648568","244097.258159","244863.780143","245630.657985","246397.463172","251773.249283","Mapping"
"Blocked","m150","tile","14","m150tile.wav","None","722.244980745","145","254897.430554","247163.949601","247930.655234","248697.188039","249463.923661","250230.246847","250997.193325","251763.815791","255663.624196","241814.368701","242581.200785","243347.648568","244097.258159","244863.780143","245630.657985","246397.463172","254907.033783","Mapping"
"Blocked","m150","tile","14","m150bluff.wav","space","538.606921211","145","254897.430554","247163.949601","247930.655234","248697.188039","249463.923661","250230.246847","250997.193325","251763.815791","255663.624196","256430.202759","242581.200785","243347.648568","244097.258159","244863.780143","245630.657985","246397.463172","255672.540133","Mapping"
"Blocked","m150","tile","14","m150gnash.wav","None","724.554504734","145","254897.430554","247163.949601","247930.655234","248697.188039","249463.923661","250230.246847","250997.193325","251763.815791","255663.624196","256430.202759","257196.985994","243347.648568","244097.258159","244863.780143","245630.657985","246397.463172","256438.945558","Mapping"
"Blocked","m150","tile","14","m150tile.wav","None","723.78280852","145","254897.430554","247163.949601","247930.655234","248697.188039","249463.923661","250230.246847","250997.193325","251763.815791","255663.624196","256430.202759","257196.985994","257963.990597","244097.258159","244863.780143","245630.657985","246397.463172","257205.829275","Mapping"
"Blocked","m150","tile","14","m150dime.wav","space","565.191488247","145","254897.430554","247163.949601","247930.655234","248697.188039","249463.923661","250230.246847","250997.193325","251763.815791","255663.624196","256430.202759","257196.985994","257963.990597","258730.958409","244863.780143","245630.657985","246397.463172","257973.886922","Mapping"
"Blocked","m150","tile","14","m150jaw.wav","None","720.440336503","145","254897.430554","247163.949601","247930.655234","248697.188039","249463.923661","250230.246847","250997.193325","251763.815791","255663.624196","256430.202759","257196.985994","257963.990597","258730.958409","259496.877505","245630.657985","246397.463172","258740.414471","Mapping"
"Blocked","m150","tile","14","m150tile.wav","None","721.220381092","145","254897.430554","247163.949601","247930.655234","248697.188039","249463.923661","250230.246847","250997.193325","251763.815791","255663.624196","256430.202759","257196.985994","257963.990597","258730.958409","259496.877505","260263.544182","246397.463172","259505.750776","Mapping"
"Blocked","m150","tile","14","m150jolt.wav","space","514.633322135","145","254897.430554","247163.949601","247930.655234","248697.188039","249463.923661","250230.246847","250997.193325","251763.815791","255663.624196","256430.202759","257196.985994","257963.990597","258730.958409","259496.877505","260263.544182","261013.440995","260272.402922","Mapping"
"Blocked","m150","tile","14","m150lash.wav","None","735.790167935","145","254897.430554","261780.343262","247930.655234","248697.188039","249463.923661","250230.246847","250997.193325","251763.815791","255663.624196","256430.202759","257196.985994","257963.990597","258730.958409","259496.877505","260263.544182","261013.440995","261022.535943","Mapping"
"Blocked","m150","tile","14","m150tile.wav","None","734.563059639","145","254897.430554","261780.343262","262546.915951","248697.188039","249463.923661","250230.246847","250997.193325","251763.815791","255663.624196","256430.202759","257196.985994","257963.990597","258730.958409","259496.877505","260263.544182","261013.440995","261789.871362","Mapping"
"Blocked","m150","tile","14","m150cave.wav","space","455.088109709","145","254897.430554","261780.343262","262546.915951","263313.358168","249463.923661","250230.246847","250997.193325","251763.815791","255663.624196","256430.202759","257196.985994","257963.990597","258730.958409","259496.877505","260263.544182","261013.440995","262555.951538","Mapping"
"Blocked","m150","tile","14","m150bluff.wav","None","733.635539655","145","254897.430554","261780.343262","262546.915951","263313.358168","264080.013406","250230.246847","250997.193325","251763.815791","255663.624196","256430.202759","257196.985994","257963.990597","258730.958409","259496.877505","260263.544182","261013.440995","263322.398702","Mapping"
"Blocked","m150","tile","14","m150lash.wav","None","733.385727741","145","254897.430554","261780.343262","262546.915951","263313.358168","264080.013406","264846.75212","250997.193325","251763.815791","255663.624196","256430.202759","257196.985994","257963.990597","258730.958409","259496.877505","260263.544182","261013.440995","264088.737964","Mapping"
"Blocked","m150","tile","14","m150bluff.wav","None","732.371639926","145","254897.430554","261780.343262","262546.915951","263313.358168","264080.013406","264846.75212","265613.646967","251763.815791","255663.624196","256430.202759","257196.985994","257963.990597","258730.958409","259496.877505","260263.544182","261013.440995","264855.897463","Mapping"
"Blocked","m150","tile","14","m150greet.wav","None","731.487404555","145","254897.430554","261780.343262","262546.915951","263313.358168","264080.013406","264846.75212","265613.646967","266380.489254","255663.624196","256430.202759","257196.985994","257963.990597","258730.958409","259496.877505","260263.544182","261013.440995","265622.843632","Mapping"
"Blocked","m150","cave","11","m150dime.wav","None","730.44858221","145","269513.882959","261780.343262","262546.915951","263313.358168","264080.013406","264846.75212","265613.646967","266380.489254","255663.624196","256430.202759","257196.985994","257963.990597","258730.958409","259496.877505","260263.544182","261013.440995","266389.927694","Mapping"
"Blocked","m150","cave","11","m150jolt.wav","None","722.392765339","145","269513.882959","261780.343262","262546.915951","263313.358168","264080.013406","264846.75212","265613.646967","266380.489254","270280.69","256430.202759","257196.985994","257963.990597","258730.958409","259496.877505","260263.544182","261013.440995","269523.55637","Mapping"
"Blocked","m150","cave","11","m150cave.wav","None","721.795133781","145","269513.882959","261780.343262","262546.915951","263313.358168","264080.013406","264846.75212","265613.646967","266380.489254","270280.69","271047.13129","257196.985994","257963.990597","258730.958409","259496.877505","260263.544182","261013.440995","270290.114836","Mapping"
"Blocked","m150","cave","11","m150gnash.wav","space","402.451990638","145","269513.882959","261780.343262","262546.915951","263313.358168","264080.013406","264846.75212","265613.646967","266380.489254","270280.69","271047.13129","271813.7519","257963.990597","258730.958409","259496.877505","260263.544182","261013.440995","271056.452862","Mapping"
"Blocked","m150","cave","11","m150jaw.wav","None","719.573724549","145","269513.882959","261780.343262","262546.915951","263313.358168","264080.013406","264846.75212","265613.646967","266380.489254","270280.69","271047.13129","271813.7519","272563.903782","258730.958409","259496.877505","260263.544182","261013.440995","271823.590719","Mapping"
"Blocked","m150","cave","11","m150cave.wav","None","735.582094174","145","269513.882959","261780.343262","262546.915951","263313.358168","264080.013406","264846.75212","265613.646967","266380.489254","270280.69","271047.13129","271813.7519","272563.903782","273330.251082","259496.877505","260263.544182","261013.440995","272573.502372","Mapping"
"Blocked","m150","cave","11","m150romp.wav","None","736.291028559","145","269513.882959","261780.343262","262546.915951","263313.358168","264080.013406","264846.75212","265613.646967","266380.489254","270280.69","271047.13129","271813.7519","272563.903782","273330.251082","274096.351663","260263.544182","261013.440995","273339.351905","Mapping"
"Blocked","m150","cave","11","m150cave.wav","space","225.594099145","145","269513.882959","261780.343262","262546.915951","263313.358168","264080.013406","264846.75212","265613.646967","266380.489254","270280.69","271047.13129","271813.7519","272563.903782","273330.251082","274096.351663","274863.380382","261013.440995","274105.201437","Mapping"
"Blocked","m150","cave","11","m150knife.wav","space","634.186888579","145","269513.882959","261780.343262","262546.915951","263313.358168","264080.013406","264846.75212","265613.646967","266380.489254","270280.69","271047.13129","271813.7519","272563.903782","273330.251082","274096.351663","274863.380382","275630.147231","274872.606419","Mapping"
"Blocked","m150","cave","11","m150gnash.wav","None","732.056901325","145","269513.882959","276396.897694","262546.915951","263313.358168","264080.013406","264846.75212","265613.646967","266380.489254","270280.69","271047.13129","271813.7519","272563.903782","273330.251082","274096.351663","274863.380382","275630.147231","275639.789107","Mapping"
"Blocked","m150","cave","11","m150cave.wav","None","731.872015633","145","269513.882959","276396.897694","277163.327544","263313.358168","264080.013406","264846.75212","265613.646967","266380.489254","270280.69","271047.13129","271813.7519","272563.903782","273330.251082","274096.351663","274863.380382","275630.147231","276406.050458","Mapping"
"Blocked","m150","cave","11","m150knife.wav","space","526.007804088","145","269513.882959","276396.897694","277163.327544","277930.127784","264080.013406","264846.75212","265613.646967","266380.489254","270280.69","271047.13129","271813.7519","272563.903782","273330.251082","274096.351663","274863.380382","275630.147231","277172.73383","Mapping"
"Blocked","m150","cave","11","m150jaw.wav","None","729.917732067","145","269513.882959","276396.897694","277163.327544","277930.127784","278696.641111","264846.75212","265613.646967","266380.489254","270280.69","271047.13129","271813.7519","272563.903782","273330.251082","274096.351663","274863.380382","275630.147231","277939.258596","Mapping"
"Blocked","m150","cave","11","m150reek.wav","None","729.328757152","145","269513.882959","276396.897694","277163.327544","277930.127784","278696.641111","279463.303769","265613.646967","266380.489254","270280.69","271047.13129","271813.7519","272563.903782","273330.251082","274096.351663","274863.380382","275630.147231","278706.186215","Mapping"
"Blocked","m150","cave","11","m150cad.wav","None","729.201687034","145","269513.882959","276396.897694","277163.327544","277930.127784","278696.641111","279463.303769","280230.000127","266380.489254","270280.69","271047.13129","271813.7519","272563.903782","273330.251082","274096.351663","274863.380382","275630.147231","279472.454677","Mapping"
"Blocked","m150","cave","11","m150lash.wav","None","728.652286343","145","269513.882959","276396.897694","277163.327544","277930.127784","278696.641111","279463.303769","280230.000127","280996.625684","270280.69","271047.13129","271813.7519","272563.903782","273330.251082","274096.351663","274863.380382","275630.147231","280239.088891","Mapping"
"Blocked","m150","cave","7","m150lash.wav","None","727.621502709","145","284130.470163","276396.897694","277163.327544","277930.127784","278696.641111","279463.303769","280230.000127","280996.625684","270280.69","271047.13129","271813.7519","272563.903782","273330.251082","274096.351663","274863.380382","275630.147231","281006.223965","Mapping"
"Blocked","m150","cave","7","m150dime.wav","None","721.492143814","145","284130.470163","276396.897694","277163.327544","277930.127784","278696.641111","279463.303769","280230.000127","280996.625684","284896.933404","271047.13129","271813.7519","272563.903782","273330.251082","274096.351663","274863.380382","275630.147231","284140.22736","Mapping"
"Blocked","m150","cave","7","m150lash.wav","None","721.239549574","145","284130.470163","276396.897694","277163.327544","277930.127784","278696.641111","279463.303769","280230.000127","280996.625684","284896.933404","285663.798261","271813.7519","272563.903782","273330.251082","274096.351663","274863.380382","275630.147231","284906.565695","Mapping"
"Blocked","m150","cave","7","m150cave.wav","None","720.618420281","145","284130.470163","276396.897694","277163.327544","277930.127784","278696.641111","279463.303769","280230.000127","280996.625684","284896.933404","285663.798261","286430.321172","272563.903782","273330.251082","274096.351663","274863.380382","275630.147231","285673.296989","Mapping"
"Blocked","m150","cave","7","m150romp.wav","space","434.184909333","145","284130.470163","276396.897694","277163.327544","277930.127784","278696.641111","279463.303769","280230.000127","280996.625684","284896.933404","285663.798261","286430.321172","287179.675695","273330.251082","274096.351663","274863.380382","275630.147231","286440.410421","Mapping"
"Blocked","m150","cave","7","m150lash.wav","None","736.536202487","145","284130.470163","276396.897694","277163.327544","277930.127784","278696.641111","279463.303769","280230.000127","280996.625684","284896.933404","285663.798261","286430.321172","287179.675695","287946.076175","274096.351663","274863.380382","275630.147231","287188.508774","Mapping"
"Blocked","m150","cave","7","m150knife.wav","None","736.169213895","145","284130.470163","276396.897694","277163.327544","277930.127784","278696.641111","279463.303769","280230.000127","280996.625684","284896.933404","285663.798261","286430.321172","287179.675695","287946.076175","288712.834676","274863.380382","275630.147231","287954.982836","Mapping"
"Blocked","m150","cave","7","m150done.wav","None","735.998241231","145","284130.470163","276396.897694","277163.327544","277930.127784","278696.641111","279463.303769","280230.000127","280996.625684","284896.933404","285663.798261","286430.321172","287179.675695","287946.076175","288712.834676","289479.773735","275630.147231","288721.660643","Mapping"
"Blocked","m150","cave","7","m150priest.wav","None","734.853064176","145","284130.470163","276396.897694","277163.327544","277930.127784","278696.641111","279463.303769","280230.000127","280996.625684","284896.933404","285663.798261","286430.321172","287179.675695","287946.076175","288712.834676","289479.773735","290246.379504","289488.8996","Mapping"
"Blocked","m150","cave","7","m150cave.wav","None","734.396415297","145","284130.470163","291013.171705","277163.327544","277930.127784","278696.641111","279463.303769","280230.000127","280996.625684","284896.933404","285663.798261","286430.321172","287179.675695","287946.076175","288712.834676","289479.773735","290246.379504","290255.305334","Mapping"
"Blocked","m150","cave","7","m150priest.wav","space","636.173944455","145","284130.470163","291013.171705","291779.930516","277930.127784","278696.641111","279463.303769","280230.000127","280996.625684","284896.933404","285663.798261","286430.321172","287179.675695","287946.076175","288712.834676","289479.773735","290246.379504","291022.319522","Mapping"
"Blocked","m150","cave","7","m150cave.wav","None","731.453395449","145","284130.470163","291013.171705","291779.930516","292546.404578","278696.641111","279463.303769","280230.000127","280996.625684","284896.933404","285663.798261","286430.321172","287179.675695","287946.076175","288712.834676","289479.773735","290246.379504","291789.588159","Mapping"
"Blocked","m150","cave","7","m150cling.wav","space","644.396096468","145","284130.470163","291013.171705","291779.930516","292546.404578","293313.111139","279463.303769","280230.000127","280996.625684","284896.933404","285663.798261","286430.321172","287179.675695","287946.076175","288712.834676","289479.773735","290246.379504","292550.047875","Mapping"
"Blocked","m150","cave","7","m150cave.wav","None","730.168780778","145","284130.470163","291013.171705","291779.930516","292546.404578","293313.111139","294079.448546","280230.000127","280996.625684","284896.933404","285663.798261","286430.321172","287179.675695","287946.076175","288712.834676","289479.773735","290246.379504","293322.256791","Mapping"
"Blocked","m150","cave","7","m150bluff.wav","space","530.299128499","145","284130.470163","291013.171705","291779.930516","292546.404578","293313.111139","294079.448546","294846.357306","280996.625684","284896.933404","285663.798261","286430.321172","287179.675695","287946.076175","288712.834676","289479.773735","290246.379504","294088.113125","Mapping"
"Blocked","m150","cave","7","m150cling.wav","None","728.301065043","145","284130.470163","291013.171705","291779.930516","292546.404578","293313.111139","294079.448546","294846.357306","295613.087363","284896.933404","285663.798261","286430.321172","287179.675695","287946.076175","288712.834676","289479.773735","290246.379504","294855.429993","Mapping"
"Blocked","m150","tile","18","m150cave.wav","None","727.572344244","145","298746.692542","291013.171705","291779.930516","292546.404578","293313.111139","294079.448546","294846.357306","295613.087363","284896.933404","285663.798261","286430.321172","287179.675695","287946.076175","288712.834676","289479.773735","290246.379504","295622.252494","Mapping"
"Blocked","m150","tile","18","m150knife.wav","None","722.06473304","145","298746.692542","291013.171705","291779.930516","292546.404578","293313.111139","294079.448546","294846.357306","295613.087363","299512.812601","285663.798261","286430.321172","287179.675695","287946.076175","288712.834676","289479.773735","290246.379504","298756.413257","Mapping"
"Blocked","m150","tile","18","m150greet.wav","None","723.114066757","145","298746.692542","291013.171705","291779.930516","292546.404578","293313.111139","294079.448546","294846.357306","295613.087363","299512.812601","300279.447124","286430.321172","287179.675695","287946.076175","288712.834676","289479.773735","290246.379504","299521.782025","Mapping"
"Blocked","m150","tile","18","m150tile.wav","None","722.985450644","145","298746.692542","291013.171705","291779.930516","292546.404578","293313.111139","294079.448546","294846.357306","295613.087363","299512.812601","300279.447124","301046.737403","287179.675695","287946.076175","288712.834676","289479.773735","290246.379504","300288.320395","Mapping"
"Blocked","m150","tile","18","m150lash.wav","space","442.159413826","145","298746.692542","291013.171705","291779.930516","292546.404578","293313.111139","294079.448546","294846.357306","295613.087363","299512.812601","300279.447124","301046.737403","301812.760691","287946.076175","288712.834676","289479.773735","290246.379504","301056.159457","Mapping"
"Blocked","m150","tile","18","m150park.wav","None","721.169057768","145","298746.692542","291013.171705","291779.930516","292546.404578","293313.111139","294079.448546","294846.357306","295613.087363","299512.812601","300279.447124","301046.737403","301812.760691","302580.191335","288712.834676","289479.773735","290246.379504","301821.721458","Mapping"
"Blocked","m150","tile","18","m150ball.wav","None","719.160359818","145","298746.692542","291013.171705","291779.930516","292546.404578","293313.111139","294079.448546","294846.357306","295613.087363","299512.812601","300279.447124","301046.737403","301812.760691","302580.191335","303346.55966","289479.773735","290246.379504","302590.228952","Mapping"
"Blocked","m150","tile","18","m150tile.wav","None","720.205056015","145","298746.692542","291013.171705","291779.930516","292546.404578","293313.111139","294079.448546","294846.357306","295613.087363","299512.812601","300279.447124","301046.737403","301812.760691","302580.191335","303346.55966","304112.738461","290246.379504","303356.105691","Mapping"
"Blocked","m150","tile","18","m150depth.wav","space","448.580941651","145","298746.692542","291013.171705","291779.930516","292546.404578","293313.111139","294079.448546","294846.357306","295613.087363","299512.812601","300279.447124","301046.737403","301812.760691","302580.191335","303346.55966","304112.738461","304862.876739","304121.677277","Mapping"
"Blocked","m150","tile","18","m150romp.wav","None","735.737299547","145","298746.692542","305629.504769","291779.930516","292546.404578","293313.111139","294079.448546","294846.357306","295613.087363","299512.812601","300279.447124","301046.737403","301812.760691","302580.191335","303346.55966","304112.738461","304862.876739","304872.126273","Mapping"
"Blocked","m150","tile","18","m150lash.wav","None","735.002394766","145","298746.692542","305629.504769","306396.169282","292546.404578","293313.111139","294079.448546","294846.357306","295613.087363","299512.812601","300279.447124","301046.737403","301812.760691","302580.191335","303346.55966","304112.738461","304862.876739","305639.072443","Mapping"
"Blocked","m150","tile","18","m150jaw.wav","None","734.787828289","145","298746.692542","305629.504769","306396.169282","307162.460932","293313.111139","294079.448546","294846.357306","295613.087363","299512.812601","300279.447124","301046.737403","301812.760691","302580.191335","303346.55966","304112.738461","304862.876739","306405.169623","Mapping"
"Blocked","m150","tile","18","m150tile.wav","None","734.878725372","145","298746.692542","305629.504769","306396.169282","307162.460932","307929.144923","294079.448546","294846.357306","295613.087363","299512.812601","300279.447124","301046.737403","301812.760691","302580.191335","303346.55966","304112.738461","304862.876739","307171.474876","Mapping"
"Blocked","m150","tile","18","m150dime.wav","space","536.379946861","145","298746.692542","305629.504769","306396.169282","307162.460932","307929.144923","308696.243824","294846.357306","295613.087363","299512.812601","300279.447124","301046.737403","301812.760691","302580.191335","303346.55966","304112.738461","304862.876739","307937.825887","Mapping"
"Blocked","m150","tile","18","m150tile.wav","None","732.88703151","145","298746.692542","305629.504769","306396.169282","307162.460932","307929.144923","308696.243824","309462.781266","295613.087363","299512.812601","300279.447124","301046.737403","301812.760691","302580.191335","303346.55966","304112.738461","304862.876739","308705.160997","Mapping"
"Blocked","m150","tile","18","m150romp.wav","space","505.595880561","145","298746.692542","305629.504769","306396.169282","307162.460932","307929.144923","308696.243824","309462.781266","310229.532966","299512.812601","300279.447124","301046.737403","301812.760691","302580.191335","303346.55966","304112.738461","304862.876739","309472.546811","Mapping"
"Blocked","m150","ball","6","m150jolt.wav","None","730.900902767","145","313363.199361","305629.504769","306396.169282","307162.460932","307929.144923","308696.243824","309462.781266","310229.532966","299512.812601","300279.447124","301046.737403","301812.760691","302580.191335","303346.55966","304112.738461","304862.876739","310238.635643","Mapping"
"Blocked","m150","ball","6","m150ball.wav","None","721.38176905","145","313363.199361","305629.504769","306396.169282","307162.460932","307929.144923","308696.243824","309462.781266","310229.532966","314130.066691","300279.447124","301046.737403","301812.760691","302580.191335","303346.55966","304112.738461","304862.876739","313372.782185","Mapping"
"Blocked","m150","ball","6","m150jolt.wav","space","365.839391015","145","313363.199361","305629.504769","306396.169282","307162.460932","307929.144923","308696.243824","309462.781266","310229.532966","314130.066691","314896.799841","301046.737403","301812.760691","302580.191335","303346.55966","304112.738461","304862.876739","314140.283011","Mapping"
"Blocked","m150","ball","6","m150bluff.wav","None","719.288666267","145","313363.199361","305629.504769","306396.169282","307162.460932","307929.144923","308696.243824","309462.781266","310229.532966","314130.066691","314896.799841","315663.257826","301812.760691","302580.191335","303346.55966","304112.738461","304862.876739","314906.373698","Mapping"
"Blocked","m150","ball","6","m150done.wav","None","719.344627112","145","313363.199361","305629.504769","306396.169282","307162.460932","307929.144923","308696.243824","309462.781266","310229.532966","314130.066691","314896.799841","315663.257826","316412.967899","302580.191335","303346.55966","304112.738461","304862.876739","315672.745424","Mapping"
"Blocked","m150","ball","6","m150greet.wav","None","736.373577733","145","313363.199361","305629.504769","306396.169282","307162.460932","307929.144923","308696.243824","309462.781266","310229.532966","314130.066691","314896.799841","315663.257826","316412.967899","317178.968308","303346.55966","304112.738461","304862.876739","316421.949071","Mapping"
"Blocked","m150","ball","6","m150jaw.wav","None","736.986977514","145","313363.199361","305629.504769","306396.169282","307162.460932","307929.144923","308696.243824","309462.781266","310229.532966","314130.066691","314896.799841","315663.257826","316412.967899","317178.968308","317945.431857","304112.738461","304862.876739","317187.70616","Mapping"
"Blocked","m150","ball","6","m150ball.wav","None","736.931016669","145","313363.199361","305629.504769","306396.169282","307162.460932","307929.144923","308696.243824","309462.781266","310229.532966","314130.066691","314896.799841","315663.257826","316412.967899","317178.968308","317945.431857","318712.540961","304862.876739","317954.143122","Mapping"
"Blocked","m150","ball","6","m150tile.wav","space","456.123530865","145","313363.199361","305629.504769","306396.169282","307162.460932","307929.144923","308696.243824","309462.781266","310229.532966","314130.066691","314896.799841","315663.257826","316412.967899","317178.968308","317945.431857","318712.540961","319479.30441","318721.848002","Mapping"
"Blocked","m150","ball","6","m150done.wav","None","734.104864765","145","313363.199361","320262.629957","306396.169282","307162.460932","307929.144923","308696.243824","309462.781266","310229.532966","314130.066691","314896.799841","315663.257826","316412.967899","317178.968308","317945.431857","318712.540961","319479.30441","319488.886924","Mapping"
"Blocked","m150","ball","6","m150ball.wav","None","721.294891555","145","313363.199361","320262.629957","321029.81048","307162.460932","307929.144923","308696.243824","309462.781266","310229.532966","314130.066691","314896.799841","315663.257826","316412.967899","317178.968308","317945.431857","318712.540961","319479.30441","320271.232392","Mapping"
"Blocked","m150","ball","6","m150greet.wav","space","434.232213069","145","313363.199361","320262.629957","321029.81048","321779.461192","307929.144923","308696.243824","309462.781266","310229.532966","314130.066691","314896.799841","315663.257826","316412.967899","317178.968308","317945.431857","318712.540961","319479.30441","321039.700312","Mapping"
"Blocked","m150","ball","6","m150cling.wav","None","735.268592834","145","313363.199361","320262.629957","321029.81048","321779.461192","322545.716977","308696.243824","309462.781266","310229.532966","314130.066691","314896.799841","315663.257826","316412.967899","317178.968308","317945.431857","318712.540961","319479.30441","321788.871187","Mapping"
"Blocked","m150","ball","6","m150bluff.wav","None","735.183260869","145","313363.199361","320262.629957","321029.81048","321779.461192","322545.716977","323312.293066","309462.781266","310229.532966","314130.066691","314896.799841","315663.257826","316412.967899","317178.968308","317945.431857","318712.540961","319479.30441","322555.300728","Mapping"
"Blocked","m150","ball","6","m150ball.wav","None","735.911672935","145","313363.199361","320262.629957","321029.81048","321779.461192","322545.716977","323312.293066","324079.291795","310229.532966","314130.066691","314896.799841","315663.257826","316412.967899","317178.968308","317945.431857","318712.540961","319479.30441","323321.327107","Mapping"
"Blocked","m150","ball","6","m150romp.wav","space","473.523180466","145","313363.199361","320262.629957","321029.81048","321779.461192","322545.716977","323312.293066","324079.291795","324845.815325","314130.066691","314896.799841","315663.257826","316412.967899","317178.968308","317945.431857","318712.540961","319479.30441","324088.412714","Mapping"
"Blocked","m150","done","22","m150priest.wav","None","733.710359782","145","327979.692267","320262.629957","321029.81048","321779.461192","322545.716977","323312.293066","324079.291795","324845.815325","314130.066691","314896.799841","315663.257826","316412.967899","317178.968308","317945.431857","318712.540961","319479.30441","324854.823086","Mapping"
"Blocked","m150","done","22","m150tile.wav","None","721.716912929","145","327979.692267","320262.629957","321029.81048","321779.461192","322545.716977","323312.293066","324079.291795","324845.815325","328746.127992","314896.799841","315663.257826","316412.967899","317178.968308","317945.431857","318712.540961","319479.30441","327989.251903","Mapping"
"Blocked","m150","done","22","m150done.wav","None","721.590461209","145","327979.692267","320262.629957","321029.81048","321779.461192","322545.716977","323312.293066","324079.291795","324845.815325","328746.127992","329512.967187","315663.257826","316412.967899","317178.968308","317945.431857","318712.540961","319479.30441","328755.706487","Mapping"
"Blocked","m150","done","22","m150tile.wav","space","399.277091492","145","327979.692267","320262.629957","321029.81048","321779.461192","322545.716977","323312.293066","324079.291795","324845.815325","328746.127992","329512.967187","330279.617787","316412.967899","317178.968308","317945.431857","318712.540961","319479.30441","329522.519093","Mapping"
"Blocked","m150","done","22","m150priest.wav","None","719.208281953","145","327979.692267","320262.629957","321029.81048","321779.461192","322545.716977","323312.293066","324079.291795","324845.815325","328746.127992","329512.967187","330279.617787","331046.093705","317178.968308","317945.431857","318712.540961","319479.30441","330289.587386","Mapping"
"Blocked","m150","done","22","m150done.wav","None","719.732330181","145","327979.692267","320262.629957","321029.81048","321779.461192","322545.716977","323312.293066","324079.291795","324845.815325","328746.127992","329512.967187","330279.617787","331046.093705","331812.748015","317945.431857","318712.540961","319479.30441","331055.508647","Mapping"
"Blocked","m150","done","22","m150park.wav","space","643.454045989","145","327979.692267","320262.629957","321029.81048","321779.461192","322545.716977","323312.293066","324079.291795","324845.815325","328746.127992","329512.967187","330279.617787","331046.093705","331812.748015","332562.15046","318712.540961","319479.30441","331822.319708","Mapping"
"Blocked","m150","done","22","m150done.wav","None","735.620122403","145","327979.692267","320262.629957","321029.81048","321779.461192","322545.716977","323312.293066","324079.291795","324845.815325","328746.127992","329512.967187","330279.617787","331046.093705","331812.748015","332562.15046","333328.600407","319479.30441","332571.185429","Mapping"
"Blocked","m150","done","22","m150cad.wav","space","447.483994998","145","327979.692267","320262.629957","321029.81048","321779.461192","322545.716977","323312.293066","324079.291795","324845.815325","328746.127992","329512.967187","330279.617787","331046.093705","331812.748015","332562.15046","333328.600407","334095.68725","333338.245374","Mapping"
"Blocked","m150","done","22","m150lash.wav","None","734.307682142","145","327979.692267","334861.886148","321029.81048","321779.461192","322545.716977","323312.293066","324079.291795","324845.815325","328746.127992","329512.967187","330279.617787","331046.093705","331812.748015","332562.15046","333328.600407","334095.68725","334104.711088","Mapping"
"Blocked","m150","done","22","m150cling.wav","None","734.994356055","145","327979.692267","334861.886148","335628.647741","321779.461192","322545.716977","323312.293066","324079.291795","324845.815325","328746.127992","329512.967187","330279.617787","331046.093705","331812.748015","332562.15046","333328.600407","334095.68725","334870.7217","Mapping"
"Blocked","m150","done","22","m150park.wav","None","734.914898407","145","327979.692267","334861.886148","335628.647741","336395.638123","322545.716977","323312.293066","324079.291795","324845.815325","328746.127992","329512.967187","330279.617787","331046.093705","331812.748015","332562.15046","333328.600407","334095.68725","335637.356223","Mapping"
"Blocked","m150","done","22","m150depth.wav","None","733.756426722","145","327979.692267","334861.886148","335628.647741","336395.638123","337162.226269","323312.293066","324079.291795","324845.815325","328746.127992","329512.967187","330279.617787","331046.093705","331812.748015","332562.15046","333328.600407","334095.68725","336404.981646","Mapping"
"Blocked","m150","done","22","m150done.wav","None","733.877622522","145","327979.692267","334861.886148","335628.647741","336395.638123","337162.226269","337929.013524","324079.291795","324845.815325","328746.127992","329512.967187","330279.617787","331046.093705","331812.748015","332562.15046","333328.600407","334095.68725","337171.348734","Mapping"
"Blocked","m150","done","22","m150jaw.wav","space","487.465345766","145","327979.692267","334861.886148","335628.647741","336395.638123","337162.226269","337929.013524","338695.659177","324845.815325","328746.127992","329512.967187","330279.617787","331046.093705","331812.748015","332562.15046","333328.600407","334095.68725","337938.150829","Mapping"
"Blocked","m150","done","22","m150reek.wav","None","731.846045237","145","327979.692267","334861.886148","335628.647741","336395.638123","337162.226269","337929.013524","338695.659177","339462.17405","328746.127992","329512.967187","330279.617787","331046.093705","331812.748015","332562.15046","333328.600407","334095.68725","338705.288377","Mapping"
"Blocked","m150","tile","15","m150knife.wav","None","732.438112143","145","342595.852194","334861.886148","335628.647741","336395.638123","337162.226269","337929.013524","338695.659177","339462.17405","328746.127992","329512.967187","330279.617787","331046.093705","331812.748015","332562.15046","333328.600407","334095.68725","339471.302698","Mapping"
"Blocked","m150","tile","15","m150tile.wav","None","722.12533094","145","342595.852194","334861.886148","335628.647741","336395.638123","337162.226269","337929.013524","338695.659177","339462.17405","343362.567102","329512.967187","330279.617787","331046.093705","331812.748015","332562.15046","333328.600407","334095.68725","342605.460988","Mapping"
"Blocked","m150","tile","15","m150jolt.wav","space","477.104024496","145","342595.852194","334861.886148","335628.647741","336395.638123","337162.226269","337929.013524","338695.659177","339462.17405","343362.567102","344129.361158","330279.617787","331046.093705","331812.748015","332562.15046","333328.600407","334095.68725","343372.493726","Mapping"
"Blocked","m150","tile","15","m150cave.wav","None","720.03593808","145","342595.852194","334861.886148","335628.647741","336395.638123","337162.226269","337929.013524","338695.659177","339462.17405","343362.567102","344129.361158","344895.963527","331046.093705","331812.748015","332562.15046","333328.600407","334095.68725","344139.464629","Mapping"
"Blocked","m150","tile","15","m150dime.wav","None","721.131029539","145","342595.852194","334861.886148","335628.647741","336395.638123","337162.226269","337929.013524","338695.659177","339462.17405","343362.567102","344129.361158","344895.963527","345662.538998","331812.748015","332562.15046","333328.600407","334095.68725","344905.401349","Mapping"
"Blocked","m150","tile","15","m150tile.wav","None","720.814127475","145","342595.852194","334861.886148","335628.647741","336395.638123","337162.226269","337929.013524","338695.659177","339462.17405","343362.567102","344129.361158","344895.963527","345662.538998","346429.232264","332562.15046","333328.600407","334095.68725","345672.209936","Mapping"
"Blocked","m150","tile","15","m150romp.wav","space","434.311979916","145","342595.852194","334861.886148","335628.647741","336395.638123","337162.226269","337929.013524","338695.659177","339462.17405","343362.567102","344129.361158","344895.963527","345662.538998","346429.232264","347195.797842","333328.600407","334095.68725","346439.165072","Mapping"
"Blocked","m150","tile","15","m150lash.wav","None","719.759228174","145","342595.852194","334861.886148","335628.647741","336395.638123","337162.226269","337929.013524","338695.659177","339462.17405","343362.567102","344129.361158","344895.963527","345662.538998","346429.232264","347195.797842","347962.465137","334095.68725","347205.371699","Mapping"
"Blocked","m150","tile","15","m150cave.wav","None","719.514363445","145","342595.852194","334861.886148","335628.647741","336395.638123","337162.226269","337929.013524","338695.659177","339462.17405","343362.567102","344129.361158","344895.963527","345662.538998","346429.232264","347195.797842","347962.465137","348729.401104","347972.157407","Mapping"
"Blocked","m150","tile","15","m150cling.wav","None","719.383273739","145","342595.852194","349495.826316","335628.647741","336395.638123","337162.226269","337929.013524","338695.659177","339462.17405","343362.567102","344129.361158","344895.963527","345662.538998","346429.232264","347195.797842","347962.465137","348729.401104","348738.775544","Mapping"
"Blocked","m150","tile","15","m150jaw.wav","None","719.322985038","145","342595.852194","349495.826316","350262.572451","336395.638123","337162.226269","337929.013524","338695.659177","339462.17405","343362.567102","344129.361158","344895.963527","345662.538998","346429.232264","347195.797842","347962.465137","348729.401104","349505.52477","Mapping"
"Blocked","m150","tile","15","m150tile.wav","None","719.529822003","145","342595.852194","349495.826316","350262.572451","351029.115768","337162.226269","337929.013524","338695.659177","339462.17405","343362.567102","344129.361158","344895.963527","345662.538998","346429.232264","347195.797842","347962.465137","348729.401104","350272.013982","Mapping"
"Blocked","m150","tile","15","m150greet.wav","space","426.841737237","145","342595.852194","349495.826316","350262.572451","351029.115768","351794.994362","337929.013524","338695.659177","339462.17405","343362.567102","344129.361158","344895.963527","345662.538998","346429.232264","347195.797842","347962.465137","348729.401104","351038.574303","Mapping"
"Blocked","m150","tile","15","m150cling.wav","None","724.254915491","145","342595.852194","349495.826316","350262.572451","351029.115768","351794.994362","352562.490242","338695.659177","339462.17405","343362.567102","344129.361158","344895.963527","345662.538998","346429.232264","347195.797842","347962.465137","348729.401104","351803.539909","Mapping"
"Blocked","m150","tile","15","m150tile.wav","None","722.239106428","145","342595.852194","349495.826316","350262.572451","351029.115768","351794.994362","352562.490242","353329.117963","339462.17405","343362.567102","344129.361158","344895.963527","345662.538998","346429.232264","347195.797842","347962.465137","348729.401104","352572.257332","Mapping"
"Blocked","m150","tile","15","m150greet.wav","space","438.903820235","145","342595.852194","349495.826316","350262.572451","351029.115768","351794.994362","352562.490242","353329.117963","354095.575948","343362.567102","344129.361158","344895.963527","345662.538998","346429.232264","347195.797842","347962.465137","348729.401104","353338.492403","Mapping"
"Blocked","m150","done","21","m150tile.wav","None","721.842746716","145","357212.462895","349495.826316","350262.572451","351029.115768","351794.994362","352562.490242","353329.117963","354095.575948","343362.567102","344129.361158","344895.963527","345662.538998","346429.232264","347195.797842","347962.465137","348729.401104","354104.514763","Mapping"
"Blocked","m150","done","21","m150reek.wav","None","721.489979886","145","357212.462895","349495.826316","350262.572451","351029.115768","351794.994362","352562.490242","353329.117963","354095.575948","357978.522356","344129.361158","344895.963527","345662.538998","346429.232264","347195.797842","347962.465137","348729.401104","357221.905972","Mapping"
"Blocked","m150","done","21","m150greet.wav","None","722.65185276","145","357212.462895","349495.826316","350262.572451","351029.115768","351794.994362","352562.490242","353329.117963","354095.575948","357978.522356","358745.556331","344895.963527","345662.538998","346429.232264","347195.797842","347962.465137","348729.401104","357987.396245","Mapping"
"Blocked","m150","done","21","m150done.wav","None","721.535428427","145","357212.462895","349495.826316","350262.572451","351029.115768","351794.994362","352562.490242","353329.117963","354095.575948","357978.522356","358745.556331","359511.721529","345662.538998","346429.232264","347195.797842","347962.465137","348729.401104","358755.112874","Mapping"
"Blocked","m150","done","21","m150lash.wav","space","400.584893767","145","357212.462895","349495.826316","350262.572451","351029.115768","351794.994362","352562.490242","353329.117963","354095.575948","357978.522356","358745.556331","359511.721529","360279.082609","346429.232264","347195.797842","347962.465137","348729.401104","359520.682605","Mapping"
"Blocked","m150","done","21","m150romp.wav","None","719.877641648","145","357212.462895","349495.826316","350262.572451","351029.115768","351794.994362","352562.490242","353329.117963","354095.575948","357978.522356","358745.556331","359511.721529","360279.082609","361045.509676","347195.797842","347962.465137","348729.401104","360288.538671","Mapping"
"Blocked","m150","done","21","m150priest.wav","None","720.165173057","145","357212.462895","349495.826316","350262.572451","351029.115768","351794.994362","352562.490242","353329.117963","354095.575948","357978.522356","358745.556331","359511.721529","360279.082609","361045.509676","361812.227367","347962.465137","348729.401104","361055.003458","Mapping"
"Blocked","m150","done","21","m150done.wav","None","719.724291936","145","357212.462895","349495.826316","350262.572451","351029.115768","351794.994362","352562.490242","353329.117963","354095.575948","357978.522356","358745.556331","359511.721529","360279.082609","361045.509676","361812.227367","362579.061616","348729.401104","361821.838943","Mapping"
"Blocked","m150","done","21","m150lash.wav","space","380.118246656","145","357212.462895","349495.826316","350262.572451","351029.115768","351794.994362","352562.490242","353329.117963","354095.575948","357978.522356","358745.556331","359511.721529","360279.082609","361045.509676","361812.227367","362579.061616","363345.087995","362589.107271","Mapping"
"Blocked","m150","done","21","m150done.wav","None","726.13592539","145","357212.462895","364111.691601","350262.572451","351029.115768","351794.994362","352562.490242","353329.117963","354095.575948","357978.522356","358745.556331","359511.721529","360279.082609","361045.509676","361812.227367","362579.061616","363345.087995","363348.445925","Mapping"
"Blocked","m150","done","21","m150cad.wav","space","600.639123004","145","357212.462895","364111.691601","364861.284497","351029.115768","351794.994362","352562.490242","353329.117963","354095.575948","357978.522356","358745.556331","359511.721529","360279.082609","361045.509676","361812.227367","362579.061616","363345.087995","364120.547558","Mapping"
"Blocked","m150","done","21","m150jaw.wav","None","736.473440658","145","357212.462895","364111.691601","364861.284497","365627.986111","351794.994362","352562.490242","353329.117963","354095.575948","357978.522356","358745.556331","359511.721529","360279.082609","361045.509676","361812.227367","362579.061616","363345.087995","364870.056668","Mapping"
"Blocked","m150","done","21","m150greet.wav","None","736.281753518","145","357212.462895","364111.691601","364861.284497","365627.986111","366394.748322","352562.490242","353329.117963","354095.575948","357978.522356","358745.556331","359511.721529","360279.082609","361045.509676","361812.227367","362579.061616","363345.087995","365636.766938","Mapping"
"Blocked","m150","done","21","m150done.wav","None","736.334312707","145","357212.462895","364111.691601","364861.284497","365627.986111","366394.748322","367161.491983","353329.117963","354095.575948","357978.522356","358745.556331","359511.721529","360279.082609","361045.509676","361812.227367","362579.061616","363345.087995","366403.732586","Mapping"
"Blocked","m150","done","21","m150greet.wav","space","438.525392208","145","357212.462895","364111.691601","364861.284497","365627.986111","366394.748322","367161.491983","367928.438771","354095.575948","357978.522356","358745.556331","359511.721529","360279.082609","361045.509676","361812.227367","362579.061616","363345.087995","367170.608573","Mapping"
"Blocked","m150","done","21","m150cad.wav","None","733.890298288","145","357212.462895","364111.691601","364861.284497","365627.986111","366394.748322","367161.491983","367928.438771","368695.040522","357978.522356","358745.556331","359511.721529","360279.082609","361045.509676","361812.227367","362579.061616","363345.087995","367937.975528","Mapping"
"Blocked","m150","ball","3","m150lash.wav","None","734.286349732","145","371828.873561","364111.691601","364861.284497","365627.986111","366394.748322","367161.491983","367928.438771","368695.040522","357978.522356","358745.556331","359511.721529","360279.082609","361045.509676","361812.227367","362579.061616","363345.087995","368704.089093","Mapping"
"Blocked","m150","ball","3","m150cad.wav","None","721.74937604","145","371828.873561","364111.691601","364861.284497","365627.986111","366394.748322","367161.491983","367928.438771","368695.040522","372595.429863","358745.556331","359511.721529","360279.082609","361045.509676","361812.227367","362579.061616","363345.087995","371838.411864","Mapping"
"Blocked","m150","ball","3","m150park.wav","None","721.988676116","145","371828.873561","364111.691601","364861.284497","365627.986111","366394.748322","367161.491983","367928.438771","368695.040522","372595.429863","373361.953084","359511.721529","360279.082609","361045.509676","361812.227367","362579.061616","363345.087995","372604.870158","Mapping"
"Blocked","m150","ball","3","m150ball.wav","None","721.539756749","145","371828.873561","364111.691601","364861.284497","365627.986111","366394.748322","367161.491983","367928.438771","368695.040522","372595.429863","373361.953084","374128.918422","360279.082609","361045.509676","361812.227367","362579.061616","363345.087995","373371.914645","Mapping"
"Blocked","m150","ball","3","m150romp.wav","space","430.117736571","145","371828.873561","364111.691601","364861.284497","365627.986111","366394.748322","367161.491983","367928.438771","368695.040522","372595.429863","373361.953084","374128.918422","374895.475343","361045.509676","361812.227367","362579.061616","363345.087995","374138.923885","Mapping"
"Blocked","m150","ball","3","m150jolt.wav","None","720.274929423","145","371828.873561","364111.691601","364861.284497","365627.986111","366394.748322","367161.491983","367928.438771","368695.040522","372595.429863","373361.953084","374128.918422","374895.475343","375662.151295","361812.227367","362579.061616","363345.087995","374904.907599","Mapping"
"Blocked","m150","ball","3","m150ball.wav","None","720.355623402","145","371828.873561","364111.691601","364861.284497","365627.986111","366394.748322","367161.491983","367928.438771","368695.040522","372595.429863","373361.953084","374128.918422","374895.475343","375662.151295","376428.774687","362579.061616","363345.087995","375671.670738","Mapping"
"Blocked","m150","ball","3","m150park.wav","space","618.634858169","145","371828.873561","364111.691601","364861.284497","365627.986111","366394.748322","367161.491983","367928.438771","368695.040522","372595.429863","373361.953084","374128.918422","374895.475343","375662.151295","376428.774687","377178.842783","363345.087995","376438.331849","Mapping"
"Blocked","m150","ball","3","m150priest.wav","None","735.551795457","145","371828.873561","364111.691601","364861.284497","365627.986111","366394.748322","367161.491983","367928.438771","368695.040522","372595.429863","373361.953084","374128.918422","374895.475343","375662.151295","376428.774687","377178.842783","377961.972624","377188.44663","Mapping"
"Blocked","m150","ball","3","m150knife.wav","None","718.98258524","145","371828.873561","378728.725251","364861.284497","365627.986111","366394.748322","367161.491983","367928.438771","368695.040522","372595.429863","373361.953084","374128.918422","374895.475343","375662.151295","376428.774687","377178.842783","377961.972624","377971.682208","Mapping"
"Blocked","m150","ball","3","m150ball.wav","None","719.353902154","145","371828.873561","378728.725251","379495.357919","365627.986111","366394.748322","367161.491983","367928.438771","368695.040522","372595.429863","373361.953084","374128.918422","374895.475343","375662.151295","376428.774687","377178.842783","377961.972624","378738.065682","Mapping"
"Blocked","m150","ball","3","m150dime.wav","space","576.075930614","145","371828.873561","378728.725251","379495.357919","380244.868575","366394.748322","367161.491983","367928.438771","368695.040522","372595.429863","373361.953084","374128.918422","374895.475343","375662.151295","376428.774687","377178.842783","377961.972624","379504.867777","Mapping"
"Blocked","m150","ball","3","m150knife.wav","None","734.944579192","145","371828.873561","378728.725251","379495.357919","380244.868575","381011.228552","367161.491983","367928.438771","368695.040522","372595.429863","373361.953084","374128.918422","374895.475343","375662.151295","376428.774687","377178.842783","377961.972624","380254.477678","Mapping"
"Blocked","m150","ball","3","m150ball.wav","None","735.971961636","145","371828.873561","378728.725251","379495.357919","380244.868575","381011.228552","381777.889355","367928.438771","368695.040522","372595.429863","373361.953084","374128.918422","374895.475343","375662.151295","376428.774687","377178.842783","377961.972624","381020.235695","Mapping"
"Blocked","m150","ball","3","m150park.wav","space","581.984539516","145","371828.873561","378728.725251","379495.357919","380244.868575","381011.228552","381777.889355","382544.757613","368695.040522","372595.429863","373361.953084","374128.918422","374895.475343","375662.151295","376428.774687","377178.842783","377961.972624","381786.893715","Mapping"
"Blocked","m150","ball","3","m150priest.wav","None","734.438462649","145","371828.873561","378728.725251","379495.357919","380244.868575","381011.228552","381777.889355","382544.757613","383311.317316","372595.429863","373361.953084","374128.918422","374895.475343","375662.151295","376428.774687","377178.842783","377961.972624","382553.797837","Mapping"
"Blocked","m150","ball","5","m150gnash.wav","None","734.515446704","145","386445.190548","378728.725251","379495.357919","380244.868575","381011.228552","381777.889355","382544.757613","383311.317316","372595.429863","373361.953084","374128.918422","374895.475343","375662.151295","376428.774687","377178.842783","377961.972624","383320.751118","Mapping"
"Blocked","m150","ball","5","m150cave.wav","None","722.159649245","145","386445.190548","378728.725251","379495.357919","380244.868575","381011.228552","381777.889355","382544.757613","383311.317316","387211.681305","373361.953084","374128.918422","374895.475343","375662.151295","376428.774687","377178.842783","377961.972624","386454.745546","Mapping"
"Blocked","m150","ball","5","m150ball.wav","None","722.403895576","145","386445.190548","378728.725251","379495.357919","380244.868575","381011.228552","381777.889355","382544.757613","383311.317316","387211.681305","387977.92627","374128.918422","374895.475343","375662.151295","376428.774687","377178.842783","377961.972624","387221.26753","Mapping"
"Blocked","m150","ball","5","m150greet.wav","space","534.003023058","145","386445.190548","378728.725251","379495.357919","380244.868575","381011.228552","381777.889355","382544.757613","383311.317316","387211.681305","387977.92627","388745.013423","374895.475343","375662.151295","376428.774687","377178.842783","377961.972624","387986.750073","Mapping"
"Blocked","m150","ball","5","m150ball.wav","None","721.083417069","145","386445.190548","378728.725251","379495.357919","380244.868575","381011.228552","381777.889355","382544.757613","383311.317316","387211.681305","387977.92627","388745.013423","389511.192842","375662.151295","376428.774687","377178.842783","377961.972624","388754.381371","Mapping"
"Blocked","m150","ball","5","m150lash.wav","space","424.563130364","145","386445.190548","378728.725251","379495.357919","380244.868575","381011.228552","381777.889355","382544.757613","383311.317316","387211.681305","387977.92627","388745.013423","389511.192842","390278.504146","376428.774687","377178.842783","377961.972624","389520.176488","Mapping"
"Blocked","m150","ball","5","m150ball.wav","None","718.780694995","145","386445.190548","378728.725251","379495.357919","380244.868575","381011.228552","381777.889355","382544.757613","383311.317316","387211.681305","387977.92627","388745.013423","389511.192842","390278.504146","391045.004488","377178.842783","377961.972624","390288.403871","Mapping"
"Blocked","m150","ball","5","m150gnash.wav","space","418.194162659","145","386445.190548","378728.725251","379495.357919","380244.868575","381011.228552","381777.889355","382544.757613","383311.317316","387211.681305","387977.92627","388745.013423","389511.192842","390278.504146","391045.004488","391794.174435","377961.972624","391054.503834","Mapping"
"Blocked","m150","ball","5","m150cad.wav","None","736.200749874","145","386445.190548","378728.725251","379495.357919","380244.868575","381011.228552","381777.889355","382544.757613","383311.317316","387211.681305","387977.92627","388745.013423","389511.192842","390278.504146","391045.004488","391794.174435","392561.115657","391803.099956","Mapping"
"Blocked","m150","ball","5","m150cling.wav","None","735.857258085","145","386445.190548","393327.901675","379495.357919","380244.868575","381011.228552","381777.889355","382544.757613","383311.317316","387211.681305","387977.92627","388745.013423","389511.192842","390278.504146","391045.004488","391794.174435","392561.115657","392570.147225","Mapping"
"Blocked","m150","ball","5","m150bluff.wav","None","736.223009881","145","386445.190548","393327.901675","394094.924829","380244.868575","381011.228552","381777.889355","382544.757613","383311.317316","387211.681305","387977.92627","388745.013423","389511.192842","390278.504146","391045.004488","391794.174435","392561.115657","393336.97189","Mapping"
"Blocked","m150","ball","5","m150depth.wav","None","735.773163382","145","386445.190548","393327.901675","394094.924829","394878.534816","381011.228552","381777.889355","382544.757613","383311.317316","387211.681305","387977.92627","388745.013423","389511.192842","390278.504146","391045.004488","391794.174435","392561.115657","394104.299888","Mapping"
