"Condition","Talker","Target","Trial","current_stimulus","response_response","response_time_response","subject_nr","time_Audio1","time_Audio10","time_Audio11","time_Audio12","time_Audio13","time_Audio14","time_Audio15","time_Audio16","time_Audio2","time_Audio3","time_Audio4","time_Audio5","time_Audio6","time_Audio7","time_Audio8","time_Audio9","time_response","title"
"Mixed","Both","ball","11","m150cave.wav","NA","NA","103","299779.121719","NA","NA","NA","NA","NA","NA","NA","NA","NA","NA","NA","NA","NA","NA","NA","NA","Mapping"
"Mixed","Both","ball","11","m160ball.wav","None","716.264952673","103","299779.121719","NA","NA","NA","NA","NA","NA","NA","300528.698538","NA","NA","NA","NA","NA","NA","NA","299793.006688","Mapping"
"Mixed","Both","ball","11","m160cad.wav","space","592.519307276","103","299779.121719","NA","NA","NA","NA","NA","NA","NA","300528.698538","301295.345737","NA","NA","NA","NA","NA","NA","300537.603654","Mapping"
"Mixed","Both","ball","11","m150romp.wav","None","732.752850279","103","299779.121719","NA","NA","NA","NA","NA","NA","NA","300528.698538","301295.345737","302061.778679","NA","NA","NA","NA","NA","301304.563118","Mapping"
"Mixed","Both","ball","11","m160cling.wav","None","730.482591549","103","299779.121719","NA","NA","NA","NA","NA","NA","NA","300528.698538","301295.345737","302061.778679","302828.796577","NA","NA","NA","NA","302071.173216","Mapping"
"Mixed","Both","ball","11","m150cad.wav","None","727.747645462","103","299779.121719","NA","NA","NA","NA","NA","NA","NA","300528.698538","301295.345737","302061.778679","302828.796577","303595.744293","NA","NA","NA","302838.051368","Mapping"
"Mixed","Both","ball","11","m150ball.wav","None","724.99383986","103","299779.121719","NA","NA","NA","NA","NA","NA","NA","300528.698538","301295.345737","302061.778679","302828.796577","303595.744293","304362.809803","NA","NA","303605.099874","Mapping"
"Mixed","Both","ball","11","m160romp.wav","space","389.886882855","103","299779.121719","NA","NA","NA","NA","NA","NA","NA","300528.698538","301295.345737","302061.778679","302828.796577","303595.744293","304362.809803","305112.6454","NA","304372.198466","Mapping"
"Mixed","Both","ball","11","m150ball.wav","None","736.223319545","103","299779.121719","NA","NA","NA","NA","NA","NA","NA","300528.698538","301295.345737","302061.778679","302828.796577","303595.744293","304362.809803","305112.6454","305878.788338","305121.927398","Mapping"
"Mixed","Both","ball","11","m160depth.wav","space","394.062885316","103","299779.121719","306645.498299","NA","NA","NA","NA","NA","NA","300528.698538","301295.345737","302061.778679","302828.796577","303595.744293","304362.809803","305112.6454","305878.788338","305887.974492","Mapping"
"Mixed","Both","ball","11","m160priest.wav","None","731.581083965","103","299779.121719","306645.498299","307412.236704","NA","NA","NA","NA","NA","300528.698538","301295.345737","302061.778679","302828.796577","303595.744293","304362.809803","305112.6454","305878.788338","306654.741032","Mapping"
"Mixed","Both","ball","11","m150knife.wav","None","728.690005373","103","299779.121719","306645.498299","307412.236704","308178.913893","NA","NA","NA","NA","300528.698538","301295.345737","302061.778679","302828.796577","303595.744293","304362.809803","305112.6454","305878.788338","307421.907951","Mapping"
"Mixed","Both","ball","11","m150depth.wav","None","727.295943303","103","299779.121719","306645.498299","307412.236704","308178.913893","308945.60283","NA","NA","NA","300528.698538","301295.345737","302061.778679","302828.796577","303595.744293","304362.809803","305112.6454","305878.788338","308187.977305","Mapping"
"Mixed","Both","ball","11","m160ball.wav","None","724.995385623","103","299779.121719","306645.498299","307412.236704","308178.913893","308945.60283","309712.345873","NA","NA","300528.698538","301295.345737","302061.778679","302828.796577","303595.744293","304362.809803","305112.6454","305878.788338","308954.808153","Mapping"
"Mixed","Both","ball","11","m160park.wav","space","376.035304973","103","299779.121719","306645.498299","307412.236704","308178.913893","308945.60283","309712.345873","310478.853326","NA","300528.698538","301295.345737","302061.778679","302828.796577","303595.744293","304362.809803","305112.6454","305878.788338","309721.955904","Mapping"
"Mixed","Both","ball","11","m150cad.wav","None","720.576682361","103","299779.121719","306645.498299","307412.236704","308178.913893","308945.60283","309712.345873","310478.853326","311228.700981","300528.698538","301295.345737","302061.778679","302828.796577","303595.744293","304362.809803","305112.6454","305878.788338","310487.86387","Mapping"
"Mixed","Both","ball","8","m150dime.wav","None","735.204284778","103","314412.43272","306645.498299","307412.236704","308178.913893","308945.60283","309712.345873","310478.853326","311228.700981","300528.698538","301295.345737","302061.778679","302828.796577","303595.744293","304362.809803","305112.6454","305878.788338","311237.744606","Mapping"
"Mixed","Both","ball","8","m150ball.wav","None","721.450096462","103","314412.43272","306645.498299","307412.236704","308178.913893","308945.60283","309712.345873","310478.853326","311228.700981","315179.381672","301295.345737","302061.778679","302828.796577","303595.744293","304362.809803","305112.6454","305878.788338","314421.944743","Mapping"
"Mixed","Both","ball","8","m160dime.wav","space","364.326915937","103","314412.43272","306645.498299","307412.236704","308178.913893","308945.60283","309712.345873","310478.853326","311228.700981","315179.381672","315928.617473","302061.778679","302828.796577","303595.744293","304362.809803","305112.6454","305878.788338","315189.530591","Mapping"
"Mixed","Both","ball","8","m160ball.wav","None","734.90407737","103","314412.43272","306645.498299","307412.236704","308178.913893","308945.60283","309712.345873","310478.853326","311228.700981","315179.381672","315928.617473","316695.741417","302828.796577","303595.744293","304362.809803","305112.6454","305878.788338","315937.708402","Mapping"
"Mixed","Both","ball","8","m150tile.wav","space","305.407779291","103","314412.43272","306645.498299","307412.236704","308178.913893","308945.60283","309712.345873","310478.853326","311228.700981","315179.381672","315928.617473","316695.741417","317461.765941","303595.744293","304362.809803","305112.6454","305878.788338","316704.44588","Mapping"
"Mixed","Both","ball","8","m150gnash.wav","None","731.073730625","103","314412.43272","306645.498299","307412.236704","308178.913893","308945.60283","309712.345873","310478.853326","311228.700981","315179.381672","315928.617473","316695.741417","317461.765941","318228.470028","304362.809803","305112.6454","305878.788338","317470.434231","Mapping"
"Mixed","Both","ball","8","m160greet.wav","None","728.728342801","103","314412.43272","306645.498299","307412.236704","308178.913893","308945.60283","309712.345873","310478.853326","311228.700981","315179.381672","315928.617473","316695.741417","317461.765941","318228.470028","318995.393937","305112.6454","305878.788338","318237.105545","Mapping"
"Mixed","Both","ball","8","m160cling.wav","None","726.126959315","103","314412.43272","306645.498299","307412.236704","308178.913893","308945.60283","309712.345873","310478.853326","311228.700981","315179.381672","315928.617473","316695.741417","317461.765941","318228.470028","318995.393937","319761.912521","305878.788338","319004.480847","Mapping"
"Mixed","Both","ball","8","m160lash.wav","None","724.367145682","103","314412.43272","306645.498299","307412.236704","308178.913893","308945.60283","309712.345873","310478.853326","311228.700981","315179.381672","315928.617473","316695.741417","317461.765941","318228.470028","318995.393937","319761.912521","320528.580125","319770.72272","Mapping"
"Mixed","Both","ball","8","m160park.wav","None","722.038452979","103","314412.43272","321278.337811","307412.236704","308178.913893","308945.60283","309712.345873","310478.853326","311228.700981","315179.381672","315928.617473","316695.741417","317461.765941","318228.470028","318995.393937","319761.912521","320528.580125","320537.363427","Mapping"
"Mixed","Both","ball","8","m150reek.wav","None","736.273714807","103","314412.43272","321278.337811","322044.939252","308178.913893","308945.60283","309712.345873","310478.853326","311228.700981","315179.381672","315928.617473","316695.741417","317461.765941","318228.470028","318995.393937","319761.912521","320528.580125","321287.492429","Mapping"
"Mixed","Both","ball","8","m150dime.wav","None","734.219258884","103","314412.43272","321278.337811","322044.939252","322811.941382","308945.60283","309712.345873","310478.853326","311228.700981","315179.381672","315928.617473","316695.741417","317461.765941","318228.470028","318995.393937","319761.912521","320528.580125","322053.844677","Mapping"
"Mixed","Both","ball","8","m160ball.wav","None","731.36435356","103","314412.43272","321278.337811","322044.939252","322811.941382","323578.710395","309712.345873","310478.853326","311228.700981","315179.381672","315928.617473","316695.741417","317461.765941","318228.470028","318995.393937","319761.912521","320528.580125","322821.024581","Mapping"
"Mixed","Both","ball","8","m150romp.wav","space","285.983354785","103","314412.43272","321278.337811","322044.939252","322811.941382","323578.710395","324345.355739","310478.853326","311228.700981","315179.381672","315928.617473","316695.741417","317461.765941","318228.470028","318995.393937","319761.912521","320528.580125","323587.753402","Mapping"
"Mixed","Both","ball","8","m150ball.wav","None","726.231150795","103","314412.43272","321278.337811","322044.939252","322811.941382","323578.710395","324345.355739","325112.30531","311228.700981","315179.381672","315928.617473","316695.741417","317461.765941","318228.470028","318995.393937","319761.912521","320528.580125","324354.463363","Mapping"
"Mixed","Both","ball","8","m160jaw.wav","space","615.371225867","103","314412.43272","321278.337811","322044.939252","322811.941382","323578.710395","324345.355739","325112.30531","325878.936123","315179.381672","315928.617473","316695.741417","317461.765941","318228.470028","318995.393937","319761.912521","320528.580125","325122.346328","Mapping"
"Mixed","Both","tile","29","m160greet.wav","None","721.221308457","103","328995.72197","321278.337811","322044.939252","322811.941382","323578.710395","324345.355739","325112.30531","325878.936123","315179.381672","315928.617473","316695.741417","317461.765941","318228.470028","318995.393937","319761.912521","320528.580125","325888.361577","Mapping"
"Mixed","Both","tile","29","m160tile.wav","None","720.049851108","103","328995.72197","321278.337811","322044.939252","322811.941382","323578.710395","324345.355739","325112.30531","325878.936123","329744.861309","315928.617473","316695.741417","317461.765941","318228.470028","318995.393937","319761.912521","320528.580125","329005.68384","Mapping"
"Mixed","Both","tile","29","m150dime.wav","space","463.557600277","103","328995.72197","321278.337811","322044.939252","322811.941382","323578.710395","324345.355739","325112.30531","325878.936123","329744.861309","330512.014625","316695.741417","317461.765941","318228.470028","318995.393937","319761.912521","320528.580125","329754.030459","Mapping"
"Mixed","Both","tile","29","m160cad.wav","None","732.972981874","103","328995.72197","321278.337811","322044.939252","322811.941382","323578.710395","324345.355739","325112.30531","325878.936123","329744.861309","330512.014625","331278.514348","317461.765941","318228.470028","318995.393937","319761.912521","320528.580125","330521.143891","Mapping"
"Mixed","Both","tile","29","m150priest.wav","None","731.083315099","103","328995.72197","321278.337811","322044.939252","322811.941382","323578.710395","324345.355739","325112.30531","325878.936123","329744.861309","330512.014625","331278.514348","332044.778791","318228.470028","318995.393937","319761.912521","320528.580125","331287.537877","Mapping"
"Mixed","Both","tile","29","m160priest.wav","None","729.514879407","103","328995.72197","321278.337811","322044.939252","322811.941382","323578.710395","324345.355739","325112.30531","325878.936123","329744.861309","330512.014625","331278.514348","332044.778791","332811.467729","318995.393937","319761.912521","320528.580125","332053.587136","Mapping"
"Mixed","Both","tile","29","m150cave.wav","None","727.381893434","103","328995.72197","321278.337811","322044.939252","322811.941382","323578.710395","324345.355739","325112.30531","325878.936123","329744.861309","330512.014625","331278.514348","332044.778791","332811.467729","333578.806239","319761.912521","320528.580125","332820.200326","Mapping"
"Mixed","Both","tile","29","m160ball.wav","None","723.663776647","103","328995.72197","321278.337811","322044.939252","322811.941382","323578.710395","324345.355739","325112.30531","325878.936123","329744.861309","330512.014625","331278.514348","332044.778791","332811.467729","333578.806239","334345.290504","320528.580125","333588.354435","Mapping"
"Mixed","Both","tile","29","m150park.wav","None","721.043842845","103","328995.72197","321278.337811","322044.939252","322811.941382","323578.710395","324345.355739","325112.30531","325878.936123","329744.861309","330512.014625","331278.514348","332044.778791","332811.467729","333578.806239","334345.290504","335111.556492","334355.457355","Mapping"
"Mixed","Both","tile","29","m150tile.wav","None","720.603271155","103","328995.72197","335861.516995","322044.939252","322811.941382","323578.710395","324345.355739","325112.30531","325878.936123","329744.861309","330512.014625","331278.514348","332044.778791","332811.467729","333578.806239","334345.290504","335111.556492","335120.473975","Mapping"
"Mixed","Both","tile","29","m160done.wav","space","427.081655478","103","328995.72197","335861.516995","336628.42761","322811.941382","323578.710395","324345.355739","325112.30531","325878.936123","329744.861309","330512.014625","331278.514348","332044.778791","332811.467729","333578.806239","334345.290504","335111.556492","335870.43386","Mapping"
"Mixed","Both","tile","29","m160tile.wav","None","732.050408609","103","328995.72197","335861.516995","336628.42761","337395.116238","323578.710395","324345.355739","325112.30531","325878.936123","329744.861309","330512.014625","331278.514348","332044.778791","332811.467729","333578.806239","334345.290504","335111.556492","336637.445574","Mapping"
"Mixed","Both","tile","29","m150done.wav","space","509.200221393","103","328995.72197","335861.516995","336628.42761","337395.116238","338161.360585","324345.355739","325112.30531","325878.936123","329744.861309","330512.014625","331278.514348","332044.778791","332811.467729","333578.806239","334345.290504","335111.556492","337404.313523","Mapping"
"Mixed","Both","tile","29","m150lash.wav","None","727.980143623","103","328995.72197","335861.516995","336628.42761","337395.116238","338161.360585","338928.369825","325112.30531","325878.936123","329744.861309","330512.014625","331278.514348","332044.778791","332811.467729","333578.806239","334345.290504","335111.556492","338170.083288","Mapping"
"Mixed","Both","tile","29","m150tile.wav","None","725.214589387","103","328995.72197","335861.516995","336628.42761","337395.116238","338161.360585","338928.369825","339694.840796","325878.936123","329744.861309","330512.014625","331278.514348","332044.778791","332811.467729","333578.806239","334345.290504","335111.556492","338937.4286","Mapping"
"Mixed","Both","tile","29","m160knife.wav","space","409.630374052","103","328995.72197","335861.516995","336628.42761","337395.116238","338161.360585","338928.369825","339694.840796","340461.444401","329744.861309","330512.014625","331278.514348","332044.778791","332811.467729","333578.806239","334345.290504","335111.556492","339703.800326","Mapping"
"Mixed","Both","cave","13","m150jolt.wav","None","720.989119262","103","343578.685043","335861.516995","336628.42761","337395.116238","338161.360585","338928.369825","339694.840796","340461.444401","329744.861309","330512.014625","331278.514348","332044.778791","332811.467729","333578.806239","334345.290504","335111.556492","340470.315508","Mapping"
"Mixed","Both","cave","13","m160jaw.wav","None","720.065618865","103","343578.685043","335861.516995","336628.42761","337395.116238","338161.360585","338928.369825","339694.840796","340461.444401","344327.741833","330512.014625","331278.514348","332044.778791","332811.467729","333578.806239","334345.290504","335111.556492","343588.359691","Mapping"
"Mixed","Both","cave","13","m150cave.wav","None","736.205387395","103","343578.685043","335861.516995","336628.42761","337395.116238","338161.360585","338928.369825","339694.840796","340461.444401","344327.741833","345094.926993","331278.514348","332044.778791","332811.467729","333578.806239","334345.290504","335111.556492","344336.717131","Mapping"
"Mixed","Both","cave","13","m160jaw.wav","space","409.293684643","103","343578.685043","335861.516995","336628.42761","337395.116238","338161.360585","338928.369825","339694.840796","340461.444401","344327.741833","345094.926993","345861.572956","332044.778791","332811.467729","333578.806239","334345.290504","335111.556492","345104.068626","Mapping"
"Mixed","Both","cave","13","m150depth.wav","None","730.03676394","103","343578.685043","335861.516995","336628.42761","337395.116238","338161.360585","338928.369825","339694.840796","340461.444401","344327.741833","345094.926993","345861.572956","346628.286627","332811.467729","333578.806239","334345.290504","335111.556492","345871.24513","Mapping"
"Mixed","Both","cave","13","m150cave.wav","None","727.997148177","103","343578.685043","335861.516995","336628.42761","337395.116238","338161.360585","338928.369825","339694.840796","340461.444401","344327.741833","345094.926993","345861.572956","346628.286627","347394.485525","333578.806239","334345.290504","335111.556492","346637.732796","Mapping"
"Mixed","Both","cave","13","m150priest.wav","space","350.104330573","103","343578.685043","335861.516995","336628.42761","337395.116238","338161.360585","338928.369825","339694.840796","340461.444401","344327.741833","345094.926993","345861.572956","346628.286627","347394.485525","348161.441897","334345.290504","335111.556492","347403.206373","Mapping"
"Mixed","Both","cave","13","m150ball.wav","None","724.039731314","103","343578.685043","335861.516995","336628.42761","337395.116238","338161.360585","338928.369825","339694.840796","340461.444401","344327.741833","345094.926993","345861.572956","346628.286627","347394.485525","348161.441897","348928.553165","335111.556492","348170.22458","Mapping"
"Mixed","Both","cave","13","m160cave.wav","None","720.572044607","103","343578.685043","335861.516995","336628.42761","337395.116238","338161.360585","338928.369825","339694.840796","340461.444401","344327.741833","345094.926993","345861.572956","346628.286627","347394.485525","348161.441897","348928.553165","349677.752793","348938.162887","Mapping"
"Mixed","Both","cave","13","m160dime.wav","None","736.526927678","103","343578.685043","350444.437402","336628.42761","337395.116238","338161.360585","338928.369825","339694.840796","340461.444401","344327.741833","345094.926993","345861.572956","346628.286627","347394.485525","348161.441897","348928.553165","349677.752793","349686.633793","Mapping"
"Mixed","Both","cave","13","m160cad.wav","space","0.0185503158718","103","343578.685043","350444.437402","351211.091712","337395.116238","338161.360585","338928.369825","339694.840796","340461.444401","344327.741833","345094.926993","345861.572956","346628.286627","347394.485525","348161.441897","348928.553165","349677.752793","350453.205245","Mapping"
"Mixed","Both","cave","13","m160cad.wav","space","365.507648326","103","343578.685043","350444.437402","351211.091712","351977.790543","338161.360585","338928.369825","339694.840796","340461.444401","344327.741833","345094.926993","345861.572956","346628.286627","347394.485525","348161.441897","348928.553165","349677.752793","351219.756909","Mapping"
"Mixed","Both","cave","13","m160cave.wav","None","730.245146435","103","343578.685043","350444.437402","351211.091712","351977.790543","352744.822044","338928.369825","339694.840796","340461.444401","344327.741833","345094.926993","345861.572956","346628.286627","347394.485525","348161.441897","348928.553165","349677.752793","351986.571989","Mapping"
"Mixed","Both","cave","13","m160ball.wav","space","470.669820672","103","343578.685043","350444.437402","351211.091712","351977.790543","352744.822044","353511.097926","339694.840796","340461.444401","344327.741833","345094.926993","345861.572956","346628.286627","347394.485525","348161.441897","348928.553165","349677.752793","352754.548324","Mapping"
"Mixed","Both","cave","13","m150done.wav","None","725.823351415","103","343578.685043","350444.437402","351211.091712","351977.790543","352744.822044","353511.097926","354278.459625","340461.444401","344327.741833","345094.926993","345861.572956","346628.286627","347394.485525","348161.441897","348928.553165","349677.752793","353519.698197","Mapping"
"Mixed","Both","cave","13","m150jaw.wav","None","721.894378308","103","343578.685043","350444.437402","351211.091712","351977.790543","352744.822044","353511.097926","354278.459625","355045.163403","344327.741833","345094.926993","345861.572956","346628.286627","347394.485525","348161.441897","348928.553165","349677.752793","354287.950624","Mapping"
"Mixed","Both","cave","20","m150greet.wav","None","719.582381193","103","358161.71737","350444.437402","351211.091712","351977.790543","352744.822044","353511.097926","354278.459625","355045.163403","344327.741833","345094.926993","345861.572956","346628.286627","347394.485525","348161.441897","348928.553165","349677.752793","355054.801568","Mapping"
"Mixed","Both","cave","20","m160bluff.wav","None","720.898222411","103","358161.71737","350444.437402","351211.091712","351977.790543","352744.822044","353511.097926","354278.459625","355045.163403","358911.233592","345094.926993","345861.572956","346628.286627","347394.485525","348161.441897","348928.553165","349677.752793","358171.199094","Mapping"
"Mixed","Both","cave","20","m150romp.wav","None","736.593090696","103","358161.71737","350444.437402","351211.091712","351977.790543","352744.822044","353511.097926","354278.459625","355045.163403","358911.233592","359677.976634","345861.572956","346628.286627","347394.485525","348161.441897","348928.553165","349677.752793","358920.073472","Mapping"
"Mixed","Both","cave","20","m160cave.wav","None","734.160515945","103","358161.71737","350444.437402","351211.091712","351977.790543","352744.822044","353511.097926","354278.459625","355045.163403","358911.233592","359677.976634","360444.258391","346628.286627","347394.485525","348161.441897","348928.553165","349677.752793","359687.048085","Mapping"
"Mixed","Both","cave","20","m160jaw.wav","space","396.006038645","103","358161.71737","350444.437402","351211.091712","351977.790543","352744.822044","353511.097926","354278.459625","355045.163403","358911.233592","359677.976634","360444.258391","361210.930942","347394.485525","348161.441897","348928.553165","349677.752793","360453.071991","Mapping"
"Mixed","Both","cave","20","m150cave.wav","None","730.293068336","103","358161.71737","350444.437402","351211.091712","351977.790543","352744.822044","353511.097926","354278.459625","355045.163403","358911.233592","359677.976634","360444.258391","361210.930942","361977.99367","348161.441897","348928.553165","349677.752793","361219.541416","Mapping"
"Mixed","Both","cave","20","m150cad.wav","space","398.033287376","103","358161.71737","350444.437402","351211.091712","351977.790543","352744.822044","353511.097926","354278.459625","355045.163403","358911.233592","359677.976634","360444.258391","361210.930942","361977.99367","362745.05918","348928.553165","349677.752793","361986.999885","Mapping"
"Mixed","Both","cave","20","m150cave.wav","None","723.761784611","103","358161.71737","350444.437402","351211.091712","351977.790543","352744.822044","353511.097926","354278.459625","355045.163403","358911.233592","359677.976634","360444.258391","361210.930942","361977.99367","362745.05918","363511.599715","349677.752793","362754.560382","Mapping"
"Mixed","Both","cave","20","m160done.wav","space","399.469087599","103","358161.71737","350444.437402","351211.091712","351977.790543","352744.822044","353511.097926","354278.459625","355045.163403","358911.233592","359677.976634","360444.258391","361210.930942","361977.99367","362745.05918","363511.599715","364278.448495","363521.563439","Mapping"
"Mixed","Both","cave","20","m160reek.wav","None","718.925388297","103","358161.71737","365027.516415","351211.091712","351977.790543","352744.822044","353511.097926","354278.459625","355045.163403","358911.233592","359677.976634","360444.258391","361210.930942","361977.99367","362745.05918","363511.599715","364278.448495","364288.110157","Mapping"
"Mixed","Both","cave","20","m160cave.wav","None","735.205212375","103","358161.71737","365027.516415","365794.560592","351977.790543","352744.822044","353511.097926","354278.459625","355045.163403","358911.233592","359677.976634","360444.258391","361210.930942","361977.99367","362745.05918","363511.599715","364278.448495","365036.372063","Mapping"
"Mixed","Both","cave","20","m150park.wav","space","397.289107554","103","358161.71737","365027.516415","365794.560592","366561.222631","352744.822044","353511.097926","354278.459625","355045.163403","358911.233592","359677.976634","360444.258391","361210.930942","361977.99367","362745.05918","363511.599715","364278.448495","365803.702225","Mapping"
"Mixed","Both","cave","20","m150jaw.wav","None","729.441296309","103","358161.71737","365027.516415","365794.560592","366561.222631","367327.947742","353511.097926","354278.459625","355045.163403","358911.233592","359677.976634","360444.258391","361210.930942","361977.99367","362745.05918","363511.599715","364278.448495","366570.829261","Mapping"
"Mixed","Both","cave","20","m160priest.wav","None","727.746717865","103","358161.71737","365027.516415","365794.560592","366561.222631","367327.947742","368094.459833","354278.459625","355045.163403","358911.233592","359677.976634","360444.258391","361210.930942","361977.99367","362745.05918","363511.599715","364278.448495","367336.957977","Mapping"
"Mixed","Both","cave","20","m150jolt.wav","None","725.569829345","103","358161.71737","365027.516415","365794.560592","366561.222631","367327.947742","368094.459833","368860.965739","355045.163403","358911.233592","359677.976634","360444.258391","361210.930942","361977.99367","362745.05918","363511.599715","364278.448495","368103.827781","Mapping"
"Mixed","Both","cave","20","m160lash.wav","None","724.172675516","103","358161.71737","365027.516415","365794.560592","366561.222631","367327.947742","368094.459833","368860.965739","369628.358664","358911.233592","359677.976634","360444.258391","361210.930942","361977.99367","362745.05918","363511.599715","364278.448495","368869.856942","Mapping"
"Mixed","Both","cave","19","m160ball.wav","None","720.110140042","103","372744.83874","365027.516415","365794.560592","366561.222631","367327.947742","368094.459833","368860.965739","369628.358664","358911.233592","359677.976634","360444.258391","361210.930942","361977.99367","362745.05918","363511.599715","364278.448495","369638.410503","Mapping"
"Mixed","Both","cave","19","m160dime.wav","None","720.081386622","103","372744.83874","365027.516415","365794.560592","366561.222631","367327.947742","368094.459833","368860.965739","369628.358664","373493.959219","359677.976634","360444.258391","361210.930942","361977.99367","362745.05918","363511.599715","364278.448495","372754.842039","Mapping"
"Mixed","Both","cave","19","m160reek.wav","None","736.897008028","103","372744.83874","365027.516415","365794.560592","366561.222631","367327.947742","368094.459833","368860.965739","369628.358664","373493.959219","374260.69948","360444.258391","361210.930942","361977.99367","362745.05918","363511.599715","364278.448495","373502.616687","Mapping"
"Mixed","Both","cave","19","m150cave.wav","None","734.880271135","103","372744.83874","365027.516415","365794.560592","366561.222631","367327.947742","368094.459833","368860.965739","369628.358664","373493.959219","374260.69948","375027.713358","361210.930942","361977.99367","362745.05918","363511.599715","364278.448495","374269.278108","Mapping"
"Mixed","Both","cave","19","m160jaw.wav","space","347.748121712","103","372744.83874","365027.516415","365794.560592","366561.222631","367327.947742","368094.459833","368860.965739","369628.358664","373493.959219","374260.69948","375027.713358","375794.354374","361977.99367","362745.05918","363511.599715","364278.448495","375037.084088","Mapping"
"Mixed","Both","cave","19","m150jaw.wav","None","729.429856641","103","372744.83874","365027.516415","365794.560592","366561.222631","367327.947742","368094.459833","368860.965739","369628.358664","373493.959219","374260.69948","375027.713358","375794.354374","376560.66983","362745.05918","363511.599715","364278.448495","375803.478693","Mapping"
"Mixed","Both","cave","19","m150cad.wav","None","733.95367898","103","372744.83874","365027.516415","365794.560592","366561.222631","367327.947742","368094.459833","368860.965739","369628.358664","373493.959219","374260.69948","375027.713358","375794.354374","376560.66983","377327.325686","363511.599715","364278.448495","376563.764654","Mapping"
"Mixed","Both","cave","19","m160cave.wav","None","726.145200664","103","372744.83874","365027.516415","365794.560592","366561.222631","367327.947742","368094.459833","368860.965739","369628.358664","373493.959219","374260.69948","375027.713358","375794.354374","376560.66983","377327.325686","378094.725722","364278.448495","377336.242859","Mapping"
"Mixed","Both","cave","19","m150reek.wav","space","408.661116147","103","372744.83874","365027.516415","365794.560592","366561.222631","367327.947742","368094.459833","368860.965739","369628.358664","373493.959219","374260.69948","375027.713358","375794.354374","376560.66983","377327.325686","378094.725722","378861.606037","378104.109128","Mapping"
"Mixed","Both","cave","19","m160cave.wav","None","719.774068566","103","372744.83874","379610.698382","365794.560592","366561.222631","367327.947742","368094.459833","368860.965739","369628.358664","373493.959219","374260.69948","375027.713358","375794.354374","376560.66983","377327.325686","378094.725722","378861.606037","378871.299545","Mapping"
"Mixed","Both","cave","19","m150park.wav","space","620.911300415","103","372744.83874","379610.698382","380377.653208","366561.222631","367327.947742","368094.459833","368860.965739","369628.358664","373493.959219","374260.69948","375027.713358","375794.354374","376560.66983","377327.325686","378094.725722","378861.606037","379619.828267","Mapping"
"Mixed","Both","cave","19","m150reek.wav","None","732.905582059","103","372744.83874","379610.698382","380377.653208","381143.886115","367327.947742","368094.459833","368860.965739","369628.358664","373493.959219","374260.69948","375027.713358","375794.354374","376560.66983","377327.325686","378094.725722","378861.606037","380386.990548","Mapping"
"Mixed","Both","cave","19","m160ball.wav","None","731.880054343","103","372744.83874","379610.698382","380377.653208","381143.886115","381910.47519","368094.459833","368860.965739","369628.358664","373493.959219","374260.69948","375027.713358","375794.354374","376560.66983","377327.325686","378094.725722","378861.606037","381152.636335","Mapping"
"Mixed","Both","cave","19","m150cave.wav","None","732.420179993","103","372744.83874","379610.698382","380377.653208","381143.886115","381910.47519","382677.258425","368860.965739","369628.358664","373493.959219","374260.69948","375027.713358","375794.354374","376560.66983","377327.325686","378094.725722","378861.606037","381919.067113","Mapping"
"Mixed","Both","cave","19","m150jolt.wav","space","386.596352328","103","372744.83874","379610.698382","380377.653208","381143.886115","381910.47519","382677.258425","383444.622288","369628.358664","373493.959219","374260.69948","375027.713358","375794.354374","376560.66983","377327.325686","378094.725722","378861.606037","382686.087175","Mapping"
"Mixed","Both","cave","19","m160bluff.wav","None","726.243208628","103","372744.83874","379610.698382","380377.653208","381143.886115","381910.47519","382677.258425","383444.622288","384210.779138","373493.959219","374260.69948","375027.713358","375794.354374","376560.66983","377327.325686","378094.725722","378861.606037","383453.950352","Mapping"
"Mixed","Both","done","48","m150depth.wav","None","724.495452596","103","387344.452953","379610.698382","380377.653208","381143.886115","381910.47519","382677.258425","383444.622288","384210.779138","373493.959219","374260.69948","375027.713358","375794.354374","376560.66983","377327.325686","378094.725722","378861.606037","384220.562306","Mapping"
"Mixed","Both","done","48","m160ball.wav","None","720.204437617","103","387344.452953","379610.698382","380377.653208","381143.886115","381910.47519","382677.258425","383444.622288","384210.779138","388094.210948","374260.69948","375027.713358","375794.354374","376560.66983","377327.325686","378094.725722","378861.606037","387354.436156","Mapping"
"Mixed","Both","done","48","m150cave.wav","None","735.354851931","103","387344.452953","379610.698382","380377.653208","381143.886115","381910.47519","382677.258425","383444.622288","384210.779138","388094.210948","388860.838051","375027.713358","375794.354374","376560.66983","377327.325686","378094.725722","378861.606037","388103.899509","Mapping"
"Mixed","Both","done","48","m150done.wav","None","734.091261169","103","387344.452953","379610.698382","380377.653208","381143.886115","381910.47519","382677.258425","383444.622288","384210.779138","388094.210948","388860.838051","389627.138358","375794.354374","376560.66983","377327.325686","378094.725722","378861.606037","388869.911666","Mapping"
"Mixed","Both","done","48","m160ball.wav","space","348.378525581","103","387344.452953","379610.698382","380377.653208","381143.886115","381910.47519","382677.258425","383444.622288","384210.779138","388094.210948","388860.838051","389627.138358","390394.130594","376560.66983","377327.325686","378094.725722","378861.606037","389636.168998","Mapping"
"Mixed","Both","done","48","m150done.wav","None","729.510860052","103","387344.452953","379610.698382","380377.653208","381143.886115","381910.47519","382677.258425","383444.622288","384210.779138","388094.210948","388860.838051","389627.138358","390394.130594","391160.781503","377327.325686","378094.725722","378861.606037","390403.381984","Mapping"
"Mixed","Both","done","48","m150cling.wav","space","454.73348815","103","387344.452953","379610.698382","380377.653208","381143.886115","381910.47519","382677.258425","383444.622288","384210.779138","388094.210948","388860.838051","389627.138358","390394.130594","391160.781503","391927.435504","378094.725722","378861.606037","391169.752164","Mapping"
"Mixed","Both","done","48","m160done.wav","None","724.989202106","103","387344.452953","379610.698382","380377.653208","381143.886115","381910.47519","382677.258425","383444.622288","384210.779138","388094.210948","388860.838051","389627.138358","390394.130594","391160.781503","391927.435504","392694.340244","378861.606037","391936.776863","Mapping"
"Mixed","Both","done","48","m150reek.wav","space","336.568109458","103","387344.452953","379610.698382","380377.653208","381143.886115","381910.47519","382677.258425","383444.622288","384210.779138","388094.210948","388860.838051","389627.138358","390394.130594","391160.781503","391927.435504","392694.340244","393460.5512","392703.921522","Mapping"
"Mixed","Both","done","48","m160dime.wav","None","721.30138427","103","387344.452953","394210.526234","380377.653208","381143.886115","381910.47519","382677.258425","383444.622288","384210.779138","388094.210948","388860.838051","389627.138358","390394.130594","391160.781503","391927.435504","392694.340244","393460.5512","393469.453533","Mapping"
"Mixed","Both","done","48","m160bluff.wav","space","372.975727078","103","387344.452953","394210.526234","394977.156738","381143.886115","381910.47519","382677.258425","383444.622288","384210.779138","388094.210948","388860.838051","389627.138358","390394.130594","391160.781503","391927.435504","392694.340244","393460.5512","394219.503697","Mapping"
"Mixed","Both","done","48","m160depth.wav","None","733.464876423","103","387344.452953","394210.526234","394977.156738","395743.947393","381910.47519","382677.258425","383444.622288","384210.779138","388094.210948","388860.838051","389627.138358","390394.130594","391160.781503","391927.435504","392694.340244","393460.5512","394986.295589","Mapping"
"Mixed","Both","done","48","m160gnash.wav","None","731.457414571","103","387344.452953","394210.526234","394977.156738","395743.947393","396510.61067","382677.258425","383444.622288","384210.779138","388094.210948","388860.838051","389627.138358","390394.130594","391160.781503","391927.435504","392694.340244","393460.5512","395753.168175","Mapping"
"Mixed","Both","done","48","m150depth.wav","None","729.775821557","103","387344.452953","394210.526234","394977.156738","395743.947393","396510.61067","397277.305172","383444.622288","384210.779138","388094.210948","388860.838051","389627.138358","390394.130594","391160.781503","391927.435504","392694.340244","393460.5512","396519.689231","Mapping"
"Mixed","Both","done","48","m160done.wav","None","727.491031634","103","387344.452953","394210.526234","394977.156738","395743.947393","396510.61067","397277.305172","398043.585073","384210.779138","388094.210948","388860.838051","389627.138358","390394.130594","391160.781503","391927.435504","392694.340244","393460.5512","397286.992496","Mapping"
"Mixed","Both","done","48","m150gnash.wav","space","564.050948014","103","387344.452953","394210.526234","394977.156738","395743.947393","396510.61067","397277.305172","398043.585073","398810.815373","388094.210948","388860.838051","389627.138358","390394.130594","391160.781503","391927.435504","392694.340244","393460.5512","398052.363737","Mapping"
"Mixed","Both","done","43","m150cad.wav","None","723.708606791","103","401927.630902","394210.526234","394977.156738","395743.947393","396510.61067","397277.305172","398043.585073","398810.815373","388094.210948","388860.838051","389627.138358","390394.130594","391160.781503","391927.435504","392694.340244","393460.5512","398819.914959","Mapping"
"Mixed","Both","done","43","m160done.wav","None","721.27603204","103","401927.630902","394210.526234","394977.156738","395743.947393","396510.61067","397277.305172","398043.585073","398810.815373","402694.31211","388860.838051","389627.138358","390394.130594","391160.781503","391927.435504","392694.340244","393460.5512","401937.13334","Mapping"
"Mixed","Both","done","43","m150bluff.wav","space","512.297209585","103","401927.630902","394210.526234","394977.156738","395743.947393","396510.61067","397277.305172","398043.585073","398810.815373","402694.31211","403443.859557","389627.138358","390394.130594","391160.781503","391927.435504","392694.340244","393460.5512","402703.996342","Mapping"
"Mixed","Both","done","43","m160romp.wav","None","734.03004487","103","401927.630902","394210.526234","394977.156738","395743.947393","396510.61067","397277.305172","398043.585073","398810.815373","402694.31211","403443.859557","404210.544476","390394.130594","391160.781503","391927.435504","392694.340244","393460.5512","403453.067663","Mapping"
"Mixed","Both","done","43","m160dime.wav","None","732.375350082","103","401927.630902","394210.526234","394977.156738","395743.947393","396510.61067","397277.305172","398043.585073","398810.815373","402694.31211","403443.859557","404210.544476","404976.852821","391160.781503","391927.435504","392694.340244","393460.5512","404219.591192","Mapping"
"Mixed","Both","done","43","m150reek.wav","None","731.112377485","103","401927.630902","394210.526234","394977.156738","395743.947393","396510.61067","397277.305172","398043.585073","398810.815373","402694.31211","403443.859557","404210.544476","404976.852821","405743.85526","391927.435504","392694.340244","393460.5512","404985.725782","Mapping"
"Mixed","Both","done","43","m160done.wav","None","728.691860335","103","401927.630902","394210.526234","394977.156738","395743.947393","396510.61067","397277.305172","398043.585073","398810.815373","402694.31211","403443.859557","404210.544476","404976.852821","405743.85526","406510.499676","392694.340244","393460.5512","405753.189817","Mapping"
"Mixed","Both","done","43","m150cling.wav","space","368.752730312","103","401927.630902","394210.526234","394977.156738","395743.947393","396510.61067","397277.305172","398043.585073","398810.815373","402694.31211","403443.859557","404210.544476","404976.852821","405743.85526","406510.499676","407276.812659","393460.5512","406519.526915","Mapping"
"Mixed","Both","done","43","m150reek.wav","None","725.545404712","103","401927.630902","394210.526234","394977.156738","395743.947393","396510.61067","397277.305172","398043.585073","398810.815373","402694.31211","403443.859557","404210.544476","404976.852821","405743.85526","406510.499676","407276.812659","408044.209603","407285.572154","Mapping"
"Mixed","Both","done","43","m160jolt.wav","None","722.402040614","103","401927.630902","408810.667279","394977.156738","395743.947393","396510.61067","397277.305172","398043.585073","398810.815373","402694.31211","403443.859557","404210.544476","404976.852821","405743.85526","406510.499676","407276.812659","408044.209603","408053.559619","Mapping"
"Mixed","Both","done","43","m150depth.wav","None","721.379295923","103","401927.630902","408810.667279","409560.413525","395743.947393","396510.61067","397277.305172","398043.585073","398810.815373","402694.31211","403443.859557","404210.544476","404976.852821","405743.85526","406510.499676","407276.812659","408044.209603","408819.507159","Mapping"
"Mixed","Both","done","43","m150done.wav","None","736.711813137","103","401927.630902","408810.667279","409560.413525","410327.016203","396510.61067","397277.305172","398043.585073","398810.815373","402694.31211","403443.859557","404210.544476","404976.852821","405743.85526","406510.499676","407276.812659","408044.209603","409569.133755","Mapping"
"Mixed","Both","done","43","m160lash.wav","space","423.792670947","103","401927.630902","408810.667279","409560.413525","410327.016203","411093.416373","397277.305172","398043.585073","398810.815373","402694.31211","403443.859557","404210.544476","404976.852821","405743.85526","406510.499676","407276.812659","408044.209603","410336.411977","Mapping"
"Mixed","Both","done","43","m150done.wav","None","732.642475516","103","401927.630902","408810.667279","409560.413525","410327.016203","411093.416373","411860.050896","398043.585073","398810.815373","402694.31211","403443.859557","404210.544476","404976.852821","405743.85526","406510.499676","407276.812659","408044.209603","411102.127637","Mapping"
"Mixed","Both","done","43","m160park.wav","space","555.328244576","103","401927.630902","408810.667279","409560.413525","410327.016203","411093.416373","411860.050896","412626.696858","398810.815373","402694.31211","403443.859557","404210.544476","404976.852821","405743.85526","406510.499676","407276.812659","408044.209603","411868.831106","Mapping"
"Mixed","Both","done","43","m160priest.wav","None","728.322707349","103","401927.630902","408810.667279","409560.413525","410327.016203","411093.416373","411860.050896","412626.696858","413393.310976","402694.31211","403443.859557","404210.544476","404976.852821","405743.85526","406510.499676","407276.812659","408044.209603","412635.538594","Mapping"
"Mixed","Both","tile","25","m150cad.wav","None","727.375091752","103","416527.352089","408810.667279","409560.413525","410327.016203","411093.416373","411860.050896","412626.696858","413393.310976","402694.31211","403443.859557","404210.544476","404976.852821","405743.85526","406510.499676","407276.812659","408044.209603","413402.018839","Mapping"
"Mixed","Both","tile","25","m150cad.wav","None","721.007978776","103","416527.352089","408810.667279","409560.413525","410327.016203","411093.416373","411860.050896","412626.696858","413393.310976","417294.05092","403443.859557","404210.544476","404976.852821","405743.85526","406510.499676","407276.812659","408044.209603","416537.171739","Mapping"
"Mixed","Both","tile","25","m160jaw.wav","None","719.713161467","103","416527.352089","408810.667279","409560.413525","410327.016203","411093.416373","411860.050896","412626.696858","413393.310976","417294.05092","418043.345464","404210.544476","404976.852821","405743.85526","406510.499676","407276.812659","408044.209603","417303.449167","Mapping"
"Mixed","Both","tile","25","m150dime.wav","None","735.880137188","103","416527.352089","408810.667279","409560.413525","410327.016203","411093.416373","411860.050896","412626.696858","413393.310976","417294.05092","418043.345464","418810.170129","404976.852821","405743.85526","406510.499676","407276.812659","408044.209603","418052.378578","Mapping"
"Mixed","Both","tile","25","m160cave.wav","None","734.023861354","103","416527.352089","408810.667279","409560.413525","410327.016203","411093.416373","411860.050896","412626.696858","413393.310976","417294.05092","418043.345464","418810.170129","419576.878235","405743.85526","406510.499676","407276.812659","408044.209603","418819.279917","Mapping"
"Mixed","Both","tile","25","m160lash.wav","None","732.480778126","103","416527.352089","408810.667279","409560.413525","410327.016203","411093.416373","411860.050896","412626.696858","413393.310976","417294.05092","418043.345464","418810.170129","419576.878235","420343.580467","406510.499676","407276.812659","408044.209603","419585.884759","Mapping"
"Mixed","Both","tile","25","m150bluff.wav","None","730.346555356","103","416527.352089","408810.667279","409560.413525","410327.016203","411093.416373","411860.050896","412626.696858","413393.310976","417294.05092","418043.345464","418810.170129","419576.878235","420343.580467","421110.209734","407276.812659","408044.209603","420353.007467","Mapping"
"Mixed","Both","tile","25","m160tile.wav","None","729.366167216","103","416527.352089","408810.667279","409560.413525","410327.016203","411093.416373","411860.050896","412626.696858","413393.310976","417294.05092","418043.345464","418810.170129","419576.878235","420343.580467","421110.209734","421876.884758","408044.209603","421119.296952","Mapping"
"Mixed","Both","tile","25","m160romp.wav","space","418.016697047","103","416527.352089","408810.667279","409560.413525","410327.016203","411093.416373","411860.050896","412626.696858","413393.310976","417294.05092","418043.345464","418810.170129","419576.878235","420343.580467","421110.209734","421876.884758","422643.529175","421885.949407","Mapping"
"Mixed","Both","tile","25","m160tile.wav","None","724.230181891","103","416527.352089","423410.423403","409560.413525","410327.016203","411093.416373","411860.050896","412626.696858","413393.310976","417294.05092","418043.345464","418810.170129","419576.878235","420343.580467","421110.209734","421876.884758","422643.529175","422653.460437","Mapping"
"Mixed","Both","tile","25","m160lash.wav","space","371.978952782","103","416527.352089","423410.423403","424177.157171","410327.016203","411093.416373","411860.050896","412626.696858","413393.310976","417294.05092","418043.345464","418810.170129","419576.878235","420343.580467","421110.209734","421876.884758","422643.529175","423419.966653","Mapping"
"Mixed","Both","tile","25","m160done.wav","None","720.227316488","103","416527.352089","423410.423403","424177.157171","424926.256936","411093.416373","411860.050896","412626.696858","413393.310976","417294.05092","418043.345464","418810.170129","419576.878235","420343.580467","421110.209734","421876.884758","422643.529175","424186.698874","Mapping"
"Mixed","Both","tile","25","m150tile.wav","space","553.006972186","103","416527.352089","423410.423403","424177.157171","424926.256936","425693.507641","411860.050896","412626.696858","413393.310976","417294.05092","418043.345464","418810.170129","419576.878235","420343.580467","421110.209734","421876.884758","422643.529175","424934.922133","Mapping"
"Mixed","Both","tile","25","m150reek.wav","space","616.554740816","103","416527.352089","423410.423403","424177.157171","424926.256936","425693.507641","426459.862053","412626.696858","413393.310976","417294.05092","418043.345464","418810.170129","419576.878235","420343.580467","421110.209734","421876.884758","422643.529175","425703.307195","Mapping"
"Mixed","Both","tile","25","m150tile.wav","None","731.782973977","103","416527.352089","423410.423403","424177.157171","424926.256936","425693.507641","426459.862053","427226.806677","413393.310976","417294.05092","418043.345464","418810.170129","419576.878235","420343.580467","421110.209734","421876.884758","422643.529175","426468.849409","Mapping"
"Mixed","Both","tile","25","m150romp.wav","space","500.150412787","103","416527.352089","423410.423403","424177.157171","424926.256936","425693.507641","426459.862053","427226.806677","427993.420176","417294.05092","418043.345464","418810.170129","419576.878235","420343.580467","421110.209734","421876.884758","422643.529175","427235.764661","Mapping"
"Mixed","Both","tile","26","m160depth.wav","None","726.646061288","103","431127.0943","423410.423403","424177.157171","424926.256936","425693.507641","426459.862053","427226.806677","427993.420176","417294.05092","418043.345464","418810.170129","419576.878235","420343.580467","421110.209734","421876.884758","422643.529175","428003.182938","Mapping"
"Mixed","Both","tile","26","m160park.wav","None","721.345596015","103","431127.0943","423410.423403","424177.157171","424926.256936","425693.507641","426459.862053","427226.806677","427993.420176","431893.770562","418043.345464","418810.170129","419576.878235","420343.580467","421110.209734","421876.884758","422643.529175","431136.477089","Mapping"
"Mixed","Both","tile","26","m150priest.wav","None","719.57496088","103","431127.0943","423410.423403","424177.157171","424926.256936","425693.507641","426459.862053","427226.806677","427993.420176","431893.770562","432643.196814","418810.170129","419576.878235","420343.580467","421110.209734","421876.884758","422643.529175","431903.373791","Mapping"
"Mixed","Both","tile","26","m160jolt.wav","None","735.770071624","103","431127.0943","423410.423403","424177.157171","424926.256936","425693.507641","426459.862053","427226.806677","427993.420176","431893.770562","432643.196814","433409.792072","419576.878235","420343.580467","421110.209734","421876.884758","422643.529175","432652.336901","Mapping"
"Mixed","Both","tile","26","m150jolt.wav","None","734.387758188","103","431127.0943","423410.423403","424177.157171","424926.256936","425693.507641","426459.862053","427226.806677","427993.420176","431893.770562","432643.196814","433409.792072","434176.549646","420343.580467","421110.209734","421876.884758","422643.529175","433418.851774","Mapping"
"Mixed","Both","tile","26","m160tile.wav","None","732.893833425","103","431127.0943","423410.423403","424177.157171","424926.256936","425693.507641","426459.862053","427226.806677","427993.420176","431893.770562","432643.196814","433409.792072","434176.549646","434943.258988","421110.209734","421876.884758","422643.529175","434185.39911","Mapping"
"Mixed","Both","tile","26","m150dime.wav","space","415.075223427","103","431127.0943","423410.423403","424177.157171","424926.256936","425693.507641","426459.862053","427226.806677","427993.420176","431893.770562","432643.196814","433409.792072","434176.549646","434943.258988","435709.880217","421876.884758","422643.529175","434952.677332","Mapping"
"Mixed","Both","tile","26","m160depth.wav","None","727.96066571","103","431127.0943","423410.423403","424177.157171","424926.256936","425693.507641","426459.862053","427226.806677","427993.420176","431893.770562","432643.196814","433409.792072","434176.549646","434943.258988","435709.880217","436476.642738","422643.529175","435719.47046","Mapping"
"Mixed","Both","tile","26","m150tile.wav","None","727.189278696","103","431127.0943","423410.423403","424177.157171","424926.256936","425693.507641","426459.862053","427226.806677","427993.420176","431893.770562","432643.196814","433409.792072","434176.549646","434943.258988","435709.880217","436476.642738","437243.207697","436485.60134","Mapping"
"Mixed","Both","tile","26","m150greet.wav","space","499.094586354","103","431127.0943","438010.172107","424177.157171","424926.256936","425693.507641","426459.862053","427226.806677","427993.420176","431893.770562","432643.196814","433409.792072","434176.549646","434943.258988","435709.880217","436476.642738","437243.207697","437252.595432","Mapping"
"Mixed","Both","tile","26","m160tile.wav","None","722.847868688","103","431127.0943","438010.172107","438776.902474","424926.256936","425693.507641","426459.862053","427226.806677","427993.420176","431893.770562","432643.196814","433409.792072","434176.549646","434943.258988","435709.880217","436476.642738","437243.207697","438019.610238","Mapping"
"Mixed","Both","tile","26","m150romp.wav","space","589.163850527","103","431127.0943","438010.172107","438776.902474","439526.530307","425693.507641","426459.862053","427226.806677","427993.420176","431893.770562","432643.196814","433409.792072","434176.549646","434943.258988","435709.880217","436476.642738","437243.207697","438786.472621","Mapping"
"Mixed","Both","tile","26","m150tile.wav","None","736.64286756","103","431127.0943","438010.172107","438776.902474","439526.530307","440292.970978","426459.862053","427226.806677","427993.420176","431893.770562","432643.196814","433409.792072","434176.549646","434943.258988","435709.880217","436476.642738","437243.207697","439535.389356","Mapping"
"Mixed","Both","tile","26","m160greet.wav","space","513.644276885","103","431127.0943","438010.172107","438776.902474","439526.530307","440292.970978","441059.534082","427226.806677","427993.420176","431893.770562","432643.196814","433409.792072","434176.549646","434943.258988","435709.880217","436476.642738","437243.207697","440302.005637","Mapping"
"Mixed","Both","tile","26","m160ball.wav","None","733.370887581","103","431127.0943","438010.172107","438776.902474","439526.530307","440292.970978","441059.534082","441826.590936","427993.420176","431893.770562","432643.196814","433409.792072","434176.549646","434943.258988","435709.880217","436476.642738","437243.207697","441068.133425","Mapping"
"Mixed","Both","tile","26","m150knife.wav","None","731.157516595","103","431127.0943","438010.172107","438776.902474","439526.530307","440292.970978","441059.534082","441826.590936","442593.117557","431893.770562","432643.196814","433409.792072","434176.549646","434943.258988","435709.880217","436476.642738","437243.207697","441835.588803","Mapping"
"Mixed","Both","ball","10","m160gnash.wav","None","729.133359855","103","445726.944413","438010.172107","438776.902474","439526.530307","440292.970978","441059.534082","441826.590936","442593.117557","431893.770562","432643.196814","433409.792072","434176.549646","434943.258988","435709.880217","436476.642738","437243.207697","442602.836417","Mapping"
"Mixed","Both","ball","10","m150depth.wav","None","721.694961656","103","445726.944413","438010.172107","438776.902474","439526.530307","440292.970978","441059.534082","441826.590936","442593.117557","446492.91205","432643.196814","433409.792072","434176.549646","434943.258988","435709.880217","436476.642738","437243.207697","445736.287318","Mapping"
"Mixed","Both","ball","10","m160ball.wav","None","721.230583498","103","445726.944413","438010.172107","438776.902474","439526.530307","440292.970978","441059.534082","441826.590936","442593.117557","446492.91205","447242.667262","433409.792072","434176.549646","434943.258988","435709.880217","436476.642738","437243.207697","446501.844063","Mapping"
"Mixed","Both","ball","10","m160done.wav","space","356.036127545","103","445726.944413","438010.172107","438776.902474","439526.530307","440292.970978","441059.534082","441826.590936","442593.117557","446492.91205","447242.667262","448009.574785","434176.549646","434943.258988","435709.880217","436476.642738","437243.207697","447251.477771","Mapping"
"Mixed","Both","ball","10","m150bluff.wav","None","733.301014407","103","445726.944413","438010.172107","438776.902474","439526.530307","440292.970978","441059.534082","441826.590936","442593.117557","446492.91205","447242.667262","448009.574785","448776.396976","434943.258988","435709.880217","436476.642738","437243.207697","448019.004876","Mapping"
"Mixed","Both","ball","10","m150ball.wav","None","732.970199315","103","445726.944413","438010.172107","438776.902474","439526.530307","440292.970978","441059.534082","441826.590936","442593.117557","446492.91205","447242.667262","448009.574785","448776.396976","449542.620608","435709.880217","436476.642738","437243.207697","448785.410302","Mapping"
"Mixed","Both","ball","10","m150tile.wav","space","360.149986111","103","445726.944413","438010.172107","438776.902474","439526.530307","440292.970978","441059.534082","441826.590936","442593.117557","446492.91205","447242.667262","448009.574785","448776.396976","449542.620608","450309.391785","436476.642738","437243.207697","449551.304664","Mapping"
"Mixed","Both","ball","10","m150gnash.wav","None","729.093785631","103","445726.944413","438010.172107","438776.902474","439526.530307","440292.970978","441059.534082","441826.590936","442593.117557","446492.91205","447242.667262","448009.574785","448776.396976","449542.620608","450309.391785","451076.370418","437243.207697","450318.764061","Mapping"
"Mixed","Both","ball","10","m160cave.wav","None","727.695395239","103","445726.944413","438010.172107","438776.902474","439526.530307","440292.970978","441059.534082","441826.590936","442593.117557","446492.91205","447242.667262","448009.574785","448776.396976","449542.620608","450309.391785","451076.370418","451842.62373","451085.331494","Mapping"
"Mixed","Both","ball","10","m160cad.wav","None","726.852898253","103","445726.944413","452609.334928","438776.902474","439526.530307","440292.970978","441059.534082","441826.590936","442593.117557","446492.91205","447242.667262","448009.574785","448776.396976","449542.620608","450309.391785","451076.370418","451842.62373","451851.33283","Mapping"
"Mixed","Both","ball","10","m150ball.wav","None","725.518506719","103","445726.944413","452609.334928","453376.595218","439526.530307","440292.970978","441059.534082","441826.590936","442593.117557","446492.91205","447242.667262","448009.574785","448776.396976","449542.620608","450309.391785","451076.370418","451842.62373","452618.014966","Mapping"
"Mixed","Both","ball","10","m150dime.wav","space","362.404477084","103","445726.944413","452609.334928","453376.595218","454143.260349","440292.970978","441059.534082","441826.590936","442593.117557","446492.91205","447242.667262","448009.574785","448776.396976","449542.620608","450309.391785","451076.370418","451842.62373","453381.009593","Mapping"
"Mixed","Both","ball","10","m160gnash.wav","None","720.879981294","103","445726.944413","452609.334928","453376.595218","454143.260349","454909.272506","441059.534082","441826.590936","442593.117557","446492.91205","447242.667262","448009.574785","448776.396976","449542.620608","450309.391785","451076.370418","451842.62373","454152.92974","Mapping"
"Mixed","Both","ball","10","m150gnash.wav","None","720.815364039","103","445726.944413","452609.334928","453376.595218","454143.260349","454909.272506","455659.032047","441826.590936","442593.117557","446492.91205","447242.667262","448009.574785","448776.396976","449542.620608","450309.391785","451076.370418","451842.62373","454918.235746","Mapping"
"Mixed","Both","ball","10","m160ball.wav","None","736.415625084","103","445726.944413","452609.334928","453376.595218","454143.260349","454909.272506","455659.032047","456426.307486","442593.117557","446492.91205","447242.667262","448009.574785","448776.396976","449542.620608","450309.391785","451076.370418","451842.62373","455667.843483","Mapping"
"Mixed","Both","ball","10","m160priest.wav","space","363.603450824","103","445726.944413","452609.334928","453376.595218","454143.260349","454909.272506","455659.032047","456426.307486","457192.839982","446492.91205","447242.667262","448009.574785","448776.396976","449542.620608","450309.391785","451076.370418","451842.62373","456435.733249","Mapping"
"Mixed","Both","done","46","m160cave.wav","None","731.249650242","103","460326.635611","452609.334928","453376.595218","454143.260349","454909.272506","455659.032047","456426.307486","457192.839982","446492.91205","447242.667262","448009.574785","448776.396976","449542.620608","450309.391785","451076.370418","451842.62373","457202.228953","Mapping"
"Mixed","Both","done","46","m160done.wav","None","721.158546163","103","460326.635611","452609.334928","453376.595218","454143.260349","454909.272506","455659.032047","456426.307486","457192.839982","461093.230251","447242.667262","448009.574785","448776.396976","449542.620608","450309.391785","451076.370418","451842.62373","460336.1566","Mapping"
"Mixed","Both","done","46","m150priest.wav","space","480.495344847","103","460326.635611","452609.334928","453376.595218","454143.260349","454909.272506","455659.032047","456426.307486","457192.839982","461093.230251","461842.637025","448009.574785","448776.396976","449542.620608","450309.391785","451076.370418","451842.62373","461102.781848","Mapping"
"Mixed","Both","done","46","m150jolt.wav","None","735.446676379","103","460326.635611","452609.334928","453376.595218","454143.260349","454909.272506","455659.032047","456426.307486","457192.839982","461093.230251","461842.637025","462609.053581","448776.396976","449542.620608","450309.391785","451076.370418","451842.62373","461851.505967","Mapping"
"Mixed","Both","done","46","m150romp.wav","None","734.464433277","103","460326.635611","452609.334928","453376.595218","454143.260349","454909.272506","455659.032047","456426.307486","457192.839982","461093.230251","461842.637025","462609.053581","463375.765397","449542.620608","450309.391785","451076.370418","451842.62373","462617.773192","Mapping"
"Mixed","Both","done","46","m150lash.wav","None","732.849930646","103","460326.635611","452609.334928","453376.595218","454143.260349","454909.272506","455659.032047","456426.307486","457192.839982","461093.230251","461842.637025","462609.053581","463375.765397","464142.898925","450309.391785","451076.370418","451842.62373","463384.601258","Mapping"
"Mixed","Both","done","46","m160done.wav","None","730.070154415","103","460326.635611","452609.334928","453376.595218","454143.260349","454909.272506","455659.032047","456426.307486","457192.839982","461093.230251","461842.637025","462609.053581","463375.765397","464142.898925","464909.515516","451076.370418","451842.62373","464152.570791","Mapping"
"Mixed","Both","done","46","m160priest.wav","space","432.595759397","103","460326.635611","452609.334928","453376.595218","454143.260349","454909.272506","455659.032047","456426.307486","457192.839982","461093.230251","461842.637025","462609.053581","463375.765397","464142.898925","464909.515516","465675.761408","451842.62373","464918.595006","Mapping"
"Mixed","Both","done","46","m160depth.wav","None","727.490413236","103","460326.635611","452609.334928","453376.595218","454143.260349","454909.272506","455659.032047","456426.307486","457192.839982","461093.230251","461842.637025","462609.053581","463375.765397","464142.898925","464909.515516","465675.761408","466442.763538","465684.580265","Mapping"
"Mixed","Both","done","46","m150tile.wav","None","731.940343278","103","460326.635611","467209.177621","453376.595218","454143.260349","454909.272506","455659.032047","456426.307486","457192.839982","461093.230251","461842.637025","462609.053581","463375.765397","464142.898925","464909.515516","465675.761408","466442.763538","466446.3079","Mapping"
"Mixed","Both","done","46","m160priest.wav","None","725.02661217","103","460326.635611","467209.177621","467975.853264","454143.260349","454909.272506","455659.032047","456426.307486","457192.839982","461093.230251","461842.637025","462609.053581","463375.765397","464142.898925","464909.515516","465675.761408","466442.763538","467218.460546","Mapping"
"Mixed","Both","done","46","m160greet.wav","None","723.973568063","103","460326.635611","467209.177621","467975.853264","468743.181262","454909.272506","455659.032047","456426.307486","457192.839982","461093.230251","461842.637025","462609.053581","463375.765397","464142.898925","464909.515516","465675.761408","466442.763538","467984.712931","Mapping"
"Mixed","Both","done","46","m150done.wav","None","721.052190522","103","460326.635611","467209.177621","467975.853264","468743.181262","469509.156937","455659.032047","456426.307486","457192.839982","461093.230251","461842.637025","462609.053581","463375.765397","464142.898925","464909.515516","465675.761408","466442.763538","468753.060583","Mapping"
"Mixed","Both","done","46","m160jolt.wav","space","577.053226996","103","460326.635611","467209.177621","467975.853264","468743.181262","469509.156937","470258.797755","456426.307486","457192.839982","461093.230251","461842.637025","462609.053581","463375.765397","464142.898925","464909.515516","465675.761408","466442.763538","469518.079057","Mapping"
"Mixed","Both","done","46","m150done.wav","None","735.804389929","103","460326.635611","467209.177621","467975.853264","468743.181262","469509.156937","470258.797755","471025.996519","457192.839982","461093.230251","461842.637025","462609.053581","463375.765397","464142.898925","464909.515516","465675.761408","466442.763538","470267.714001","Mapping"
"Mixed","Both","done","46","m150cad.wav","space","476.041704882","103","460326.635611","467209.177621","467975.853264","468743.181262","469509.156937","470258.797755","471025.996519","471792.620221","461093.230251","461842.637025","462609.053581","463375.765397","464142.898925","464909.515516","465675.761408","466442.763538","471035.056222","Mapping"
"Mixed","Both","ball","9","m150dime.wav","None","730.906468118","103","474926.271158","467209.177621","467975.853264","468743.181262","469509.156937","470258.797755","471025.996519","471792.620221","461093.230251","461842.637025","462609.053581","463375.765397","464142.898925","464909.515516","465675.761408","466442.763538","471801.808849","Mapping"
"Mixed","Both","ball","9","m160park.wav","None","720.887401374","103","474926.271158","467209.177621","467975.853264","468743.181262","469509.156937","470258.797755","471025.996519","471792.620221","475692.396472","461842.637025","462609.053581","463375.765397","464142.898925","464909.515516","465675.761408","466442.763538","474936.132855","Mapping"
"Mixed","Both","ball","9","m160cave.wav","None","721.119899536","103","474926.271158","467209.177621","467975.853264","468743.181262","469509.156937","470258.797755","471025.996519","471792.620221","475692.396472","476442.530731","462609.053581","463375.765397","464142.898925","464909.515516","465675.761408","466442.763538","475701.212237","Mapping"
"Mixed","Both","ball","9","m150dime.wav","None","735.857567517","103","474926.271158","467209.177621","467975.853264","468743.181262","469509.156937","470258.797755","471025.996519","471792.620221","475692.396472","476442.530731","477225.8368","463375.765397","464142.898925","464909.515516","465675.761408","466442.763538","476451.862506","Mapping"
"Mixed","Both","ball","9","m160park.wav","None","720.937178237","103","474926.271158","467209.177621","467975.853264","468743.181262","469509.156937","470258.797755","471025.996519","471792.620221","475692.396472","476442.530731","477225.8368","477975.65663","464142.898925","464909.515516","465675.761408","466442.763538","477234.65813","Mapping"
"Mixed","Both","ball","9","m150ball.wav","None","735.911672935","103","474926.271158","467209.177621","467975.853264","468743.181262","469509.156937","470258.797755","471025.996519","471792.620221","475692.396472","476442.530731","477225.8368","477975.65663","478742.048761","464909.515516","465675.761408","466442.763538","477984.908328","Mapping"
"Mixed","Both","ball","9","m160depth.wav","space","352.21072752","103","474926.271158","467209.177621","467975.853264","468743.181262","469509.156937","470258.797755","471025.996519","471792.620221","475692.396472","476442.530731","477225.8368","477975.65663","478742.048761","479508.819011","465675.761408","466442.763538","478750.781049","Mapping"
"Mixed","Both","ball","9","m160depth.wav","None","732.729971409","103","474926.271158","467209.177621","467975.853264","468743.181262","469509.156937","470258.797755","471025.996519","471792.620221","475692.396472","476442.530731","477225.8368","477975.65663","478742.048761","479508.819011","480275.83629","466442.763538","479517.460402","Mapping"
"Mixed","Both","ball","9","m150dime.wav","None","730.768885929","103","474926.271158","467209.177621","467975.853264","468743.181262","469509.156937","470258.797755","471025.996519","471792.620221","475692.396472","476442.530731","477225.8368","477975.65663","478742.048761","479508.819011","480275.83629","481042.424128","480284.811279","Mapping"
"Mixed","Both","ball","9","m150park.wav","None","729.412233923","103","474926.271158","481808.746695","467975.853264","468743.181262","469509.156937","470258.797755","471025.996519","471792.620221","475692.396472","476442.530731","477225.8368","477975.65663","478742.048761","479508.819011","480275.83629","481042.424128","481051.56236","Mapping"
"Mixed","Both","ball","9","m160ball.wav","None","729.394610971","103","474926.271158","481808.746695","482575.460366","468743.181262","469509.156937","470258.797755","471025.996519","471792.620221","475692.396472","476442.530731","477225.8368","477975.65663","478742.048761","479508.819011","480275.83629","481042.424128","481817.388705","Mapping"
"Mixed","Both","ball","9","m150done.wav","space","398.662145715","103","474926.271158","481808.746695","482575.460366","483342.920382","469509.156937","470258.797755","471025.996519","471792.620221","475692.396472","476442.530731","477225.8368","477975.65663","478742.048761","479508.819011","480275.83629","481042.424128","482584.211514","Mapping"
"Mixed","Both","ball","9","m160ball.wav","None","724.052098114","103","474926.271158","481808.746695","482575.460366","483342.920382","484109.063938","470258.797755","471025.996519","471792.620221","475692.396472","476442.530731","477225.8368","477975.65663","478742.048761","479508.819011","480275.83629","481042.424128","483352.254012","Mapping"
"Mixed","Both","ball","9","m150romp.wav","space","496.998701245","103","474926.271158","481808.746695","482575.460366","483342.920382","484109.063938","484875.598598","471025.996519","471792.620221","475692.396472","476442.530731","477225.8368","477975.65663","478742.048761","479508.819011","480275.83629","481042.424128","484117.857133","Mapping"
"Mixed","Both","ball","9","m150ball.wav","None","721.337866737","103","474926.271158","481808.746695","482575.460366","483342.920382","484109.063938","484875.598598","485625.351955","471792.620221","475692.396472","476442.530731","477225.8368","477975.65663","478742.048761","479508.819011","480275.83629","481042.424128","484884.521955","Mapping"
"Mixed","Both","ball","9","m160depth.wav","space","412.612658925","103","474926.271158","481808.746695","482575.460366","483342.920382","484109.063938","484875.598598","485625.351955","486392.215266","475692.396472","476442.530731","477225.8368","477975.65663","478742.048761","479508.819011","480275.83629","481042.424128","485634.183797","Mapping"
"Mixed","Both","done","47","m160depth.wav","None","734.355913475","103","489525.862183","481808.746695","482575.460366","483342.920382","484109.063938","484875.598598","485625.351955","486392.215266","475692.396472","476442.530731","477225.8368","477975.65663","478742.048761","479508.819011","480275.83629","481042.424128","486400.947554","Mapping"
"Mixed","Both","done","47","m160cling.wav","None","720.890802098","103","489525.862183","481808.746695","482575.460366","483342.920382","484109.063938","484875.598598","485625.351955","486392.215266","490292.72735","476442.530731","477225.8368","477975.65663","478742.048761","479508.819011","480275.83629","481042.424128","489535.85126","Mapping"
"Mixed","Both","done","47","m160done.wav","None","719.792618882","103","489525.862183","481808.746695","482575.460366","483342.920382","484109.063938","484875.598598","485625.351955","486392.215266","490292.72735","491042.197813","477225.8368","477975.65663","478742.048761","479508.819011","480275.83629","481042.424128","490302.218967","Mapping"
"Mixed","Both","done","47","m150greet.wav","space","451.268274803","103","489525.862183","481808.746695","482575.460366","483342.920382","484109.063938","484875.598598","485625.351955","486392.215266","490292.72735","491042.197813","491808.938073","477975.65663","478742.048761","479508.819011","480275.83629","481042.424128","491051.47641","Mapping"
"Mixed","Both","done","47","m150done.wav","None","733.369032387","103","489525.862183","481808.746695","482575.460366","483342.920382","484109.063938","484875.598598","485625.351955","486392.215266","490292.72735","491042.197813","491808.938073","492575.371325","478742.048761","479508.819011","480275.83629","481042.424128","491818.039514","Mapping"
"Mixed","Both","done","47","m160knife.wav","space","510.422074003","103","489525.862183","481808.746695","482575.460366","483342.920382","484109.063938","484875.598598","485625.351955","486392.215266","490292.72735","491042.197813","491808.938073","492575.371325","493342.220414","479508.819011","480275.83629","481042.424128","492584.275822","Mapping"
"Mixed","Both","done","47","m160done.wav","None","729.546415154","103","489525.862183","481808.746695","482575.460366","483342.920382","484109.063938","484875.598598","485625.351955","486392.215266","490292.72735","491042.197813","491808.938073","492575.371325","493342.220414","494108.780426","480275.83629","481042.424128","493351.549406","Mapping"
"Mixed","Both","done","47","m150dime.wav","space","384.910740191","103","489525.862183","481808.746695","482575.460366","483342.920382","484109.063938","484875.598598","485625.351955","486392.215266","490292.72735","491042.197813","491808.938073","492575.371325","493342.220414","494108.780426","494875.500899","481042.424128","494117.736864","Mapping"
"Mixed","Both","done","47","m150priest.wav","None","726.129123708","103","489525.862183","481808.746695","482575.460366","483342.920382","484109.063938","484875.598598","485625.351955","486392.215266","490292.72735","491042.197813","491808.938073","492575.371325","493342.220414","494108.780426","494875.500899","495642.651432","494884.565239","Mapping"
"Mixed","Both","done","47","m150jolt.wav","None","723.470234312","103","489525.862183","496408.692342","482575.460366","483342.920382","484109.063938","484875.598598","485625.351955","486392.215266","490292.72735","491042.197813","491808.938073","492575.371325","493342.220414","494108.780426","494875.500899","495642.651432","495652.515912","Mapping"
"Mixed","Both","done","47","m150done.wav","None","723.846188979","103","489525.862183","496408.692342","497175.365821","483342.920382","484109.063938","484875.598598","485625.351955","486392.215266","490292.72735","491042.197813","491808.938073","492575.371325","493342.220414","494108.780426","494875.500899","495642.651432","496417.5854","Mapping"
"Mixed","Both","done","47","m160jaw.wav","space","366.515553091","103","489525.862183","496408.692342","497175.365821","497925.551712","484109.063938","484875.598598","485625.351955","486392.215266","490292.72735","491042.197813","491808.938073","492575.371325","493342.220414","494108.780426","494875.500899","495642.651432","497184.117896","Mapping"
"Mixed","Both","done","47","m150reek.wav","None","736.059766961","103","489525.862183","496408.692342","497175.365821","497925.551712","498692.06813","484875.598598","485625.351955","486392.215266","490292.72735","491042.197813","491808.938073","492575.371325","493342.220414","494108.780426","494875.500899","495642.651432","497934.578642","Mapping"
"Mixed","Both","done","47","m150cad.wav","None","734.23038912","103","489525.862183","496408.692342","497175.365821","497925.551712","498692.06813","499458.727387","485625.351955","486392.215266","490292.72735","491042.197813","491808.938073","492575.371325","493342.220414","494108.780426","494875.500899","495642.651432","498701.698876","Mapping"
"Mixed","Both","done","47","m160bluff.wav","None","733.530730242","103","489525.862183","496408.692342","497175.365821","497925.551712","498692.06813","499458.727387","500225.492381","486392.215266","490292.72735","491042.197813","491808.938073","492575.371325","493342.220414","494108.780426","494875.500899","495642.651432","499467.851398","Mapping"
"Mixed","Both","done","47","m160cad.wav","None","732.232820941","103","489525.862183","496408.692342","497175.365821","497925.551712","498692.06813","499458.727387","500225.492381","500991.734564","490292.72735","491042.197813","491808.938073","492575.371325","493342.220414","494108.780426","494875.500899","495642.651432","500234.509418","Mapping"
"Mixed","Both","tile","27","m150bluff.wav","None","731.646937784","103","504125.758672","496408.692342","497175.365821","497925.551712","498692.06813","499458.727387","500225.492381","500991.734564","490292.72735","491042.197813","491808.938073","492575.371325","493342.220414","494108.780426","494875.500899","495642.651432","501000.508281","Mapping"
"Mixed","Both","tile","27","m160greet.wav","None","719.910723157","103","504125.758672","496408.692342","497175.365821","497925.551712","498692.06813","499458.727387","500225.492381","500991.734564","504892.730503","491042.197813","491808.938073","492575.371325","493342.220414","494108.780426","494875.500899","495642.651432","504135.694881","Mapping"
"Mixed","Both","tile","27","m150tile.wav","None","718.80048234","103","504125.758672","496408.692342","497175.365821","497925.551712","498692.06813","499458.727387","500225.492381","500991.734564","504892.730503","505641.864896","491808.938073","492575.371325","493342.220414","494108.780426","494875.500899","495642.651432","504902.373615","Mapping"
"Mixed","Both","tile","27","m160dime.wav","space","547.499360749","103","504125.758672","496408.692342","497175.365821","497925.551712","498692.06813","499458.727387","500225.492381","500991.734564","504892.730503","505641.864896","506408.611957","492575.371325","493342.220414","494108.780426","494875.500899","495642.651432","505651.000964","Mapping"
"Mixed","Both","tile","27","m150knife.wav","None","732.462227577","103","504125.758672","496408.692342","497175.365821","497925.551712","498692.06813","499458.727387","500225.492381","500991.734564","504892.730503","505641.864896","506408.611957","507175.357783","493342.220414","494108.780426","494875.500899","495642.651432","506418.276093","Mapping"
"Mixed","Both","tile","27","m160ball.wav","None","731.925811851","103","504125.758672","496408.692342","497175.365821","497925.551712","498692.06813","499458.727387","500225.492381","500991.734564","504892.730503","505641.864896","506408.611957","507175.357783","507942.011165","494108.780426","494875.500899","495642.651432","507184.36709","Mapping"
"Mixed","Both","tile","27","m160tile.wav","None","730.560812401","103","504125.758672","496408.692342","497175.365821","497925.551712","498692.06813","499458.727387","500225.492381","500991.734564","504892.730503","505641.864896","506408.611957","507175.357783","507942.011165","508708.520782","494875.500899","495642.651432","507951.506183","Mapping"
"Mixed","Both","tile","27","m150reek.wav","space","480.814720737","103","504125.758672","496408.692342","497175.365821","497925.551712","498692.06813","499458.727387","500225.492381","500991.734564","504892.730503","505641.864896","506408.611957","507175.357783","507942.011165","508708.520782","509475.401407","495642.651432","508717.579866","Mapping"
"Mixed","Both","tile","27","m160jolt.wav","None","727.206901414","103","504125.758672","496408.692342","497175.365821","497925.551712","498692.06813","499458.727387","500225.492381","500991.734564","504892.730503","505641.864896","506408.611957","507175.357783","507942.011165","508708.520782","509475.401407","510241.945652","509484.699482","Mapping"
"Mixed","Both","tile","27","m150tile.wav","None","725.846230052","103","504125.758672","511008.55946","497175.365821","497925.551712","498692.06813","499458.727387","500225.492381","500991.734564","504892.730503","505641.864896","506408.611957","507175.357783","507942.011165","508708.520782","509475.401407","510241.945652","510251.667603","Mapping"
"Mixed","Both","tile","27","m150greet.wav","space","564.748751931","103","504125.758672","511008.55946","511775.144824","497925.551712","498692.06813","499458.727387","500225.492381","500991.734564","504892.730503","505641.864896","506408.611957","507175.357783","507942.011165","508708.520782","509475.401407","510241.945652","511017.641732","Mapping"
"Mixed","Both","tile","27","m150done.wav","None","723.433133448","103","504125.758672","511008.55946","511775.144824","512542.150974","498692.06813","499458.727387","500225.492381","500991.734564","504892.730503","505641.864896","506408.611957","507175.357783","507942.011165","508708.520782","509475.401407","510241.945652","511783.899991","Mapping"
"Mixed","Both","tile","27","m150ball.wav","None","720.967477188","103","504125.758672","511008.55946","511775.144824","512542.150974","513308.901127","499458.727387","500225.492381","500991.734564","504892.730503","505641.864896","506408.611957","507175.357783","507942.011165","508708.520782","509475.401407","510241.945652","512552.041424","Mapping"
"Mixed","Both","tile","27","m160tile.wav","None","719.868057175","103","504125.758672","511008.55946","511775.144824","512542.150974","513308.901127","514075.767839","500225.492381","500991.734564","504892.730503","505641.864896","506408.611957","507175.357783","507942.011165","508708.520782","509475.401407","510241.945652","513318.893296","Mapping"
"Mixed","Both","tile","27","m160cad.wav","space","385.019259993","103","504125.758672","511008.55946","511775.144824","512542.150974","513308.901127","514075.767839","514825.047543","500991.734564","504892.730503","505641.864896","506408.611957","507175.357783","507942.011165","508708.520782","509475.401407","510241.945652","514085.296866","Mapping"
"Mixed","Both","tile","27","m160jaw.wav","None","734.462887282","103","504125.758672","511008.55946","511775.144824","512542.150974","513308.901127","514075.767839","514825.047543","515591.819957","504892.730503","505641.864896","506408.611957","507175.357783","507942.011165","508708.520782","509475.401407","510241.945652","514834.050976","Mapping"
"Mixed","Both","ball","5","m150cad.wav","None","732.468720293","103","518725.694426","511008.55946","511775.144824","512542.150974","513308.901127","514075.767839","514825.047543","515591.819957","504892.730503","505641.864896","506408.611957","507175.357783","507942.011165","508708.520782","509475.401407","510241.945652","515601.555203","Mapping"
"Mixed","Both","ball","5","m150done.wav","None","721.07074107","103","518725.694426","511008.55946","511775.144824","512542.150974","513308.901127","514075.767839","514825.047543","515591.819957","519491.576422","505641.864896","506408.611957","507175.357783","507942.011165","508708.520782","509475.401407","510241.945652","518735.214796","Mapping"
"Mixed","Both","ball","5","m160cave.wav","None","721.238312777","103","518725.694426","511008.55946","511775.144824","512542.150974","513308.901127","514075.767839","514825.047543","515591.819957","519491.576422","520241.920609","506408.611957","507175.357783","507942.011165","508708.520782","509475.401407","510241.945652","519500.518638","Mapping"
"Mixed","Both","ball","5","m150cave.wav","None","736.351935426","103","518725.694426","511008.55946","511775.144824","512542.150974","513308.901127","514075.767839","514825.047543","515591.819957","519491.576422","520241.920609","521007.996456","507175.357783","507942.011165","508708.520782","509475.401407","510241.945652","520250.96949","Mapping"
"Mixed","Both","ball","5","m160knife.wav","None","735.546539538","103","518725.694426","511008.55946","511775.144824","512542.150974","513308.901127","514075.767839","514825.047543","515591.819957","519491.576422","520241.920609","521007.996456","521774.708581","507942.011165","508708.520782","509475.401407","510241.945652","521017.291129","Mapping"
"Mixed","Both","ball","5","m160ball.wav","None","734.738051426","103","518725.694426","511008.55946","511775.144824","512542.150974","513308.901127","514075.767839","514825.047543","515591.819957","519491.576422","520241.920609","521007.996456","521774.708581","522541.462754","508708.520782","509475.401407","510241.945652","521783.618953","Mapping"
"Mixed","Both","ball","5","m160park.wav","space","359.883787809","103","518725.694426","511008.55946","511775.144824","512542.150974","513308.901127","514075.767839","514825.047543","515591.819957","519491.576422","520241.920609","521007.996456","521774.708581","522541.462754","523308.309988","509475.401407","510241.945652","522550.293668","Mapping"
"Mixed","Both","ball","5","m150reek.wav","None","730.863492936","103","518725.694426","511008.55946","511775.144824","512542.150974","513308.901127","514075.767839","514825.047543","515591.819957","519491.576422","520241.920609","521007.996456","521774.708581","522541.462754","523308.309988","524075.061688","510241.945652","523317.380511","Mapping"
"Mixed","Both","ball","5","m160greet.wav","None","730.035527144","103","518725.694426","511008.55946","511775.144824","512542.150974","513308.901127","514075.767839","514825.047543","515591.819957","519491.576422","520241.920609","521007.996456","521774.708581","522541.462754","523308.309988","524075.061688","524841.269242","524084.043169","Mapping"
"Mixed","Both","ball","5","m160ball.wav","None","729.485508054","103","518725.694426","525608.33568","511775.144824","512542.150974","513308.901127","514075.767839","514825.047543","515591.819957","519491.576422","520241.920609","521007.996456","521774.708581","522541.462754","523308.309988","524075.061688","524841.269242","524850.110359","Mapping"
"Mixed","Both","ball","5","m160tile.wav","space","460.348073393","103","518725.694426","525608.33568","526374.884562","512542.150974","513308.901127","514075.767839","514825.047543","515591.819957","519491.576422","520241.920609","521007.996456","521774.708581","522541.462754","523308.309988","524075.061688","524841.269242","525617.764535","Mapping"
"Mixed","Both","ball","5","m150cave.wav","None","725.463473704","103","518725.694426","525608.33568","526374.884562","527142.145161","513308.901127","514075.767839","514825.047543","515591.819957","519491.576422","520241.920609","521007.996456","521774.708581","522541.462754","523308.309988","524075.061688","524841.269242","526383.853368","Mapping"
"Mixed","Both","ball","5","m150ball.wav","None","723.269890063","103","518725.694426","525608.33568","526374.884562","527142.145161","527908.647976","514075.767839","514825.047543","515591.819957","519491.576422","520241.920609","521007.996456","521774.708581","522541.462754","523308.309988","524075.061688","524841.269242","527151.971922","Mapping"
"Mixed","Both","ball","5","m150jolt.wav","None","723.033372546","103","518725.694426","525608.33568","526374.884562","527142.145161","527908.647976","528675.304141","514825.047543","515591.819957","519491.576422","520241.920609","521007.996456","521774.708581","522541.462754","523308.309988","524075.061688","524841.269242","527918.032929","Mapping"
"Mixed","Both","ball","5","m150ball.wav","space","113.191400189","103","518725.694426","525608.33568","526374.884562","527142.145161","527908.647976","528675.304141","529441.94763","515591.819957","519491.576422","520241.920609","521007.996456","521774.708581","522541.462754","523308.309988","524075.061688","524841.269242","528684.86254","Mapping"
"Mixed","Both","ball","5","m160cave.wav","space","578.446979867","103","518725.694426","525608.33568","526374.884562","527142.145161","527908.647976","528675.304141","529441.94763","530191.496624","519491.576422","520241.920609","521007.996456","521774.708581","522541.462754","523308.309988","524075.061688","524841.269242","529451.580849","Mapping"
"Mixed","Both","done","40","m160knife.wav","None","733.875767561","103","533325.273394","525608.33568","526374.884562","527142.145161","527908.647976","528675.304141","529441.94763","530191.496624","519491.576422","520241.920609","521007.996456","521774.708581","522541.462754","523308.309988","524075.061688","524841.269242","530201.116239","Mapping"
"Mixed","Both","done","40","m150cling.wav","None","721.123918658","103","533325.273394","525608.33568","526374.884562","527142.145161","527908.647976","528675.304141","529441.94763","530191.496624","534091.808054","520241.920609","521007.996456","521774.708581","522541.462754","523308.309988","524075.061688","524841.269242","533334.840759","Mapping"
"Mixed","Both","done","40","m150bluff.wav","None","720.112922369","103","533325.273394","525608.33568","526374.884562","527142.145161","527908.647976","528675.304141","529441.94763","530191.496624","534091.808054","534841.885115","521007.996456","521774.708581","522541.462754","523308.309988","524075.061688","524841.269242","534101.497233","Mapping"
"Mixed","Both","done","40","m150jaw.wav","None","736.254236894","103","533325.273394","525608.33568","526374.884562","527142.145161","527908.647976","528675.304141","529441.94763","530191.496624","534091.808054","534841.885115","535607.611906","521774.708581","522541.462754","523308.309988","524075.061688","524841.269242","534850.912973","Mapping"
"Mixed","Both","done","40","m150done.wav","None","736.390582286","103","533325.273394","525608.33568","526374.884562","527142.145161","527908.647976","528675.304141","529441.94763","530191.496624","534091.808054","534841.885115","535607.611906","536374.669687","522541.462754","523308.309988","524075.061688","524841.269242","535616.436946","Mapping"
"Mixed","Both","done","40","m150reek.wav","space","374.202835606","103","533325.273394","525608.33568","526374.884562","527142.145161","527908.647976","528675.304141","529441.94763","530191.496624","534091.808054","534841.885115","535607.611906","536374.669687","537141.446739","523308.309988","524075.061688","524841.269242","536383.709911","Mapping"
"Mixed","Both","done","40","m160done.wav","None","731.589431642","103","533325.273394","525608.33568","526374.884562","527142.145161","527908.647976","528675.304141","529441.94763","530191.496624","534091.808054","534841.885115","535607.611906","536374.669687","537141.446739","537907.994693","524075.061688","524841.269242","537150.822725","Mapping"
"Mixed","Both","done","40","m150cling.wav","space","480.633545434","103","533325.273394","525608.33568","526374.884562","527142.145161","527908.647976","528675.304141","529441.94763","530191.496624","534091.808054","534841.885115","535607.611906","536374.669687","537141.446739","537907.994693","538674.768035","524841.269242","537917.271435","Mapping"
"Mixed","Both","done","40","m160knife.wav","None","728.530781111","103","533325.273394","525608.33568","526374.884562","527142.145161","527908.647976","528675.304141","529441.94763","530191.496624","534091.808054","534841.885115","535607.611906","536374.669687","537141.446739","537907.994693","538674.768035","539441.022893","538683.972121","Mapping"
"Mixed","Both","done","40","m160priest.wav","None","728.469874011","103","533325.273394","540207.647832","526374.884562","527142.145161","527908.647976","528675.304141","529441.94763","530191.496624","534091.808054","534841.885115","535607.611906","536374.669687","537141.446739","537907.994693","538674.768035","539441.022893","539449.727665","Mapping"
"Mixed","Both","done","40","m160done.wav","None","727.69013932","103","533325.273394","540207.647832","540974.744878","527142.145161","527908.647976","528675.304141","529441.94763","530191.496624","534091.808054","534841.885115","535607.611906","536374.669687","537141.446739","537907.994693","538674.768035","539441.022893","540216.39496","Mapping"
"Mixed","Both","done","40","m160priest.wav","space","389.699833002","103","533325.273394","540207.647832","540974.744878","541741.16669","527908.647976","528675.304141","529441.94763","530191.496624","534091.808054","534841.885115","535607.611906","536374.669687","537141.446739","537907.994693","538674.768035","539441.022893","540984.139106","Mapping"
"Mixed","Both","done","40","m150done.wav","None","723.936776398","103","533325.273394","540207.647832","540974.744878","541741.16669","542508.189225","528675.304141","529441.94763","530191.496624","534091.808054","534841.885115","535607.611906","536374.669687","537141.446739","537907.994693","538674.768035","539441.022893","541749.966377","Mapping"
"Mixed","Both","done","40","m160cave.wav","space","416.476087179","103","533325.273394","540207.647832","540974.744878","541741.16669","542508.189225","543275.027184","529441.94763","530191.496624","534091.808054","534841.885115","535607.611906","536374.669687","537141.446739","537907.994693","538674.768035","539441.022893","542517.323438","Mapping"
"Mixed","Both","done","40","m160knife.wav","None","719.216938363","103","533325.273394","540207.647832","540974.744878","541741.16669","542508.189225","543275.027184","544024.463638","530191.496624","534091.808054","534841.885115","535607.611906","536374.669687","537141.446739","537907.994693","538674.768035","539441.022893","543284.58651","Mapping"
"Mixed","Both","done","40","m150romp.wav","None","735.25931756","103","533325.273394","540207.647832","540974.744878","541741.16669","542508.189225","543275.027184","544024.463638","544791.192459","534091.808054","534841.885115","535607.611906","536374.669687","537141.446739","537907.994693","538674.768035","539441.022893","544034.007815","Mapping"
"Mixed","Both","done","42","m160depth.wav","None","734.778862447","103","547924.97634","540207.647832","540974.744878","541741.16669","542508.189225","543275.027184","544024.463638","544791.192459","534091.808054","534841.885115","535607.611906","536374.669687","537141.446739","537907.994693","538674.768035","539441.022893","544800.175177","Mapping"
"Mixed","Both","done","42","m150jolt.wav","None","721.090837149","103","547924.97634","540207.647832","540974.744878","541741.16669","542508.189225","543275.027184","544024.463638","544791.192459","548691.848618","534841.885115","535607.611906","536374.669687","537141.446739","537907.994693","538674.768035","539441.022893","547934.565966","Mapping"
"Mixed","Both","done","42","m160priest.wav","None","720.000074012","103","547924.97634","540207.647832","540974.744878","541741.16669","542508.189225","543275.027184","544024.463638","544791.192459","548691.848618","549458.159745","535607.611906","536374.669687","537141.446739","537907.994693","538674.768035","539441.022893","548701.4132","Mapping"
"Mixed","Both","done","42","m150done.wav","None","719.90237548","103","547924.97634","540207.647832","540974.744878","541741.16669","542508.189225","543275.027184","544024.463638","544791.192459","548691.848618","549458.159745","550207.638557","536374.669687","537141.446739","537907.994693","538674.768035","539441.022893","549467.291794","Mapping"
"Mixed","Both","done","42","m160lash.wav","space","485.001544468","103","547924.97634","540207.647832","540974.744878","541741.16669","542508.189225","543275.027184","544024.463638","544791.192459","548691.848618","549458.159745","550207.638557","550974.501249","537141.446739","537907.994693","538674.768035","539441.022893","550216.658994","Mapping"
"Mixed","Both","done","42","m150done.wav","None","733.367177658","103","547924.97634","540207.647832","540974.744878","541741.16669","542508.189225","543275.027184","544024.463638","544791.192459","548691.848618","549458.159745","550207.638557","550974.501249","551741.231925","537907.994693","538674.768035","539441.022893","550983.660196","Mapping"
"Mixed","Both","done","42","m160cave.wav","space","302.703441354","103","547924.97634","540207.647832","540974.744878","541741.16669","542508.189225","543275.027184","544024.463638","544791.192459","548691.848618","549458.159745","550207.638557","550974.501249","551741.231925","552507.856864","538674.768035","539441.022893","551750.936254","Mapping"
"Mixed","Both","done","42","m150park.wav","None","729.786951793","103","547924.97634","540207.647832","540974.744878","541741.16669","542508.189225","543275.027184","544024.463638","544791.192459","548691.848618","549458.159745","550207.638557","550974.501249","551741.231925","552507.856864","553274.17232","539441.022893","552517.172561","Mapping"
"Mixed","Both","done","42","m160romp.wav","None","729.922369588","103","547924.97634","540207.647832","540974.744878","541741.16669","542508.189225","543275.027184","544024.463638","544791.192459","548691.848618","549458.159745","550207.638557","550974.501249","551741.231925","552507.856864","553274.17232","554041.103649","553283.029823","Mapping"
"Mixed","Both","done","42","m160done.wav","None","727.936859475","103","547924.97634","554807.66057","540974.744878","541741.16669","542508.189225","543275.027184","544024.463638","544791.192459","548691.848618","549458.159745","550207.638557","550974.501249","551741.231925","552507.856864","553274.17232","554041.103649","554050.528794","Mapping"
"Mixed","Both","done","42","m150park.wav","space","356.97972402","103","547924.97634","554807.66057","555574.170187","541741.16669","542508.189225","543275.027184","544024.463638","544791.192459","548691.848618","549458.159745","550207.638557","550974.501249","551741.231925","552507.856864","553274.17232","554041.103649","554816.598767","Mapping"
"Mixed","Both","done","42","m150romp.wav","None","725.272095762","103","547924.97634","554807.66057","555574.170187","556341.485509","542508.189225","543275.027184","544024.463638","544791.192459","548691.848618","549458.159745","550207.638557","550974.501249","551741.231925","552507.856864","553274.17232","554041.103649","555583.127553","Mapping"
"Mixed","Both","done","42","m160done.wav","None","722.992870957","103","547924.97634","554807.66057","555574.170187","556341.485509","557108.191142","543275.027184","544024.463638","544791.192459","548691.848618","549458.159745","550207.638557","550974.501249","551741.231925","552507.856864","553274.17232","554041.103649","556351.012681","Mapping"
"Mixed","Both","done","42","m150cling.wav","space","440.05023432","103","547924.97634","554807.66057","555574.170187","556341.485509","557108.191142","557874.294814","544024.463638","544791.192459","548691.848618","549458.159745","550207.638557","550974.501249","551741.231925","552507.856864","553274.17232","554041.103649","557117.515806","Mapping"
