"Condition","Talker","Target","Trial","current_stimulus","response_response","response_time_response","subject_nr","time_Audio1","time_Audio10","time_Audio11","time_Audio12","time_Audio13","time_Audio14","time_Audio15","time_Audio16","time_Audio2","time_Audio3","time_Audio4","time_Audio5","time_Audio6","time_Audio7","time_Audio8","time_Audio9","time_response","title"
"Mixed","Both","tile","31","m150cling.wav","NA","NA","160","175351.61542","NA","NA","NA","NA","NA","NA","NA","NA","NA","NA","NA","NA","NA","NA","NA","NA","Mapping"
"Mixed","Both","tile","31","m160dime.wav","None","717.860032339","160","175351.61542","NA","NA","NA","NA","NA","NA","NA","176118.509546","NA","NA","NA","NA","NA","NA","NA","175365.834648","Mapping"
"Mixed","Both","tile","31","m150bluff.wav","None","721.758100204","160","175351.61542","NA","NA","NA","NA","NA","NA","NA","176118.509546","176884.05289","NA","NA","NA","NA","NA","NA","176128.656332","Mapping"
"Mixed","Both","tile","31","m150tile.wav","None","723.700332223","160","175351.61542","NA","NA","NA","NA","NA","NA","NA","176118.509546","176884.05289","177651.397483","NA","NA","NA","NA","NA","176893.319149","Mapping"
"Mixed","Both","tile","31","m160jolt.wav","space","462.697056122","160","175351.61542","NA","NA","NA","NA","NA","NA","NA","176118.509546","176884.05289","177651.397483","178417.732004","NA","NA","NA","NA","177661.463884","Mapping"
"Mixed","Both","tile","31","m160tile.wav","None","723.746708361","160","175351.61542","NA","NA","NA","NA","NA","NA","NA","176118.509546","176884.05289","177651.397483","178417.732004","179184.747326","NA","NA","NA","178426.930862","Mapping"
"Mixed","Both","tile","31","m160done.wav","space","457.511277869","160","175351.61542","NA","NA","NA","NA","NA","NA","NA","176118.509546","176884.05289","177651.397483","178417.732004","179184.747326","179951.713799","NA","NA","179194.602871","Mapping"
"Mixed","Both","tile","31","m150tile.wav","None","722.334710183","160","175351.61542","NA","NA","NA","NA","NA","NA","NA","176118.509546","176884.05289","177651.397483","178417.732004","179184.747326","179951.713799","180717.257452","NA","179962.0498","Mapping"
"Mixed","Both","tile","31","m160romp.wav","space","437.809464056","160","175351.61542","NA","NA","NA","NA","NA","NA","NA","176118.509546","176884.05289","177651.397483","178417.732004","179184.747326","179951.713799","180717.257452","181483.751816","180726.308835","Mapping"
"Mixed","Both","tile","31","m160priest.wav","None","721.413371153","160","175351.61542","182250.465075","NA","NA","NA","NA","NA","NA","176118.509546","176884.05289","177651.397483","178417.732004","179184.747326","179951.713799","180717.257452","181483.751816","181492.853594","Mapping"
"Mixed","Both","tile","31","m150knife.wav","None","721.139442641","160","175351.61542","182250.465075","183017.154219","NA","NA","NA","NA","NA","176118.509546","176884.05289","177651.397483","178417.732004","179184.747326","179951.713799","180717.257452","181483.751816","182259.891177","Mapping"
"Mixed","Both","tile","31","m150lash.wav","None","721.486954717","160","175351.61542","182250.465075","183017.154219","183784.449962","NA","NA","NA","NA","176118.509546","176884.05289","177651.397483","178417.732004","179184.747326","179951.713799","180717.257452","181483.751816","183026.226316","Mapping"
"Mixed","Both","tile","31","m160tile.wav","None","720.512746833","160","175351.61542","182250.465075","183017.154219","183784.449962","184533.715287","NA","NA","NA","176118.509546","176884.05289","177651.397483","178417.732004","179184.747326","179951.713799","180717.257452","181483.751816","183794.153393","Mapping"
"Mixed","Both","tile","31","m150jaw.wav","space","421.09365412","160","175351.61542","182250.465075","183017.154219","183784.449962","184533.715287","185300.503367","NA","NA","176118.509546","176884.05289","177651.397483","178417.732004","179184.747326","179951.713799","180717.257452","181483.751816","184542.943208","Mapping"
"Mixed","Both","tile","31","m160depth.wav","None","734.721154207","160","175351.61542","182250.465075","183017.154219","183784.449962","184533.715287","185300.503367","186067.303504","NA","176118.509546","176884.05289","177651.397483","178417.732004","179184.747326","179951.713799","180717.257452","181483.751816","185310.498658","Mapping"
"Mixed","Both","tile","31","m150ball.wav","None","735.247677891","160","175351.61542","182250.465075","183017.154219","183784.449962","184533.715287","185300.503367","186067.303504","186834.011816","176118.509546","176884.05289","177651.397483","178417.732004","179184.747326","179951.713799","180717.257452","181483.751816","186076.809991","Mapping"
"Mixed","Both","ball","2","m150priest.wav","None","735.629817005","160","190000.603199","182250.465075","183017.154219","183784.449962","184533.715287","185300.503367","186067.303504","186834.011816","176118.509546","176884.05289","177651.397483","178417.732004","179184.747326","179951.713799","180717.257452","181483.751816","186843.461106","Mapping"
"Mixed","Both","ball","2","m160cave.wav","None","725.008757319","160","190000.603199","182250.465075","183017.154219","183784.449962","184533.715287","185300.503367","186067.303504","186834.011816","190767.274101","176884.05289","177651.397483","178417.732004","179184.747326","179951.713799","180717.257452","181483.751816","190009.757536","Mapping"
"Mixed","Both","ball","2","m160park.wav","None","725.271246163","160","190000.603199","182250.465075","183017.154219","183784.449962","184533.715287","185300.503367","186067.303504","186834.011816","190767.274101","191533.90512","177651.397483","178417.732004","179184.747326","179951.713799","180717.257452","181483.751816","190776.414526","Mapping"
"Mixed","Both","ball","2","m160ball.wav","None","725.746446988","160","190000.603199","182250.465075","183017.154219","183784.449962","184533.715287","185300.503367","186067.303504","186834.011816","190767.274101","191533.90512","192301.199936","178417.732004","179184.747326","179951.713799","180717.257452","181483.751816","191543.236614","Mapping"
"Mixed","Both","ball","2","m150dime.wav","space","373.220818816","160","190000.603199","182250.465075","183017.154219","183784.449962","184533.715287","185300.503367","186067.303504","186834.011816","190767.274101","191533.90512","192301.199936","193067.2899","179184.747326","179951.713799","180717.257452","181483.751816","192310.710442","Mapping"
"Mixed","Both","ball","2","m150park.wav","None","725.995023036","160","190000.603199","182250.465075","183017.154219","183784.449962","184533.715287","185300.503367","186067.303504","186834.011816","190767.274101","191533.90512","192301.199936","193067.2899","193833.721192","179951.713799","180717.257452","181483.751816","193076.32335","Mapping"
"Mixed","Both","ball","2","m150cling.wav","None","726.263076998","160","190000.603199","182250.465075","183017.154219","183784.449962","184533.715287","185300.503367","186067.303504","186834.011816","190767.274101","191533.90512","192301.199936","193067.2899","193833.721192","194600.339844","180717.257452","181483.751816","193842.920669","Mapping"
"Mixed","Both","ball","2","m160dime.wav","None","723.304898478","160","190000.603199","182250.465075","183017.154219","183784.449962","184533.715287","185300.503367","186067.303504","186834.011816","190767.274101","191533.90512","192301.199936","193067.2899","193833.721192","194600.339844","195366.841628","181483.751816","194609.339286","Mapping"
"Mixed","Both","ball","2","m150ball.wav","None","721.923817648","160","190000.603199","182250.465075","183017.154219","183784.449962","184533.715287","185300.503367","186067.303504","186834.011816","190767.274101","191533.90512","192301.199936","193067.2899","193833.721192","194600.339844","195366.841628","196117.068794","195375.614754","Mapping"
"Mixed","Both","ball","2","m160priest.wav","space","597.6008703","160","190000.603199","196883.510598","183017.154219","183784.449962","184533.715287","185300.503367","186067.303504","186834.011816","190767.274101","191533.90512","192301.199936","193067.2899","193833.721192","194600.339844","195366.841628","196117.068794","196126.28002","Mapping"
"Mixed","Both","ball","2","m160ball.wav","None","731.311581796","160","190000.603199","196883.510598","197650.245191","183784.449962","184533.715287","185300.503367","186067.303504","186834.011816","190767.274101","191533.90512","192301.199936","193067.2899","193833.721192","194600.339844","195366.841628","196117.068794","196892.659062","Mapping"
"Mixed","Both","ball","2","m150gnash.wav","space","461.915154709","160","190000.603199","196883.510598","197650.245191","198417.18291","184533.715287","185300.503367","186067.303504","186834.011816","190767.274101","191533.90512","192301.199936","193067.2899","193833.721192","194600.339844","195366.841628","196117.068794","197653.92158","Mapping"
"Mixed","Both","ball","2","m160knife.wav","None","727.275313111","160","190000.603199","196883.510598","197650.245191","198417.18291","199183.698916","185300.503367","186067.303504","186834.011816","190767.274101","191533.90512","192301.199936","193067.2899","193833.721192","194600.339844","195366.841628","196117.068794","198426.849859","Mapping"
"Mixed","Both","ball","2","m150park.wav","None","727.807092713","160","190000.603199","196883.510598","197650.245191","198417.18291","199183.698916","199950.10362","186067.303504","186834.011816","190767.274101","191533.90512","192301.199936","193067.2899","193833.721192","194600.339844","195366.841628","196117.068794","199193.083589","Mapping"
"Mixed","Both","ball","2","m150ball.wav","None","724.958052859","160","190000.603199","196883.510598","197650.245191","198417.18291","199183.698916","199950.10362","200717.597544","186834.011816","190767.274101","191533.90512","192301.199936","193067.2899","193833.721192","194600.339844","195366.841628","196117.068794","199959.292276","Mapping"
"Mixed","Both","ball","2","m160knife.wav","space","371.767081786","160","190000.603199","196883.510598","197650.245191","198417.18291","199183.698916","199950.10362","200717.597544","201466.849574","190767.274101","191533.90512","192301.199936","193067.2899","193833.721192","194600.339844","195366.841628","196117.068794","200728.011148","Mapping"
"Mixed","Both","cave","23","m160ball.wav","None","735.206557903","160","204600.769596","196883.510598","197650.245191","198417.18291","199183.698916","199950.10362","200717.597544","201466.849574","190767.274101","191533.90512","192301.199936","193067.2899","193833.721192","194600.339844","195366.841628","196117.068794","201476.218169","Mapping"
"Mixed","Both","cave","23","m150tile.wav","None","720.013739774","160","204600.769596","196883.510598","197650.245191","198417.18291","199183.698916","199950.10362","200717.597544","201466.849574","205350.301739","191533.90512","192301.199936","193067.2899","193833.721192","194600.339844","195366.841628","196117.068794","204610.584948","Mapping"
"Mixed","Both","cave","23","m160depth.wav","None","733.824549243","160","204600.769596","196883.510598","197650.245191","198417.18291","199183.698916","199950.10362","200717.597544","201466.849574","205350.301739","206116.746016","192301.199936","193067.2899","193833.721192","194600.339844","195366.841628","196117.068794","205359.996203","Mapping"
"Mixed","Both","cave","23","m160ball.wav","None","731.513781473","160","204600.769596","196883.510598","197650.245191","198417.18291","199183.698916","199950.10362","200717.597544","201466.849574","205350.301739","206116.746016","206883.588201","193067.2899","193833.721192","194600.339844","195366.841628","196117.068794","206125.584687","Mapping"
"Mixed","Both","cave","23","m150cave.wav","None","727.182870032","160","204600.769596","196883.510598","197650.245191","198417.18291","199183.698916","199950.10362","200717.597544","201466.849574","205350.301739","206116.746016","206883.588201","207650.362986","193833.721192","194600.339844","195366.841628","196117.068794","206893.181875","Mapping"
"Mixed","Both","cave","23","m160romp.wav","space","357.097386615","160","204600.769596","196883.510598","197650.245191","198417.18291","199183.698916","199950.10362","200717.597544","201466.849574","205350.301739","206116.746016","206883.588201","207650.362986","208417.457457","194600.339844","195366.841628","196117.068794","207654.603619","Mapping"
"Mixed","Both","cave","23","m150depth.wav","None","723.185248207","160","204600.769596","196883.510598","197650.245191","198417.18291","199183.698916","199950.10362","200717.597544","201466.849574","205350.301739","206116.746016","206883.588201","207650.362986","208417.457457","209183.565353","195366.841628","196117.068794","208427.335262","Mapping"
"Mixed","Both","cave","23","m160cave.wav","None","724.644240923","160","204600.769596","196883.510598","197650.245191","198417.18291","199183.698916","199950.10362","200717.597544","201466.849574","205350.301739","206116.746016","206883.588201","207650.362986","208417.457457","209183.565353","209950.863261","196117.068794","209192.844288","Mapping"
"Mixed","Both","cave","23","m150cad.wav","space","419.129470829","160","204600.769596","196883.510598","197650.245191","198417.18291","199183.698916","199950.10362","200717.597544","201466.849574","205350.301739","206116.746016","206883.588201","207650.362986","208417.457457","209183.565353","209950.863261","210717.379885","209960.551233","Mapping"
"Mixed","Both","cave","23","m150gnash.wav","None","720.145138679","160","204600.769596","211466.919757","197650.245191","198417.18291","199183.698916","199950.10362","200717.597544","201466.849574","205350.301739","206116.746016","206883.588201","207650.362986","208417.457457","209183.565353","209950.863261","210717.379885","210727.168648","Mapping"
"Mixed","Both","cave","23","m150cave.wav","None","734.311189502","160","204600.769596","211466.919757","212233.516457","198417.18291","199183.698916","199950.10362","200717.597544","201466.849574","205350.301739","206116.746016","206883.588201","207650.362986","208417.457457","209183.565353","209950.863261","210717.379885","211476.565063","Mapping"
"Mixed","Both","cave","23","m150cling.wav","space","400.760815712","160","204600.769596","211466.919757","212233.516457","212999.959189","199183.698916","199950.10362","200717.597544","201466.849574","205350.301739","206116.746016","206883.588201","207650.362986","208417.457457","209183.565353","209950.863261","210717.379885","212242.865575","Mapping"
"Mixed","Both","cave","23","m150lash.wav","None","728.760276688","160","204600.769596","211466.919757","212233.516457","212999.959189","213766.552489","199950.10362","200717.597544","201466.849574","205350.301739","206116.746016","206883.588201","207650.362986","208417.457457","209183.565353","209950.863261","210717.379885","213008.985219","Mapping"
"Mixed","Both","cave","23","m160cave.wav","None","724.556744564","160","204600.769596","211466.919757","212233.516457","212999.959189","213766.552489","214533.90883","200717.597544","201466.849574","205350.301739","206116.746016","206883.588201","207650.362986","208417.457457","209183.565353","209950.863261","210717.379885","213776.984334","Mapping"
"Mixed","Both","cave","23","m160romp.wav","space","427.791912341","160","204600.769596","211466.919757","212233.516457","212999.959189","213766.552489","214533.90883","215283.253304","201466.849574","205350.301739","206116.746016","206883.588201","207650.362986","208417.457457","209183.565353","209950.863261","210717.379885","214543.816007","Mapping"
"Mixed","Both","cave","23","m160cling.wav","None","735.375985038","160","204600.769596","211466.919757","212233.516457","212999.959189","213766.552489","214533.90883","215283.253304","216050.015103","205350.301739","206116.746016","206883.588201","207650.362986","208417.457457","209183.565353","209950.863261","210717.379885","215292.685898","Mapping"
"Mixed","Both","cave","13","m150jaw.wav","None","734.670449747","160","219183.928014","211466.919757","212233.516457","212999.959189","213766.552489","214533.90883","215283.253304","216050.015103","205350.301739","206116.746016","206883.588201","207650.362986","208417.457457","209183.565353","209950.863261","210717.379885","216060.357906","Mapping"
"Mixed","Both","cave","13","m150done.wav","None","717.99359587","160","219183.928014","211466.919757","212233.516457","212999.959189","213766.552489","214533.90883","215283.253304","216050.015103","219950.560579","206116.746016","206883.588201","207650.362986","208417.457457","209183.565353","209950.863261","210717.379885","219195.412598","Mapping"
"Mixed","Both","cave","13","m160cave.wav","None","719.727444462","160","219183.928014","211466.919757","212233.516457","212999.959189","213766.552489","214533.90883","215283.253304","216050.015103","219950.560579","220700.03707","206883.588201","207650.362986","208417.457457","209183.565353","209950.863261","210717.379885","219960.396337","Mapping"
"Mixed","Both","cave","13","m150tile.wav","space","413.999343989","160","219183.928014","211466.919757","212233.516457","212999.959189","213766.552489","214533.90883","215283.253304","216050.015103","219950.560579","220700.03707","221466.805981","207650.362986","208417.457457","209183.565353","209950.863261","210717.379885","220709.524697","Mapping"
"Mixed","Both","cave","13","m160cave.wav","None","725.099963602","160","219183.928014","211466.919757","212233.516457","212999.959189","213766.552489","214533.90883","215283.253304","216050.015103","219950.560579","220700.03707","221466.805981","222233.279939","208417.457457","209183.565353","209950.863261","210717.379885","221481.329437","Mapping"
"Mixed","Both","cave","13","m150gnash.wav","space","360.91012205","160","219183.928014","211466.919757","212233.516457","212999.959189","213766.552489","214533.90883","215283.253304","216050.015103","219950.560579","220700.03707","221466.805981","222233.279939","223000.431607","209183.565353","209950.863261","210717.379885","222242.578043","Mapping"
"Mixed","Both","cave","13","m160ball.wav","None","722.339038504","160","219183.928014","211466.919757","212233.516457","212999.959189","213766.552489","214533.90883","215283.253304","216050.015103","219950.560579","220700.03707","221466.805981","222233.279939","223000.431607","223767.189697","209950.863261","210717.379885","223010.54995","Mapping"
"Mixed","Both","cave","13","m150cave.wav","None","719.262137311","160","219183.928014","211466.919757","212233.516457","212999.959189","213766.552489","214533.90883","215283.253304","216050.015103","219950.560579","220700.03707","221466.805981","222233.279939","223000.431607","223767.189697","224516.859112","210717.379885","223777.223944","Mapping"
"Mixed","Both","cave","13","m160knife.wav","space","549.101338955","160","219183.928014","211466.919757","212233.516457","212999.959189","213766.552489","214533.90883","215283.253304","216050.015103","219950.560579","220700.03707","221466.805981","222233.279939","223000.431607","223767.189697","224516.859112","225283.018331","224526.355087","Mapping"
"Mixed","Both","cave","13","m150romp.wav","None","730.758159887","160","219183.928014","226049.988823","212233.516457","212999.959189","213766.552489","214533.90883","215283.253304","216050.015103","219950.560579","220700.03707","221466.805981","222233.279939","223000.431607","223767.189697","224516.859112","225283.018331","225292.144225","Mapping"
"Mixed","Both","cave","13","m150cave.wav","None","730.030054925","160","219183.928014","226049.988823","226816.775048","212999.959189","213766.552489","214533.90883","215283.253304","216050.015103","219950.560579","220700.03707","221466.805981","222233.279939","223000.431607","223767.189697","224516.859112","225283.018331","226059.829528","Mapping"
"Mixed","Both","cave","13","m160cling.wav","space","305.109443143","160","219183.928014","226049.988823","226816.775048","227583.655879","213766.552489","214533.90883","215283.253304","216050.015103","219950.560579","220700.03707","221466.805981","222233.279939","223000.431607","223767.189697","224516.859112","225283.018331","226826.288955","Mapping"
"Mixed","Both","cave","13","m160dime.wav","None","723.189885961","160","219183.928014","226049.988823","226816.775048","227583.655879","228350.365738","214533.90883","215283.253304","216050.015103","219950.560579","220700.03707","221466.805981","222233.279939","223000.431607","223767.189697","224516.859112","225283.018331","227593.214307","Mapping"
"Mixed","Both","cave","13","m150depth.wav","None","719.437129796","160","219183.928014","226049.988823","226816.775048","227583.655879","228350.365738","229099.967753","215283.253304","216050.015103","219950.560579","220700.03707","221466.805981","222233.279939","223000.431607","223767.189697","224516.859112","225283.018331","228360.413589","Mapping"
"Mixed","Both","cave","13","m160tile.wav","None","733.801361173","160","219183.928014","226049.988823","226816.775048","227583.655879","228350.365738","229099.967753","229866.665863","216050.015103","219950.560579","220700.03707","221466.805981","222233.279939","223000.431607","223767.189697","224516.859112","225283.018331","229109.810313","Mapping"
"Mixed","Both","cave","13","m160tile.wav","None","731.337242993","160","219183.928014","226049.988823","226816.775048","227583.655879","228350.365738","229099.967753","229866.665863","230633.040886","219950.560579","220700.03707","221466.805981","222233.279939","223000.431607","223767.189697","224516.859112","225283.018331","229876.124428","Mapping"
"Mixed","Both","tile","36","m150dime.wav","None","728.751001414","160","233767.063244","226049.988823","226816.775048","227583.655879","228350.365738","229099.967753","229866.665863","230633.040886","219950.560579","220700.03707","221466.805981","222233.279939","223000.431607","223767.189697","224516.859112","225283.018331","230642.15534","Mapping"
"Mixed","Both","tile","36","m160lash.wav","None","719.365092227","160","233767.063244","226049.988823","226816.775048","227583.655879","228350.365738","229099.967753","229866.665863","230633.040886","234533.102195","220700.03707","221466.805981","222233.279939","223000.431607","223767.189697","224516.859112","225283.018331","233776.811506","Mapping"
"Mixed","Both","tile","36","m150tile.wav","None","722.917194245","160","233767.063244","226049.988823","226816.775048","227583.655879","228350.365738","229099.967753","229866.665863","230633.040886","234533.102195","235283.548874","221466.805981","222233.279939","223000.431607","223767.189697","224516.859112","225283.018331","234542.0701","Mapping"
"Mixed","Both","tile","36","m160priest.wav","space","486.441940302","160","233767.063244","226049.988823","226816.775048","227583.655879","228350.365738","229099.967753","229866.665863","230633.040886","234533.102195","235283.548874","236049.99006","222233.279939","223000.431607","223767.189697","224516.859112","225283.018331","235292.861818","Mapping"
"Mixed","Both","tile","36","m160tile.wav","None","732.161810622","160","233767.063244","226049.988823","226816.775048","227583.655879","228350.365738","229099.967753","229866.665863","230633.040886","234533.102195","235283.548874","236049.99006","236816.627262","223000.431607","223767.189697","224516.859112","225283.018331","236059.656081","Mapping"
"Mixed","Both","tile","36","m150romp.wav","space","441.342087928","160","233767.063244","226049.988823","226816.775048","227583.655879","228350.365738","229099.967753","229866.665863","230633.040886","234533.102195","235283.548874","236049.99006","236816.627262","237583.088545","223767.189697","224516.859112","225283.018331","236825.914854","Mapping"
"Mixed","Both","tile","36","m150tile.wav","None","726.130750263","160","233767.063244","226049.988823","226816.775048","227583.655879","228350.365738","229099.967753","229866.665863","230633.040886","234533.102195","235283.548874","236049.99006","236816.627262","237583.088545","238350.423553","224516.859112","225283.018331","237592.465797","Mapping"
"Mixed","Both","tile","36","m160dime.wav","space","250.955116237","160","233767.063244","226049.988823","226816.775048","227583.655879","228350.365738","229099.967753","229866.665863","230633.040886","234533.102195","235283.548874","236049.99006","236816.627262","237583.088545","238350.423553","239100.158514","225283.018331","238360.310015","Mapping"
"Mixed","Both","tile","36","m150priest.wav","None","736.45252944","160","233767.063244","226049.988823","226816.775048","227583.655879","228350.365738","229099.967753","229866.665863","230633.040886","234533.102195","235283.548874","236049.99006","236816.627262","237583.088545","238350.423553","239100.158514","239866.529826","239109.172177","Mapping"
"Mixed","Both","tile","36","m150romp.wav","None","733.778482303","160","233767.063244","240632.791691","226816.775048","227583.655879","228350.365738","229099.967753","229866.665863","230633.040886","234533.102195","235283.548874","236049.99006","236816.627262","237583.088545","238350.423553","239100.158514","239866.529826","239875.553383","Mapping"
"Mixed","Both","tile","36","m160tile.wav","None","731.648581568","160","233767.063244","240632.791691","241399.862974","227583.655879","228350.365738","229099.967753","229866.665863","230633.040886","234533.102195","235283.548874","236049.99006","236816.627262","237583.088545","238350.423553","239100.158514","239866.529826","240641.635927","Mapping"
"Mixed","Both","tile","36","m160ball.wav","space","474.06198876","160","233767.063244","240632.791691","241399.862974","242166.505432","228350.365738","229099.967753","229866.665863","230633.040886","234533.102195","235283.548874","236049.99006","236816.627262","237583.088545","238350.423553","239100.158514","239866.529826","241409.168189","Mapping"
"Mixed","Both","tile","36","m160knife.wav","None","724.95186911","160","233767.063244","240632.791691","241399.862974","242166.505432","242932.968879","229099.967753","229866.665863","230633.040886","234533.102195","235283.548874","236049.99006","236816.627262","237583.088545","238350.423553","239100.158514","239866.529826","242175.289689","Mapping"
"Mixed","Both","tile","36","m160depth.wav","None","722.052433994","160","233767.063244","240632.791691","241399.862974","242166.505432","242932.968879","243682.807722","229866.665863","230633.040886","234533.102195","235283.548874","236049.99006","236816.627262","237583.088545","238350.423553","239100.158514","239866.529826","242941.994909","Mapping"
"Mixed","Both","tile","36","m150reek.wav","None","735.001575435","160","233767.063244","240632.791691","241399.862974","242166.505432","242932.968879","243682.807722","244449.787489","230633.040886","234533.102195","235283.548874","236049.99006","236816.627262","237583.088545","238350.423553","239100.158514","239866.529826","243692.666667","Mapping"
"Mixed","Both","tile","36","m150depth.wav","None","736.438307678","160","233767.063244","240632.791691","241399.862974","242166.505432","242932.968879","243682.807722","244449.787489","245216.46643","234533.102195","235283.548874","236049.99006","236816.627262","237583.088545","238350.423553","239100.158514","239866.529826","244458.877209","Mapping"
"Mixed","Both","ball","4","m150dime.wav","None","733.153023059","160","248350.24145","240632.791691","241399.862974","242166.505432","242932.968879","243682.807722","244449.787489","245216.46643","234533.102195","235283.548874","236049.99006","236816.627262","237583.088545","238350.423553","239100.158514","239866.529826","245225.806272","Mapping"
"Mixed","Both","ball","4","m150ball.wav","None","720.159670105","160","248350.24145","240632.791691","241399.862974","242166.505432","242932.968879","243682.807722","244449.787489","245216.46643","249099.651159","235283.548874","236049.99006","236816.627262","237583.088545","238350.423553","239100.158514","239866.529826","248359.871915","Mapping"
"Mixed","Both","ball","4","m160cling.wav","space","365.68191601","160","248350.24145","240632.791691","241399.862974","242166.505432","242932.968879","243682.807722","244449.787489","245216.46643","249099.651159","249866.49087","236049.99006","236816.627262","237583.088545","238350.423553","239100.158514","239866.529826","249109.410859","Mapping"
"Mixed","Both","ball","4","m160cling.wav","None","730.834835209","160","248350.24145","240632.791691","241399.862974","242166.505432","242932.968879","243682.807722","244449.787489","245216.46643","249099.651159","249866.49087","250632.950607","236816.627262","237583.088545","238350.423553","239100.158514","239866.529826","249875.984372","Mapping"
"Mixed","Both","ball","4","m150ball.wav","None","728.191396222","160","248350.24145","240632.791691","241399.862974","242166.505432","242932.968879","243682.807722","244449.787489","245216.46643","249099.651159","249866.49087","250632.950607","251399.671595","237583.088545","238350.423553","239100.158514","239866.529826","250642.284265","Mapping"
"Mixed","Both","ball","4","m150reek.wav","space","449.950114591","160","248350.24145","240632.791691","241399.862974","242166.505432","242932.968879","243682.807722","244449.787489","245216.46643","249099.651159","249866.49087","250632.950607","251399.671595","252166.348063","238350.423553","239100.158514","239866.529826","251409.090277","Mapping"
"Mixed","Both","ball","4","m160lash.wav","None","727.597163292","160","248350.24145","240632.791691","241399.862974","242166.505432","242932.968879","243682.807722","244449.787489","245216.46643","249099.651159","249866.49087","250632.950607","251399.671595","252166.348063","252916.247195","239100.158514","239866.529826","252169.958289","Mapping"
"Mixed","Both","ball","4","m160ball.wav","None","736.122331582","160","248350.24145","240632.791691","241399.862974","242166.505432","242932.968879","243682.807722","244449.787489","245216.46643","249099.651159","249866.49087","250632.950607","251399.671595","252166.348063","252916.247195","253682.869248","239866.529826","252925.102561","Mapping"
"Mixed","Both","ball","4","m150tile.wav","space","398.631224176","160","248350.24145","240632.791691","241399.862974","242166.505432","242932.968879","243682.807722","244449.787489","245216.46643","249099.651159","249866.49087","250632.950607","251399.671595","252166.348063","252916.247195","253682.869248","254449.717307","253692.394594","Mapping"
"Mixed","Both","ball","4","m160ball.wav","None","729.321427643","160","248350.24145","255216.005452","241399.862974","242166.505432","242932.968879","243682.807722","244449.787489","245216.46643","249099.651159","249866.49087","250632.950607","251399.671595","252166.348063","252916.247195","253682.869248","254449.717307","254459.355502","Mapping"
"Mixed","Both","ball","4","m150cave.wav","space","514.201141894","160","248350.24145","255216.005452","255983.312016","242166.505432","242932.968879","243682.807722","244449.787489","245216.46643","249099.651159","249866.49087","250632.950607","251399.671595","252166.348063","252916.247195","253682.869248","254449.717307","255224.789089","Mapping"
"Mixed","Both","ball","4","m160dime.wav","None","721.998637775","160","248350.24145","255216.005452","255983.312016","256750.005797","242932.968879","243682.807722","244449.787489","245216.46643","249099.651159","249866.49087","250632.950607","251399.671595","252166.348063","252916.247195","253682.869248","254449.717307","255993.456638","Mapping"
"Mixed","Both","ball","4","m150park.wav","None","719.451042823","160","248350.24145","255216.005452","255983.312016","256750.005797","257499.364802","243682.807722","244449.787489","245216.46643","249099.651159","249866.49087","250632.950607","251399.671595","252166.348063","252916.247195","253682.869248","254449.717307","256759.836608","Mapping"
"Mixed","Both","ball","4","m160done.wav","None","734.582953388","160","248350.24145","255216.005452","255983.312016","256750.005797","257499.364802","258266.286754","244449.787489","245216.46643","249099.651159","249866.49087","250632.950607","251399.671595","252166.348063","252916.247195","253682.869248","254449.717307","257508.424841","Mapping"
"Mixed","Both","ball","4","m160priest.wav","None","730.969635071","160","248350.24145","255216.005452","255983.312016","256750.005797","257499.364802","258266.286754","259032.566551","245216.46643","249099.651159","249866.49087","250632.950607","251399.671595","252166.348063","252916.247195","253682.869248","254449.717307","258275.835288","Mapping"
"Mixed","Both","ball","4","m150done.wav","None","731.423811987","160","248350.24145","255216.005452","255983.312016","256750.005797","257499.364802","258266.286754","259032.566551","259799.631341","249099.651159","249866.49087","250632.950607","251399.671595","252166.348063","252916.247195","253682.869248","254449.717307","259041.489626","Mapping"
"Mixed","Both","done","38","m150greet.wav","None","728.187686065","160","262933.065959","255216.005452","255983.312016","256750.005797","257499.364802","258266.286754","259032.566551","259799.631341","249099.651159","249866.49087","250632.950607","251399.671595","252166.348063","252916.247195","253682.869248","254449.717307","259808.822161","Mapping"
"Mixed","Both","done","38","m150dime.wav","None","723.359931726","160","262933.065959","255216.005452","255983.312016","256750.005797","257499.364802","258266.286754","259032.566551","259799.631341","263700.00337","249866.49087","250632.950607","251399.671595","252166.348063","252916.247195","253682.869248","254449.717307","262942.961388","Mapping"
"Mixed","Both","done","38","m150lash.wav","None","720.219031209","160","262933.065959","255216.005452","255983.312016","256750.005797","257499.364802","258266.286754","259032.566551","259799.631341","263700.00337","264449.415553","250632.950607","251399.671595","252166.348063","252916.247195","253682.869248","254449.717307","263709.709584","Mapping"
"Mixed","Both","done","38","m160depth.wav","None","735.087216599","160","262933.065959","255216.005452","255983.312016","256750.005797","257499.364802","258266.286754","259032.566551","259799.631341","263700.00337","264449.415553","265215.919501","251399.671595","252166.348063","252916.247195","253682.869248","254449.717307","264458.859896","Mapping"
"Mixed","Both","done","38","m160depth.wav","None","732.673493912","160","262933.065959","255216.005452","255983.312016","256750.005797","257499.364802","258266.286754","259032.566551","259799.631341","263700.00337","264449.415553","265215.919501","265982.736952","252166.348063","252916.247195","253682.869248","254449.717307","265224.931928","Mapping"
"Mixed","Both","done","38","m160done.wav","None","729.635857977","160","262933.065959","255216.005452","255983.312016","256750.005797","257499.364802","258266.286754","259032.566551","259799.631341","263700.00337","264449.415553","265215.919501","265982.736952","266749.543582","252916.247195","253682.869248","254449.717307","265991.681051","Mapping"
"Mixed","Both","done","38","m160ball.wav","space","612.167919753","160","262933.065959","255216.005452","255983.312016","256750.005797","257499.364802","258266.286754","259032.566551","259799.631341","263700.00337","264449.415553","265215.919501","265982.736952","266749.543582","267516.557358","253682.869248","254449.717307","266758.615061","Mapping"
"Mixed","Both","done","38","m150jaw.wav","None","721.981942421","160","262933.065959","255216.005452","255983.312016","256750.005797","257499.364802","258266.286754","259032.566551","259799.631341","263700.00337","264449.415553","265215.919501","265982.736952","266749.543582","267516.557358","268283.092842","254449.717307","267526.247495","Mapping"
"Mixed","Both","done","38","m160bluff.wav","None","718.662957661","160","262933.065959","255216.005452","255983.312016","256750.005797","257499.364802","258266.286754","259032.566551","259799.631341","263700.00337","264449.415553","265215.919501","265982.736952","266749.543582","267516.557358","268283.092842","269049.883395","268293.217678","Mapping"
"Mixed","Both","done","38","m150done.wav","None","719.5926446","160","262933.065959","269799.265897","255983.312016","256750.005797","257499.364802","258266.286754","259032.566551","259799.631341","263700.00337","264449.415553","265215.919501","265982.736952","266749.543582","267516.557358","268283.092842","269049.883395","269059.597338","Mapping"
"Mixed","Both","done","38","m160bluff.wav","space","370.082082693","160","262933.065959","269799.265897","270566.064797","256750.005797","257499.364802","258266.286754","259032.566551","259799.631341","263700.00337","264449.415553","265215.919501","265982.736952","266749.543582","267516.557358","268283.092842","269049.883395","269808.708385","Mapping"
"Mixed","Both","done","38","m160done.wav","None","731.265205657","160","262933.065959","269799.265897","270566.064797","271332.617595","257499.364802","258266.286754","259032.566551","259799.631341","263700.00337","264449.415553","265215.919501","265982.736952","266749.543582","267516.557358","268283.092842","269049.883395","270575.006732","Mapping"
"Mixed","Both","done","38","m150cling.wav","space","372.234553332","160","262933.065959","269799.265897","270566.064797","271332.617595","272100.182938","258266.286754","259032.566551","259799.631341","263700.00337","264449.415553","265215.919501","265982.736952","266749.543582","267516.557358","268283.092842","269049.883395","271342.538685","Mapping"
"Mixed","Both","done","38","m150done.wav","None","723.462268244","160","262933.065959","269799.265897","270566.064797","271332.617595","272100.182938","272865.943014","259032.566551","259799.631341","263700.00337","264449.415553","265215.919501","265982.736952","266749.543582","267516.557358","268283.092842","269049.883395","272109.742912","Mapping"
"Mixed","Both","done","38","m160gnash.wav","space","399.809486698","160","262933.065959","269799.265897","270566.064797","271332.617595","272100.182938","272865.943014","273632.591346","259799.631341","263700.00337","264449.415553","265215.919501","265982.736952","266749.543582","267516.557358","268283.092842","269049.883395","272874.932562","Mapping"
"Mixed","Both","done","38","m150reek.wav","None","725.675955182","160","262933.065959","269799.265897","270566.064797","271332.617595","272100.182938","272865.943014","273632.591346","274382.360625","263700.00337","264449.415553","265215.919501","265982.736952","266749.543582","267516.557358","268283.092842","269049.883395","273637.880079","Mapping"
"Mixed","Both","cave","22","m150bluff.wav","None","735.498108901","160","277516.50047","269799.265897","270566.064797","271332.617595","272100.182938","272865.943014","273632.591346","274382.360625","263700.00337","264449.415553","265215.919501","265982.736952","266749.543582","267516.557358","268283.092842","269049.883395","274391.751172","Mapping"
"Mixed","Both","cave","22","m160park.wav","None","719.248224515","160","277516.50047","269799.265897","270566.064797","271332.617595","272100.182938","272865.943014","273632.591346","274382.360625","278265.961193","264449.415553","265215.919501","265982.736952","266749.543582","267516.557358","268283.092842","269049.883395","277526.161235","Mapping"
"Mixed","Both","cave","22","m160cave.wav","None","733.635953162","160","277516.50047","269799.265897","270566.064797","271332.617595","272100.182938","272865.943014","273632.591346","274382.360625","278265.961193","279032.33467","265215.919501","265982.736952","266749.543582","267516.557358","268283.092842","269049.883395","278275.496124","Mapping"
"Mixed","Both","cave","22","m150depth.wav","space","393.374335952","160","277516.50047","269799.265897","270566.064797","271332.617595","272100.182938","272865.943014","273632.591346","274382.360625","278265.961193","279032.33467","279799.241163","265982.736952","266749.543582","267516.557358","268283.092842","269049.883395","279041.279387","Mapping"
"Mixed","Both","cave","22","m150cave.wav","None","727.581086336","160","277516.50047","269799.265897","270566.064797","271332.617595","272100.182938","272865.943014","273632.591346","274382.360625","278265.961193","279032.33467","279799.241163","280565.952258","266749.543582","267516.557358","268283.092842","269049.883395","279808.510513","Mapping"
"Mixed","Both","cave","22","m160romp.wav","space","507.534728618","160","277516.50047","269799.265897","270566.064797","271332.617595","272100.182938","272865.943014","273632.591346","274382.360625","278265.961193","279032.33467","279799.241163","280565.952258","281332.827215","267516.557358","268283.092842","269049.883395","280575.084026","Mapping"
"Mixed","Both","cave","22","m160lash.wav","None","720.97156127","160","277516.50047","269799.265897","270566.064797","271332.617595","272100.182938","272865.943014","273632.591346","274382.360625","278265.961193","279032.33467","279799.241163","280565.952258","281332.827215","282082.30989","268283.092842","269049.883395","281342.560636","Mapping"
"Mixed","Both","cave","22","m150reek.wav","None","735.622087726","160","277516.50047","269799.265897","270566.064797","271332.617595","272100.182938","272865.943014","273632.591346","274382.360625","278265.961193","279032.33467","279799.241163","280565.952258","281332.827215","282082.30989","282849.362931","269049.883395","282092.011156","Mapping"
"Mixed","Both","cave","22","m160cave.wav","None","732.767791953","160","277516.50047","269799.265897","270566.064797","271332.617595","272100.182938","272865.943014","273632.591346","274382.360625","278265.961193","279032.33467","279799.241163","280565.952258","281332.827215","282082.30989","282849.362931","283615.936134","282858.637538","Mapping"
"Mixed","Both","cave","22","m150bluff.wav","space","433.011390269","160","277516.50047","284382.417513","270566.064797","271332.617595","272100.182938","272865.943014","273632.591346","274382.360625","278265.961193","279032.33467","279799.241163","280565.952258","281332.827215","282082.30989","282849.362931","283615.936134","283625.569692","Mapping"
"Mixed","Both","cave","22","m160park.wav","None","726.83504899","160","277516.50047","284382.417513","285149.261244","271332.617595","272100.182938","272865.943014","273632.591346","274382.360625","278265.961193","279032.33467","279799.241163","280565.952258","281332.827215","282082.30989","282849.362931","283615.936134","284391.820427","Mapping"
"Mixed","Both","cave","22","m160bluff.wav","None","725.63545336","160","277516.50047","284382.417513","285149.261244","285916.377357","272100.182938","272865.943014","273632.591346","274382.360625","278265.961193","279032.33467","279799.241163","280565.952258","281332.827215","282082.30989","282849.362931","283615.936134","285158.525338","Mapping"
"Mixed","Both","cave","22","m150lash.wav","None","721.798292827","160","277516.50047","284382.417513","285149.261244","285916.377357","286682.840494","272865.943014","273632.591346","274382.360625","278265.961193","279032.33467","279799.241163","280565.952258","281332.827215","282082.30989","282849.362931","283615.936134","285926.269693","Mapping"
"Mixed","Both","cave","22","m150cave.wav","None","719.064575154","160","277516.50047","284382.417513","285149.261244","285916.377357","286682.840494","287431.925262","273632.591346","274382.360625","278265.961193","279032.33467","279799.241163","280565.952258","281332.827215","282082.30989","282849.362931","283615.936134","286692.888964","Mapping"
"Mixed","Both","cave","22","m150gnash.wav","space","521.186313592","160","277516.50047","284382.417513","285149.261244","285916.377357","286682.840494","287431.925262","288199.14433","274382.360625","278265.961193","279032.33467","279799.241163","280565.952258","281332.827215","282082.30989","282849.362931","283615.936134","287441.343634","Mapping"
"Mixed","Both","cave","22","m160depth.wav","None","729.79106335","160","277516.50047","284382.417513","285149.261244","285916.377357","286682.840494","287431.925262","288199.14433","288965.830691","278265.961193","279032.33467","279799.241163","280565.952258","281332.827215","282082.30989","282849.362931","283615.936134","288209.062018","Mapping"
"Mixed","Both","cave","20","m160priest.wav","None","727.75638802","160","292099.565518","284382.417513","285149.261244","285916.377357","286682.840494","287431.925262","288199.14433","288965.830691","278265.961193","279032.33467","279799.241163","280565.952258","281332.827215","282082.30989","282849.362931","283615.936134","288974.927213","Mapping"
"Mixed","Both","cave","20","m160gnash.wav","None","720.277155982","160","292099.565518","284382.417513","285149.261244","285916.377357","286682.840494","287431.925262","288199.14433","288965.830691","292848.761278","279032.33467","279799.241163","280565.952258","281332.827215","282082.30989","282849.362931","283615.936134","292109.368812","Mapping"
"Mixed","Both","cave","20","m150dime.wav","None","735.563653987","160","292099.565518","284382.417513","285149.261244","285916.377357","286682.840494","287431.925262","288199.14433","288965.830691","292848.761278","293615.776601","279799.241163","280565.952258","281332.827215","282082.30989","282849.362931","283615.936134","292857.961064","Mapping"
"Mixed","Both","cave","20","m150cave.wav","None","732.142951107","160","292099.565518","284382.417513","285149.261244","285916.377357","286682.840494","287431.925262","288199.14433","288965.830691","292848.761278","293615.776601","294382.269728","280565.952258","281332.827215","282082.30989","282849.362931","283615.936134","293625.250624","Mapping"
"Mixed","Both","cave","20","m160priest.wav","space","338.155522477","160","292099.565518","284382.417513","285149.261244","285916.377357","286682.840494","287431.925262","288199.14433","288965.830691","292848.761278","293615.776601","294382.269728","295148.694528","281332.827215","282082.30989","282849.362931","283615.936134","294392.274295","Mapping"
"Mixed","Both","cave","20","m160cave.wav","None","726.665930822","160","292099.565518","284382.417513","285149.261244","285916.377357","286682.840494","287431.925262","288199.14433","288965.830691","292848.761278","293615.776601","294382.269728","295148.694528","295915.245161","282082.30989","282849.362931","283615.936134","295157.795687","Mapping"
"Mixed","Both","cave","20","m160jaw.wav","space","503.105499782","160","292099.565518","284382.417513","285149.261244","285916.377357","286682.840494","287431.925262","288199.14433","288965.830691","292848.761278","293615.776601","294382.269728","295148.694528","295915.245161","296682.563474","282849.362931","283615.936134","295923.313988","Mapping"
"Mixed","Both","cave","20","m160done.wav","None","722.713448573","160","292099.565518","284382.417513","285149.261244","285916.377357","286682.840494","287431.925262","288199.14433","288965.830691","292848.761278","293615.776601","294382.269728","295148.694528","295915.245161","296682.563474","297449.264985","283615.936134","296692.990373","Mapping"
"Mixed","Both","cave","20","m150depth.wav","None","721.5902186","160","292099.565518","284382.417513","285149.261244","285916.377357","286682.840494","287431.925262","288199.14433","288965.830691","292848.761278","293615.776601","294382.269728","295148.694528","295915.245161","296682.563474","297449.264985","298216.042243","297459.30016","Mapping"
"Mixed","Both","cave","20","m150cave.wav","None","718.761893455","160","292099.565518","298965.734847","285149.261244","285916.377357","286682.840494","287431.925262","288199.14433","288965.830691","292848.761278","293615.776601","294382.269728","295148.694528","295915.245161","296682.563474","297449.264985","298216.042243","298226.055157","Mapping"
"Mixed","Both","cave","20","m150cling.wav","space","435.208072653","160","292099.565518","298965.734847","299731.920036","285916.377357","286682.840494","287431.925262","288199.14433","288965.830691","292848.761278","293615.776601","294382.269728","295148.694528","295915.245161","296682.563474","297449.264985","298216.042243","298975.157238","Mapping"
"Mixed","Both","cave","20","m150cling.wav","None","730.661079288","160","292099.565518","298965.734847","299731.920036","300499.027493","286682.840494","287431.925262","288199.14433","288965.830691","292848.761278","293615.776601","294382.269728","295148.694528","295915.245161","296682.563474","297449.264985","298216.042243","299741.142702","Mapping"
"Mixed","Both","cave","20","m160cave.wav","None","727.04559681","160","292099.565518","298965.734847","299731.920036","300499.027493","301265.202171","287431.925262","288199.14433","288965.830691","292848.761278","293615.776601","294382.269728","295148.694528","295915.245161","296682.563474","297449.264985","298216.042243","300508.443082","Mapping"
"Mixed","Both","cave","20","m150lash.wav","space","608.323957538","160","292099.565518","298965.734847","299731.920036","300499.027493","301265.202171","302032.562222","288199.14433","288965.830691","292848.761278","293615.776601","294382.269728","295148.694528","295915.245161","296682.563474","297449.264985","298216.042243","301273.987045","Mapping"
"Mixed","Both","cave","20","m160jolt.wav","None","720.364034176","160","292099.565518","298965.734847","299731.920036","300499.027493","301265.202171","302032.562222","302781.811161","288965.830691","292848.761278","293615.776601","294382.269728","295148.694528","295915.245161","296682.563474","297449.264985","298216.042243","302042.580701","Mapping"
"Mixed","Both","cave","20","m150greet.wav","None","735.884576803","160","292099.565518","298965.734847","299731.920036","300499.027493","301265.202171","302032.562222","302781.811161","303548.889555","292848.761278","293615.776601","294382.269728","295148.694528","295915.245161","296682.563474","297449.264985","298216.042243","302790.970136","Mapping"
"Mixed","Both","tile","28","m160cling.wav","None","732.415951788","160","306682.442896","298965.734847","299731.920036","300499.027493","301265.202171","302032.562222","302781.811161","303548.889555","292848.761278","293615.776601","294382.269728","295148.694528","295915.245161","296682.563474","297449.264985","298216.042243","303558.487866","Mapping"
"Mixed","Both","tile","28","m150jaw.wav","None","719.673029846","160","306682.442896","298965.734847","299731.920036","300499.027493","301265.202171","302032.562222","302781.811161","303548.889555","307431.762636","293615.776601","294382.269728","295148.694528","295915.245161","296682.563474","297449.264985","298216.042243","306692.586591","Mapping"
"Mixed","Both","tile","28","m160reek.wav","None","735.306420829","160","306682.442896","298965.734847","299731.920036","300499.027493","301265.202171","302032.562222","302781.811161","303548.889555","307431.762636","308198.879677","294382.269728","295148.694528","295915.245161","296682.563474","297449.264985","298216.042243","307441.112372","Mapping"
"Mixed","Both","tile","28","m150tile.wav","None","735.567982309","160","306682.442896","298965.734847","299731.920036","300499.027493","301265.202171","302032.562222","302781.811161","303548.889555","307431.762636","308198.879677","308965.11217","295148.694528","295915.245161","296682.563474","297449.264985","298216.042243","308208.451709","Mapping"
"Mixed","Both","tile","28","m160done.wav","space","452.042914694","160","306682.442896","298965.734847","299731.920036","300499.027493","301265.202171","302032.562222","302781.811161","303548.889555","307431.762636","308198.879677","308965.11217","309732.116053","295915.245161","296682.563474","297449.264985","298216.042243","308974.152113","Mapping"
"Mixed","Both","tile","28","m160tile.wav","None","729.672340211","160","306682.442896","298965.734847","299731.920036","300499.027493","301265.202171","302032.562222","302781.811161","303548.889555","307431.762636","308198.879677","308965.11217","309732.116053","310498.825293","296682.563474","297449.264985","298216.042243","309741.553594","Mapping"
"Mixed","Both","tile","28","m160lash.wav","space","293.654231355","160","306682.442896","298965.734847","299731.920036","300499.027493","301265.202171","302032.562222","302781.811161","303548.889555","307431.762636","308198.879677","308965.11217","309732.116053","310498.825293","311265.816191","297449.264985","298216.042243","310508.520994","Mapping"
"Mixed","Both","tile","28","m150bluff.wav","None","722.539074253","160","306682.442896","298965.734847","299731.920036","300499.027493","301265.202171","302032.562222","302781.811161","303548.889555","307431.762636","308198.879677","308965.11217","309732.116053","310498.825293","311265.816191","312032.694239","298216.042243","311275.990184","Mapping"
"Mixed","Both","tile","28","m160tile.wav","None","720.700724516","160","306682.442896","298965.734847","299731.920036","300499.027493","301265.202171","302032.562222","302781.811161","303548.889555","307431.762636","308198.879677","308965.11217","309732.116053","310498.825293","311265.816191","312032.694239","312782.029747","312042.366135","Mapping"
"Mixed","Both","tile","28","m160done.wav","space","618.72859532","160","306682.442896","313548.788146","299731.920036","300499.027493","301265.202171","302032.562222","302781.811161","303548.889555","307431.762636","308198.879677","308965.11217","309732.116053","310498.825293","311265.816191","312032.694239","312782.029747","312791.416893","Mapping"
"Mixed","Both","tile","28","m150tile.wav","None","732.390290359","160","306682.442896","313548.788146","314315.482854","300499.027493","301265.202171","302032.562222","302781.811161","303548.889555","307431.762636","308198.879677","308965.11217","309732.116053","310498.825293","311265.816191","312032.694239","312782.029747","313558.122113","Mapping"
"Mixed","Both","tile","28","m150greet.wav","space","300.712368218","160","306682.442896","313548.788146","314315.482854","315082.015865","301265.202171","302032.562222","302781.811161","303548.889555","307431.762636","308198.879677","308965.11217","309732.116053","310498.825293","311265.816191","312032.694239","312782.029747","314325.379519","Mapping"
"Mixed","Both","tile","28","m150knife.wav","None","726.417354774","160","306682.442896","313548.788146","314315.482854","315082.015865","315849.184847","302032.562222","302781.811161","303548.889555","307431.762636","308198.879677","308965.11217","309732.116053","310498.825293","311265.816191","312032.694239","312782.029747","315091.34334","Mapping"
"Mixed","Both","tile","28","m150reek.wav","None","723.713317653","160","306682.442896","313548.788146","314315.482854","315082.015865","315849.184847","316615.673027","302781.811161","303548.889555","307431.762636","308198.879677","308965.11217","309732.116053","310498.825293","311265.816191","312032.694239","312782.029747","315858.890751","Mapping"
"Mixed","Both","tile","28","m150reek.wav","None","721.010207897","160","306682.442896","313548.788146","314315.482854","315082.015865","315849.184847","316615.673027","317382.129981","303548.889555","307431.762636","308198.879677","308965.11217","309732.116053","310498.825293","311265.816191","312032.694239","312782.029747","316625.861243","Mapping"
"Mixed","Both","tile","28","m160jaw.wav","None","718.729121145","160","306682.442896","313548.788146","314315.482854","315082.015865","315849.184847","316615.673027","317382.129981","318131.751475","307431.762636","308198.879677","308965.11217","309732.116053","310498.825293","311265.816191","312032.694239","312782.029747","317392.437848","Mapping"
"Mixed","Both","ball","11","m160gnash.wav","None","734.623146011","160","321265.77878","313548.788146","314315.482854","315082.015865","315849.184847","316615.673027","317382.129981","318131.751475","307431.762636","308198.879677","308965.11217","309732.116053","310498.825293","311265.816191","312032.694239","312782.029747","318140.718453","Mapping"
"Mixed","Both","ball","11","m160greet.wav","None","719.088999787","160","321265.77878","313548.788146","314315.482854","315082.015865","315849.184847","316615.673027","317382.129981","318131.751475","322032.068162","308198.879677","308965.11217","309732.116053","310498.825293","311265.816191","312032.694239","312782.029747","321275.708836","Mapping"
"Mixed","Both","ball","11","m160greet.wav","None","720.537480898","160","321265.77878","313548.788146","314315.482854","315082.015865","315849.184847","316615.673027","317382.129981","318131.751475","322032.068162","322781.489001","308965.11217","309732.116053","310498.825293","311265.816191","312032.694239","312782.029747","322041.792307","Mapping"
"Mixed","Both","ball","11","m160cad.wav","None","736.050603213","160","321265.77878","313548.788146","314315.482854","315082.015865","315849.184847","316615.673027","317382.129981","318131.751475","322032.068162","322781.489001","323548.306143","309732.116053","310498.825293","311265.816191","312032.694239","312782.029747","322790.434646","Mapping"
"Mixed","Both","ball","11","m150ball.wav","None","736.646690872","160","321265.77878","313548.788146","314315.482854","315082.015865","315849.184847","316615.673027","317382.129981","318131.751475","322032.068162","322781.489001","323548.306143","324315.359494","310498.825293","311265.816191","312032.694239","312782.029747","323557.3634","Mapping"
"Mixed","Both","ball","11","m150knife.wav","space","412.930528866","160","321265.77878","313548.788146","314315.482854","315082.015865","315849.184847","316615.673027","317382.129981","318131.751475","322032.068162","322781.489001","323548.306143","324315.359494","325081.813974","311265.816191","312032.694239","312782.029747","324325.05705","Mapping"
"Mixed","Both","ball","11","m160ball.wav","None","729.970693355","160","321265.77878","313548.788146","314315.482854","315082.015865","315849.184847","316615.673027","317382.129981","318131.751475","322032.068162","322781.489001","323548.306143","324315.359494","325081.813974","325848.567117","312032.694239","312782.029747","325091.247187","Mapping"
"Mixed","Both","ball","11","m150cave.wav","space","343.912654556","160","321265.77878","313548.788146","314315.482854","315082.015865","315849.184847","316615.673027","317382.129981","318131.751475","322032.068162","322781.489001","323548.306143","324315.359494","325081.813974","325848.567117","326615.478248","312782.029747","325858.052271","Mapping"
"Mixed","Both","ball","11","m150lash.wav","None","723.379718605","160","321265.77878","313548.788146","314315.482854","315082.015865","315849.184847","316615.673027","317382.129981","318131.751475","322032.068162","322781.489001","323548.306143","324315.359494","325081.813974","325848.567117","326615.478248","327382.112667","326625.389135","Mapping"
"Mixed","Both","ball","11","m160ball.wav","None","720.64105398","160","321265.77878","328148.916206","314315.482854","315082.015865","315849.184847","316615.673027","317382.129981","318131.751475","322032.068162","322781.489001","323548.306143","324315.359494","325081.813974","325848.567117","326615.478248","327382.112667","327392.325308","Mapping"
"Mixed","Both","ball","11","m150depth.wav","space","442.970508244","160","321265.77878","328148.916206","328898.549139","315082.015865","315849.184847","316615.673027","317382.129981","318131.751475","322032.068162","322781.489001","323548.306143","324315.359494","325081.813974","325848.567117","326615.478248","327382.112667","328158.941487","Mapping"
"Mixed","Both","ball","11","m150depth.wav","None","732.428009622","160","321265.77878","328148.916206","328898.549139","329665.219113","315849.184847","316615.673027","317382.129981","318131.751475","322032.068162","322781.489001","323548.306143","324315.359494","325081.813974","325848.567117","326615.478248","327382.112667","328908.038002","Mapping"
"Mixed","Both","ball","11","m150ball.wav","None","735.223253258","160","321265.77878","328148.916206","328898.549139","329665.219113","330431.383279","316615.673027","317382.129981","318131.751475","322032.068162","322781.489001","323548.306143","324315.359494","325081.813974","325848.567117","326615.478248","327382.112667","329669.456963","Mapping"
"Mixed","Both","ball","11","m160jaw.wav","space","417.335951468","160","321265.77878","328148.916206","328898.549139","329665.219113","330431.383279","331198.113234","317382.129981","318131.751475","322032.068162","322781.489001","323548.306143","324315.359494","325081.813974","325848.567117","326615.478248","327382.112667","330440.531743","Mapping"
"Mixed","Both","ball","11","m150jolt.wav","None","725.566198351","160","321265.77878","328148.916206","328898.549139","329665.219113","330431.383279","331198.113234","331965.219144","318131.751475","322032.068162","322781.489001","323548.306143","324315.359494","325081.813974","325848.567117","326615.478248","327382.112667","331207.207592","Mapping"
"Mixed","Both","ball","11","m160jaw.wav","None","726.193512557","160","321265.77878","328148.916206","328898.549139","329665.219113","330431.383279","331198.113234","331965.219144","332731.883554","322032.068162","322781.489001","323548.306143","324315.359494","325081.813974","325848.567117","326615.478248","327382.112667","331974.650193","Mapping"
"Mixed","Both","done","44","m160dime.wav","None","724.210469751","160","335848.912774","328148.916206","328898.549139","329665.219113","330431.383279","331198.113234","331965.219144","332731.883554","322032.068162","322781.489001","323548.306143","324315.359494","325081.813974","325848.567117","326615.478248","327382.112667","332740.84744","Mapping"
"Mixed","Both","done","44","m150reek.wav","None","719.176186947","160","335848.912774","328148.916206","328898.549139","329665.219113","330431.383279","331198.113234","331965.219144","332731.883554","336598.026603","322781.489001","323548.306143","324315.359494","325081.813974","325848.567117","326615.478248","327382.112667","335858.611258","Mapping"
"Mixed","Both","done","44","m150done.wav","None","734.918716596","160","335848.912774","328148.916206","328898.549139","329665.219113","330431.383279","331198.113234","331965.219144","332731.883554","336598.026603","337365.338424","323548.306143","324315.359494","325081.813974","325848.567117","326615.478248","327382.112667","336607.097155","Mapping"
"Mixed","Both","done","44","m160gnash.wav","space","411.164526129","160","335848.912774","328148.916206","328898.549139","329665.219113","330431.383279","331198.113234","331965.219144","332731.883554","336598.026603","337365.338424","338131.617602","324315.359494","325081.813974","325848.567117","326615.478248","327382.112667","337374.630653","Mapping"
"Mixed","Both","done","44","m160reek.wav","None","728.128324496","160","335848.912774","328148.916206","328898.549139","329665.219113","330431.383279","331198.113234","331965.219144","332731.883554","336598.026603","337365.338424","338131.617602","338898.041784","325081.813974","325848.567117","326615.478248","327382.112667","338140.809968","Mapping"
"Mixed","Both","done","44","m160done.wav","None","726.144044893","160","335848.912774","328148.916206","328898.549139","329665.219113","330431.383279","331198.113234","331965.219144","332731.883554","336598.026603","337365.338424","338131.617602","338898.041784","339665.523031","325848.567117","326615.478248","327382.112667","338907.013399","Mapping"
"Mixed","Both","done","44","m160bluff.wav","space","334.216953255","160","335848.912774","328148.916206","328898.549139","329665.219113","330431.383279","331198.113234","331965.219144","332731.883554","336598.026603","337365.338424","338131.617602","338898.041784","339665.523031","340415.337141","326615.478248","327382.112667","339675.538419","Mapping"
"Mixed","Both","done","44","m150romp.wav","None","735.542630078","160","335848.912774","328148.916206","328898.549139","329665.219113","330431.383279","331198.113234","331965.219144","332731.883554","336598.026603","337365.338424","338131.617602","338898.041784","339665.523031","340415.337141","341181.607044","327382.112667","340424.855995","Mapping"
"Mixed","Both","done","44","m150reek.wav","None","733.523722738","160","335848.912774","328148.916206","328898.549139","329665.219113","330431.383279","331198.113234","331965.219144","332731.883554","336598.026603","337365.338424","338131.617602","338898.041784","339665.523031","340415.337141","341181.607044","341948.312265","341191.205356","Mapping"
"Mixed","Both","done","44","m150gnash.wav","None","731.269534212","160","335848.912774","342714.605975","328898.549139","329665.219113","330431.383279","331198.113234","331965.219144","332731.883554","336598.026603","337365.338424","338131.617602","338898.041784","339665.523031","340415.337141","341181.607044","341948.312265","341957.802984","Mapping"
"Mixed","Both","done","44","m160done.wav","None","729.71624299","160","335848.912774","342714.605975","343481.574303","329665.219113","330431.383279","331198.113234","331965.219144","332731.883554","336598.026603","337365.338424","338131.617602","338898.041784","339665.523031","340415.337141","341181.607044","341948.312265","342723.576663","Mapping"
"Mixed","Both","done","44","m160cad.wav","space","342.646895675","160","335848.912774","342714.605975","343481.574303","344248.581277","330431.383279","331198.113234","331965.219144","332731.883554","336598.026603","337365.338424","338131.617602","338898.041784","339665.523031","340415.337141","341181.607044","341948.312265","343491.034722","Mapping"
"Mixed","Both","done","44","m160ball.wav","None","722.099428531","160","335848.912774","342714.605975","343481.574303","344248.581277","345014.767704","331198.113234","331965.219144","332731.883554","336598.026603","337365.338424","338131.617602","338898.041784","339665.523031","340415.337141","341181.607044","341948.312265","344258.620162","Mapping"
"Mixed","Both","done","44","m150priest.wav","None","720.956411678","160","335848.912774","342714.605975","343481.574303","344248.581277","345014.767704","345764.445776","331965.219144","332731.883554","336598.026603","337365.338424","338131.617602","338898.041784","339665.523031","340415.337141","341181.607044","341948.312265","345024.10971","Mapping"
"Mixed","Both","done","44","m150done.wav","None","735.860151937","160","335848.912774","342714.605975","343481.574303","344248.581277","345014.767704","345764.445776","346531.462026","332731.883554","336598.026603","337365.338424","338131.617602","338898.041784","339665.523031","340415.337141","341181.607044","341948.312265","345773.457893","Mapping"
"Mixed","Both","done","44","m150priest.wav","space","428.831974044","160","335848.912774","342714.605975","343481.574303","344248.581277","345014.767704","345764.445776","346531.462026","347298.325235","336598.026603","337365.338424","338131.617602","338898.041784","339665.523031","340415.337141","341181.607044","341948.312265","346540.780844","Mapping"
"Mixed","Both","done","45","m150jolt.wav","None","729.042243212","160","350431.695236","342714.605975","343481.574303","344248.581277","345014.767704","345764.445776","346531.462026","347298.325235","336598.026603","337365.338424","338131.617602","338898.041784","339665.523031","340415.337141","341181.607044","341948.312265","347307.598295","Mapping"
"Mixed","Both","done","45","m160tile.wav","None","719.923770055","160","350431.695236","342714.605975","343481.574303","344248.581277","345014.767704","345764.445776","346531.462026","347298.325235","351181.11793","337365.338424","338131.617602","338898.041784","339665.523031","340415.337141","341181.607044","341948.312265","350441.495748","Mapping"
"Mixed","Both","done","45","m160bluff.wav","None","735.424834536","160","350431.695236","342714.605975","343481.574303","344248.581277","345014.767704","345764.445776","346531.462026","347298.325235","351181.11793","351947.767191","338131.617602","338898.041784","339665.523031","340415.337141","341181.607044","341948.312265","351190.351108","Mapping"
"Mixed","Both","done","45","m160done.wav","None","733.231862541","160","350431.695236","342714.605975","343481.574303","344248.581277","345014.767704","345764.445776","346531.462026","347298.325235","351181.11793","351947.767191","352714.897835","338898.041784","339665.523031","340415.337141","341181.607044","341948.312265","351956.821974","Mapping"
"Mixed","Both","done","45","m150depth.wav","space","445.632188581","160","350431.695236","342714.605975","343481.574303","344248.581277","345014.767704","345764.445776","346531.462026","347298.325235","351181.11793","351947.767191","352714.897835","353481.398073","339665.523031","340415.337141","341181.607044","341948.312265","352723.909025","Mapping"
"Mixed","Both","done","45","m150done.wav","None","731.852945639","160","350431.695236","342714.605975","343481.574303","344248.581277","345014.767704","345764.445776","346531.462026","347298.325235","351181.11793","351947.767191","352714.897835","353481.398073","354247.790719","340415.337141","341181.607044","341948.312265","353485.51751","Mapping"
"Mixed","Both","done","45","m150cad.wav","space","409.025968518","160","350431.695236","342714.605975","343481.574303","344248.581277","345014.767704","345764.445776","346531.462026","347298.325235","351181.11793","351947.767191","352714.897835","353481.398073","354247.790719","355015.509722","341181.607044","341948.312265","354256.535401","Mapping"
"Mixed","Both","done","45","m150tile.wav","None","723.401670111","160","350431.695236","342714.605975","343481.574303","344248.581277","345014.767704","345764.445776","346531.462026","347298.325235","351181.11793","351947.767191","352714.897835","353481.398073","354247.790719","355015.509722","355781.707587","341948.312265","355025.375469","Mapping"
"Mixed","Both","done","45","m150dime.wav","None","721.340405988","160","350431.695236","342714.605975","343481.574303","344248.581277","345014.767704","345764.445776","346531.462026","347298.325235","351181.11793","351947.767191","352714.897835","353481.398073","354247.790719","355015.509722","355781.707587","356548.42703","355791.642899","Mapping"
"Mixed","Both","done","45","m160gnash.wav","None","719.002431026","160","350431.695236","357298.025954","343481.574303","344248.581277","345014.767704","345764.445776","346531.462026","347298.325235","351181.11793","351947.767191","352714.897835","353481.398073","354247.790719","355015.509722","355781.707587","356548.42703","356558.294632","Mapping"
"Mixed","Both","done","45","m160depth.wav","None","734.085492324","160","350431.695236","357298.025954","358064.78157","344248.581277","345014.767704","345764.445776","346531.462026","347298.325235","351181.11793","351947.767191","352714.897835","353481.398073","354247.790719","355015.509722","355781.707587","356548.42703","357307.72011","Mapping"
"Mixed","Both","done","45","m150done.wav","None","732.012170134","160","350431.695236","357298.025954","358064.78157","358831.26233","345014.767704","345764.445776","346531.462026","347298.325235","351181.11793","351947.767191","352714.897835","353481.398073","354247.790719","355015.509722","355781.707587","356548.42703","358074.076891","Mapping"
"Mixed","Both","done","45","m160jaw.wav","space","392.928506946","160","350431.695236","357298.025954","358064.78157","358831.26233","359598.154292","345764.445776","346531.462026","347298.325235","351181.11793","351947.767191","352714.897835","353481.398073","354247.790719","355015.509722","355781.707587","356548.42703","358840.527043","Mapping"
"Mixed","Both","done","45","m160dime.wav","None","725.75293947","160","350431.695236","357298.025954","358064.78157","358831.26233","359598.154292","360365.084592","346531.462026","347298.325235","351181.11793","351947.767191","352714.897835","353481.398073","354247.790719","355015.509722","355781.707587","356548.42703","359607.654596","Mapping"
"Mixed","Both","done","45","m160done.wav","space","306.505982531","160","350431.695236","357298.025954","358064.78157","358831.26233","359598.154292","360365.084592","361131.705408","347298.325235","351181.11793","351947.767191","352714.897835","353481.398073","354247.790719","355015.509722","355781.707587","356548.42703","360374.91262","Mapping"
"Mixed","Both","done","45","m150greet.wav","None","719.669937855","160","350431.695236","357298.025954","358064.78157","358831.26233","359598.154292","360365.084592","361131.705408","361881.166749","351181.11793","351947.767191","352714.897835","353481.398073","354247.790719","355015.509722","355781.707587","356548.42703","361141.266928","Mapping"
"Mixed","Both","done","37","m160lash.wav","space","70.526953321","160","365014.521292","357298.025954","358064.78157","358831.26233","359598.154292","360365.084592","361131.705408","361881.166749","351181.11793","351947.767191","352714.897835","353481.398073","354247.790719","355015.509722","355781.707587","356548.42703","361890.864306","Mapping"
"Mixed","Both","done","37","m150done.wav","None","720.63858062","160","365014.521292","357298.025954","358064.78157","358831.26233","359598.154292","360365.084592","361131.705408","361881.166749","365764.6016","351947.767191","352714.897835","353481.398073","354247.790719","355015.509722","355781.707587","356548.42703","365023.562781","Mapping"
"Mixed","Both","done","37","m160romp.wav","space","435.207763454","160","365014.521292","357298.025954","358064.78157","358831.26233","359598.154292","360365.084592","361131.705408","361881.166749","365764.6016","366531.252406","352714.897835","353481.398073","354247.790719","355015.509722","355781.707587","356548.42703","365774.134057","Mapping"
"Mixed","Both","done","37","m160romp.wav","None","731.181110255","160","365014.521292","357298.025954","358064.78157","358831.26233","359598.154292","360365.084592","361131.705408","361881.166749","365764.6016","366531.252406","367297.984525","353481.398073","354247.790719","355015.509722","355781.707587","356548.42703","366540.527012","Mapping"
"Mixed","Both","done","37","m160park.wav","None","728.081639158","160","365014.521292","357298.025954","358064.78157","358831.26233","359598.154292","360365.084592","361131.705408","361881.166749","365764.6016","366531.252406","367297.984525","368064.622345","354247.790719","355015.509722","355781.707587","356548.42703","367307.89232","Mapping"
"Mixed","Both","done","37","m160done.wav","None","726.408388698","160","365014.521292","357298.025954","358064.78157","358831.26233","359598.154292","360365.084592","361131.705408","361881.166749","365764.6016","366531.252406","367297.984525","368064.622345","368830.943881","355015.509722","355781.707587","356548.42703","368073.88644","Mapping"
"Mixed","Both","done","37","m150romp.wav","space","385.596132604","160","365014.521292","357298.025954","358064.78157","358831.26233","359598.154292","360365.084592","361131.705408","361881.166749","365764.6016","366531.252406","367297.984525","368064.622345","368830.943881","369597.71341","355781.707587","356548.42703","368839.721953","Mapping"
"Mixed","Both","done","37","m150cad.wav","None","721.659473842","160","365014.521292","357298.025954","358064.78157","358831.26233","359598.154292","360365.084592","361131.705408","361881.166749","365764.6016","366531.252406","367297.984525","368064.622345","368830.943881","369597.71341","370347.376024","356548.42703","369606.692136","Mapping"
"Mixed","Both","done","37","m160done.wav","None","736.260532402","160","365014.521292","357298.025954","358064.78157","358831.26233","359598.154292","360365.084592","361131.705408","361881.166749","365764.6016","366531.252406","367297.984525","368064.622345","368830.943881","369597.71341","370347.376024","371114.67455","370356.438227","Mapping"
"Mixed","Both","done","37","m150priest.wav","space","525.227528997","160","365014.521292","371881.13274","358064.78157","358831.26233","359598.154292","360365.084592","361131.705408","361881.166749","365764.6016","366531.252406","367297.984525","368064.622345","368830.943881","369597.71341","370347.376024","371114.67455","371124.041908","Mapping"
"Mixed","Both","done","37","m150cave.wav","None","729.56814873","160","365014.521292","371881.13274","372647.90567","358831.26233","359598.154292","360365.084592","361131.705408","361881.166749","365764.6016","366531.252406","367297.984525","368064.622345","368830.943881","369597.71341","370347.376024","371114.67455","371890.590377","Mapping"
"Mixed","Both","done","37","m160ball.wav","None","728.098025545","160","365014.521292","371881.13274","372647.90567","373414.174336","359598.154292","360365.084592","361131.705408","361881.166749","365764.6016","366531.252406","367297.984525","368064.622345","368830.943881","369597.71341","370347.376024","371114.67455","372657.016414","Mapping"
"Mixed","Both","done","37","m150gnash.wav","None","726.554009831","160","365014.521292","371881.13274","372647.90567","373414.174336","374181.575818","360365.084592","361131.705408","361881.166749","365764.6016","366531.252406","367297.984525","368064.622345","368830.943881","369597.71341","370347.376024","371114.67455","373422.999094","Mapping"
"Mixed","Both","done","37","m150tile.wav","None","723.2121462","160","365014.521292","371881.13274","372647.90567","373414.174336","374181.575818","374948.248884","361131.705408","361881.166749","365764.6016","366531.252406","367297.984525","368064.622345","368830.943881","369597.71341","370347.376024","371114.67455","374191.141975","Mapping"
"Mixed","Both","done","37","m150done.wav","None","720.243146876","160","365014.521292","371881.13274","372647.90567","373414.174336","374181.575818","374948.248884","375697.73465","361881.166749","365764.6016","366531.252406","367297.984525","368064.622345","368830.943881","369597.71341","370347.376024","371114.67455","374958.410202","Mapping"
"Mixed","Both","done","37","m160dime.wav","space","502.036684658","160","365014.521292","371881.13274","372647.90567","373414.174336","374181.575818","374948.248884","375697.73465","376464.563231","365764.6016","366531.252406","367297.984525","368064.622345","368830.943881","369597.71341","370347.376024","371114.67455","375707.134472","Mapping"
"Mixed","Both","cave","18","m150dime.wav","None","732.711831573","160","379598.295894","371881.13274","372647.90567","373414.174336","374181.575818","374948.248884","375697.73465","376464.563231","365764.6016","366531.252406","367297.984525","368064.622345","368830.943881","369597.71341","370347.376024","371114.67455","376473.666864","Mapping"
"Mixed","Both","cave","18","m160ball.wav","None","720.132771879","160","379598.295894","371881.13274","372647.90567","373414.174336","374181.575818","374948.248884","375697.73465","376464.563231","380347.429511","366531.252406","367297.984525","368064.622345","368830.943881","369597.71341","370347.376024","371114.67455","379607.998397","Mapping"
"Mixed","Both","cave","18","m160cave.wav","None","735.48265011","160","379598.295894","371881.13274","372647.90567","373414.174336","374181.575818","374948.248884","375697.73465","376464.563231","380347.429511","381114.481007","367297.984525","368064.622345","368830.943881","369597.71341","370347.376024","371114.67455","380357.044827","Mapping"
"Mixed","Both","cave","18","m160priest.wav","space","437.646838604","160","379598.295894","371881.13274","372647.90567","373414.174336","374181.575818","374948.248884","375697.73465","376464.563231","380347.429511","381114.481007","381880.987428","368064.622345","368830.943881","369597.71341","370347.376024","371114.67455","381123.493124","Mapping"
"Mixed","Both","cave","18","m160reek.wav","None","729.548670817","160","379598.295894","371881.13274","372647.90567","373414.174336","374181.575818","374948.248884","375697.73465","376464.563231","380347.429511","381114.481007","381880.987428","382647.822502","368830.943881","369597.71341","370347.376024","371114.67455","381890.609855","Mapping"
"Mixed","Both","cave","18","m150cling.wav","None","727.610766888","160","379598.295894","371881.13274","372647.90567","373414.174336","374181.575818","374948.248884","375697.73465","376464.563231","380347.429511","381114.481007","381880.987428","382647.822502","383414.381174","369597.71341","370347.376024","371114.67455","382656.897382","Mapping"
"Mixed","Both","cave","18","m150cave.wav","None","725.638235919","160","379598.295894","371881.13274","372647.90567","373414.174336","374181.575818","374948.248884","375697.73465","376464.563231","380347.429511","381114.481007","381880.987428","382647.822502","383414.381174","384181.606735","370347.376024","371114.67455","383423.817479","Mapping"
"Mixed","Both","cave","18","m150done.wav","space","554.09140978","160","379598.295894","371881.13274","372647.90567","373414.174336","374181.575818","374948.248884","375697.73465","376464.563231","380347.429511","381114.481007","381880.987428","382647.822502","383414.381174","384181.606735","384948.208691","371114.67455","384190.997282","Mapping"
"Mixed","Both","cave","18","m160cave.wav","None","718.601432163","160","379598.295894","371881.13274","372647.90567","373414.174336","374181.575818","374948.248884","375697.73465","376464.563231","380347.429511","381114.481007","381880.987428","382647.822502","383414.381174","384181.606735","384948.208691","385697.579445","384958.514084","Mapping"
"Mixed","Both","cave","18","m150done.wav","space","598.071124172","160","379598.295894","386464.408644","372647.90567","373414.174336","374181.575818","374948.248884","375697.73465","376464.563231","380347.429511","381114.481007","381880.987428","382647.822502","383414.381174","384181.606735","384948.208691","385697.579445","385706.979576","Mapping"
"Mixed","Both","cave","18","m160gnash.wav","None","731.168125058","160","379598.295894","386464.408644","387230.897443","373414.174336","374181.575818","374948.248884","375697.73465","376464.563231","380347.429511","381114.481007","381880.987428","382647.822502","383414.381174","384181.606735","384948.208691","385697.579445","386473.545668","Mapping"
"Mixed","Both","cave","18","m150cave.wav","None","728.92321134","160","379598.295894","386464.408644","387230.897443","387997.808265","374181.575818","374948.248884","375697.73465","376464.563231","380347.429511","381114.481007","381880.987428","382647.822502","383414.381174","384181.606735","384948.208691","385697.579445","387240.240995","Mapping"
"Mixed","Both","cave","18","m160greet.wav","space","617.925051833","160","379598.295894","386464.408644","387230.897443","387997.808265","388764.937054","374948.248884","375697.73465","376464.563231","380347.429511","381114.481007","381880.987428","382647.822502","383414.381174","384181.606735","384948.208691","385697.579445","388007.111315","Mapping"
"Mixed","Both","cave","18","m150cling.wav","None","722.376139369","160","379598.295894","386464.408644","387230.897443","387997.808265","388764.937054","389531.105239","375697.73465","376464.563231","380347.429511","381114.481007","381880.987428","382647.822502","383414.381174","384181.606735","384948.208691","385697.579445","388774.715923","Mapping"
"Mixed","Both","cave","18","m150romp.wav","None","720.667952206","160","379598.295894","386464.408644","387230.897443","387997.808265","388764.937054","389531.105239","390280.382622","376464.563231","380347.429511","381114.481007","381880.987428","382647.822502","383414.381174","384181.606735","384948.208691","385697.579445","389540.871741","Mapping"
"Mixed","Both","cave","18","m160park.wav","None","736.571561545","160","379598.295894","386464.408644","387230.897443","387997.808265","388764.937054","389531.105239","390280.382622","391047.565826","380347.429511","381114.481007","381880.987428","382647.822502","383414.381174","384181.606735","384948.208691","385697.579445","390289.51037","Mapping"
"Mixed","Both","ball","7","m150priest.wav","None","733.966769418","160","394180.989005","386464.408644","387230.897443","387997.808265","388764.937054","389531.105239","390280.382622","391047.565826","380347.429511","381114.481007","381880.987428","382647.822502","383414.381174","384181.606735","384948.208691","385697.579445","391056.866093","Mapping"
"Mixed","Both","ball","7","m150ball.wav","None","719.712913269","160","394180.989005","386464.408644","387230.897443","387997.808265","388764.937054","389531.105239","390280.382622","391047.565826","394930.557321","381114.481007","381880.987428","382647.822502","383414.381174","384181.606735","384948.208691","385697.579445","394191.205356","Mapping"
"Mixed","Both","ball","7","m160lash.wav","space","413.517032284","160","394180.989005","386464.408644","387230.897443","387997.808265","388764.937054","389531.105239","390280.382622","391047.565826","394930.557321","395697.605724","381880.987428","382647.822502","383414.381174","384181.606735","384948.208691","385697.579445","394939.409286","Mapping"
"Mixed","Both","ball","7","m160ball.wav","None","731.450401014","160","394180.989005","386464.408644","387230.897443","387997.808265","388764.937054","389531.105239","390280.382622","391047.565826","394930.557321","395697.605724","396463.847493","382647.822502","383414.381174","384181.606735","384948.208691","385697.579445","395706.948349","Mapping"
"Mixed","Both","ball","7","m150cling.wav","space","400.356725091","160","394180.989005","386464.408644","387230.897443","387997.808265","388764.937054","389531.105239","390280.382622","391047.565826","394930.557321","395697.605724","396463.847493","397230.41204","383414.381174","384181.606735","384948.208691","385697.579445","396472.544871","Mapping"
"Mixed","Both","ball","7","m150dime.wav","None","726.60255013","160","394180.989005","386464.408644","387230.897443","387997.808265","388764.937054","389531.105239","390280.382622","391047.565826","394930.557321","395697.605724","396463.847493","397230.41204","397997.901017","384181.606735","384948.208691","385697.579445","397239.593275","Mapping"
"Mixed","Both","ball","7","m160done.wav","None","723.184011411","160","394180.989005","386464.408644","387230.897443","387997.808265","388764.937054","389531.105239","390280.382622","391047.565826","394930.557321","395697.605724","396463.847493","397230.41204","397997.901017","398763.88648","384948.208691","385697.579445","398007.774184","Mapping"
"Mixed","Both","ball","7","m150cling.wav","None","722.638937412","160","394180.989005","386464.408644","387230.897443","387997.808265","388764.937054","389531.105239","390280.382622","391047.565826","394930.557321","395697.605724","396463.847493","397230.41204","397997.901017","398763.88648","399531.146359","385697.579445","398772.862424","Mapping"
"Mixed","Both","ball","7","m160ball.wav","None","720.246856799","160","394180.989005","386464.408644","387230.897443","387997.808265","388764.937054","389531.105239","390280.382622","391047.565826","394930.557321","395697.605724","396463.847493","397230.41204","397997.901017","398763.88648","399531.146359","400280.411066","399540.588538","Mapping"
"Mixed","Both","ball","7","m160knife.wav","space","590.695774881","160","394180.989005","401047.481421","387230.897443","387997.808265","388764.937054","389531.105239","390280.382622","391047.565826","394930.557321","395697.605724","396463.847493","397230.41204","397997.901017","398763.88648","399531.146359","400280.411066","400290.179732","Mapping"
"Mixed","Both","ball","7","m160jaw.wav","None","731.412990717","160","394180.989005","401047.481421","401814.178603","387997.808265","388764.937054","389531.105239","390280.382622","391047.565826","394930.557321","395697.605724","396463.847493","397230.41204","397997.901017","398763.88648","399531.146359","400280.411066","401057.318106","Mapping"
"Mixed","Both","ball","7","m150ball.wav","None","729.931737529","160","394180.989005","401047.481421","401814.178603","402580.637103","388764.937054","389531.105239","390280.382622","391047.565826","394930.557321","395697.605724","396463.847493","397230.41204","397997.901017","398763.88648","399531.146359","400280.411066","401823.260594","Mapping"
"Mixed","Both","ball","7","m160cling.wav","None","728.191705421","160","394180.989005","401047.481421","401814.178603","402580.637103","403347.401685","389531.105239","390280.382622","391047.565826","394930.557321","395697.605724","396463.847493","397230.41204","397997.901017","398763.88648","399531.146359","400280.411066","402589.693741","Mapping"
"Mixed","Both","ball","7","m150priest.wav","space","227.716349997","160","394180.989005","401047.481421","401814.178603","402580.637103","403347.401685","404114.536658","390280.382622","391047.565826","394930.557321","395697.605724","396463.847493","397230.41204","397997.901017","398763.88648","399531.146359","400280.411066","403357.096768","Mapping"
"Mixed","Both","ball","7","m160jolt.wav","None","713.782643666","160","394180.989005","401047.481421","401814.178603","402580.637103","403347.401685","404114.536658","404880.619202","391047.565826","394930.557321","395697.605724","396463.847493","397230.41204","397997.901017","398763.88648","399531.146359","400280.411066","404132.297785","Mapping"
"Mixed","Both","ball","7","m150park.wav","None","721.014845418","160","394180.989005","401047.481421","401814.178603","402580.637103","403347.401685","404114.536658","404880.619202","405630.341795","394930.557321","395697.605724","396463.847493","397230.41204","397997.901017","398763.88648","399531.146359","400280.411066","404889.720052","Mapping"
"Mixed","Both","tile","35","m160depth.wav","None","735.355270561","160","408764.325816","401047.481421","401814.178603","402580.637103","403347.401685","404114.536658","404880.619202","405630.341795","394930.557321","395697.605724","396463.847493","397230.41204","397997.901017","398763.88648","399531.146359","400280.411066","405640.098713","Mapping"
"Mixed","Both","tile","35","m150lash.wav","None","719.180515502","160","408764.325816","401047.481421","401814.178603","402580.637103","403347.401685","404114.536658","404880.619202","405630.341795","409513.58805","395697.605724","396463.847493","397230.41204","397997.901017","398763.88648","399531.146359","400280.411066","408774.48868","Mapping"
"Mixed","Both","tile","35","m150tile.wav","None","735.659807222","160","408764.325816","401047.481421","401814.178603","402580.637103","403347.401685","404114.536658","404880.619202","405630.341795","409513.58805","410280.717457","396463.847493","397230.41204","397997.901017","398763.88648","399531.146359","400280.411066","409522.713016","Mapping"
"Mixed","Both","tile","35","m150lash.wav","space","357.199104736","160","408764.325816","401047.481421","401814.178603","402580.637103","403347.401685","404114.536658","404880.619202","405630.341795","409513.58805","410280.717457","411046.904811","397230.41204","397997.901017","398763.88648","399531.146359","400280.411066","410291.489703","Mapping"
"Mixed","Both","tile","35","m160romp.wav","None","730.327171041","160","408764.325816","401047.481421","401814.178603","402580.637103","403347.401685","404114.536658","404880.619202","405630.341795","409513.58805","410280.717457","411046.904811","411813.993099","397997.901017","398763.88648","399531.146359","400280.411066","411056.188693","Mapping"
"Mixed","Both","tile","35","m160tile.wav","None","728.08411275","160","408764.325816","401047.481421","401814.178603","402580.637103","403347.401685","404114.536658","404880.619202","405630.341795","409513.58805","410280.717457","411046.904811","411813.993099","412580.348025","398763.88648","399531.146359","400280.411066","411823.240807","Mapping"
"Mixed","Both","tile","35","m150jaw.wav","space","394.602066604","160","408764.325816","401047.481421","401814.178603","402580.637103","403347.401685","404114.536658","404880.619202","405630.341795","409513.58805","410280.717457","411046.904811","411813.993099","412580.348025","413347.600175","399531.146359","400280.411066","412590.055784","Mapping"
"Mixed","Both","tile","35","m150park.wav","None","721.458819695","160","408764.325816","401047.481421","401814.178603","402580.637103","403347.401685","404114.536658","404880.619202","405630.341795","409513.58805","410280.717457","411046.904811","411813.993099","412580.348025","413347.600175","414114.507286","400280.411066","413357.817144","Mapping"
"Mixed","Both","tile","35","m160gnash.wav","None","719.642421696","160","408764.325816","401047.481421","401814.178603","402580.637103","403347.401685","404114.536658","404880.619202","405630.341795","409513.58805","410280.717457","411046.904811","411813.993099","412580.348025","413347.600175","414114.507286","414863.675221","414124.428066","Mapping"
"Mixed","Both","tile","35","m150park.wav","None","734.281508485","160","408764.325816","415630.383224","401814.178603","402580.637103","403347.401685","404114.536658","404880.619202","405630.341795","409513.58805","410280.717457","411046.904811","411813.993099","412580.348025","413347.600175","414114.507286","414863.675221","414874.482404","Mapping"
"Mixed","Both","tile","35","m160tile.wav","None","733.385212719","160","408764.325816","415630.383224","416397.157082","402580.637103","403347.401685","404114.536658","404880.619202","405630.341795","409513.58805","410280.717457","411046.904811","411813.993099","412580.348025","413347.600175","414114.507286","414863.675221","415639.89404","Mapping"
"Mixed","Both","tile","35","m150gnash.wav","space","569.365849718","160","408764.325816","415630.383224","416397.157082","417164.220017","403347.401685","404114.536658","404880.619202","405630.341795","409513.58805","410280.717457","411046.904811","411813.993099","412580.348025","413347.600175","414114.507286","414863.675221","416407.263367","Mapping"
"Mixed","Both","tile","35","m150tile.wav","None","726.651399629","160","408764.325816","415630.383224","416397.157082","417164.220017","417930.292049","404114.536658","404880.619202","405630.341795","409513.58805","410280.717457","411046.904811","411813.993099","412580.348025","413347.600175","414114.507286","414863.675221","417174.578588","Mapping"
"Mixed","Both","tile","35","m160gnash.wav","space","621.045855805","160","408764.325816","415630.383224","416397.157082","417164.220017","417930.292049","418697.394558","404880.619202","405630.341795","409513.58805","410280.717457","411046.904811","411813.993099","412580.348025","413347.600175","414114.507286","414863.675221","417939.549651","Mapping"
"Mixed","Both","tile","35","m160priest.wav","None","721.537968144","160","408764.325816","415630.383224","416397.157082","417164.220017","417930.292049","418697.394558","419464.296414","405630.341795","409513.58805","410280.717457","411046.904811","411813.993099","412580.348025","413347.600175","414114.507286","414863.675221","418707.672435","Mapping"
"Mixed","Both","tile","35","m160depth.wav","None","719.867500244","160","408764.325816","415630.383224","416397.157082","417164.220017","417930.292049","418697.394558","419464.296414","420214.07064","409513.58805","410280.717457","411046.904811","411813.993099","412580.348025","413347.600175","414114.507286","414863.675221","419474.332207","Mapping"
"Mixed","Both","ball","6","m160jolt.wav","None","734.08085457","160","423347.571422","415630.383224","416397.157082","417164.220017","417930.292049","418697.394558","419464.296414","420214.07064","409513.58805","410280.717457","411046.904811","411813.993099","412580.348025","413347.600175","414114.507286","414863.675221","420224.888952","Mapping"
"Mixed","Both","ball","6","m160gnash.wav","None","719.899345189","160","423347.571422","415630.383224","416397.157082","417164.220017","417930.292049","418697.394558","419464.296414","420214.07064","424096.979585","410280.717457","411046.904811","411813.993099","412580.348025","413347.600175","414114.507286","414863.675221","423357.518482","Mapping"
"Mixed","Both","ball","6","m150gnash.wav","None","735.435037408","160","423347.571422","415630.383224","416397.157082","417164.220017","417930.292049","418697.394558","419464.296414","420214.07064","424096.979585","424863.839393","411046.904811","411813.993099","412580.348025","413347.600175","414114.507286","414863.675221","424106.698475","Mapping"
"Mixed","Both","ball","6","m160done.wav","None","733.526505297","160","423347.571422","415630.383224","416397.157082","417164.220017","417930.292049","418697.394558","419464.296414","420214.07064","424096.979585","424863.839393","425630.330356","411813.993099","412580.348025","413347.600175","414114.507286","414863.675221","424873.381744","Mapping"
"Mixed","Both","ball","6","m160ball.wav","None","731.715672184","160","423347.571422","415630.383224","416397.157082","417164.220017","417930.292049","418697.394558","419464.296414","420214.07064","424096.979585","424863.839393","425630.330356","426397.046397","412580.348025","413347.600175","414114.507286","414863.675221","425639.967623","Mapping"
"Mixed","Both","ball","6","m150park.wav","space","367.089276668","160","423347.571422","415630.383224","416397.157082","417164.220017","417930.292049","418697.394558","419464.296414","420214.07064","424096.979585","424863.839393","425630.330356","426397.046397","427163.810361","413347.600175","414114.507286","414863.675221","426401.36958","Mapping"
"Mixed","Both","ball","6","m150reek.wav","None","726.56730446","160","423347.571422","415630.383224","416397.157082","417164.220017","417930.292049","418697.394558","419464.296414","420214.07064","424096.979585","424863.839393","425630.330356","426397.046397","427163.810361","427930.418192","414114.507286","414863.675221","427173.694041","Mapping"
"Mixed","Both","ball","6","m150dime.wav","None","724.693399854","160","423347.571422","415630.383224","416397.157082","417164.220017","417930.292049","418697.394558","419464.296414","420214.07064","424096.979585","424863.839393","425630.330356","426397.046397","427163.810361","427930.418192","428697.271198","414863.675221","427940.291669","Mapping"
"Mixed","Both","ball","6","m160ball.wav","None","721.975758905","160","423347.571422","415630.383224","416397.157082","417164.220017","417930.292049","418697.394558","419464.296414","420214.07064","424096.979585","424863.839393","425630.330356","426397.046397","427163.810361","427930.418192","428697.271198","429463.487924","428707.862577","Mapping"
"Mixed","Both","ball","6","m160lash.wav","space","519.539961126","160","423347.571422","430213.580599","416397.157082","417164.220017","417930.292049","418697.394558","419464.296414","420214.07064","424096.979585","424863.839393","425630.330356","426397.046397","427163.810361","427930.418192","428697.271198","429463.487924","429472.86363","Mapping"
"Mixed","Both","ball","6","m160gnash.wav","None","734.155056532","160","423347.571422","430213.580599","430980.262013","417164.220017","417930.292049","418697.394558","419464.296414","420214.07064","424096.979585","424863.839393","425630.330356","426397.046397","427163.810361","427930.418192","428697.271198","429463.487924","430223.484683","Mapping"
"Mixed","Both","ball","6","m150ball.wav","None","732.607948827","160","423347.571422","430213.580599","430980.262013","431746.64291","417930.292049","418697.394558","419464.296414","420214.07064","424096.979585","424863.839393","425630.330356","426397.046397","427163.810361","427930.418192","428697.271198","429463.487924","430989.922469","Mapping"
"Mixed","Both","ball","6","m160greet.wav","space","500.455877511","160","423347.571422","430213.580599","430980.262013","431746.64291","432513.89877","418697.394558","419464.296414","420214.07064","424096.979585","424863.839393","425630.330356","426397.046397","427163.810361","427930.418192","428697.271198","429463.487924","431755.89371","Mapping"
"Mixed","Both","ball","6","m150knife.wav","None","726.181145757","160","423347.571422","430213.580599","430980.262013","431746.64291","432513.89877","433280.228035","419464.296414","420214.07064","424096.979585","424863.839393","425630.330356","426397.046397","427163.810361","427930.418192","428697.271198","429463.487924","432524.104299","Mapping"
