"Condition","Talker","Target","Trial","current_stimulus","response_response","response_time_response","subject_nr","time_Audio1","time_Audio10","time_Audio11","time_Audio12","time_Audio13","time_Audio14","time_Audio15","time_Audio16","time_Audio2","time_Audio3","time_Audio4","time_Audio5","time_Audio6","time_Audio7","time_Audio8","time_Audio9","time_response","title"
"Mixed","Both","done","45","m150jaw.wav","NA","NA","143","115395.97945","NA","NA","NA","NA","NA","NA","NA","NA","NA","NA","NA","NA","NA","NA","NA","NA","Mapping"
"Mixed","Both","done","45","m150done.wav","None","716.825174633","143","115395.97945","NA","NA","NA","NA","NA","NA","NA","116162.5778","NA","NA","NA","NA","NA","NA","NA","115410.279638","Mapping"
"Mixed","Both","done","45","m160reek.wav","space","589.497757144","143","115395.97945","NA","NA","NA","NA","NA","NA","NA","116162.5778","116911.949946","NA","NA","NA","NA","NA","NA","116171.963989","Mapping"
"Mixed","Both","done","45","m160ball.wav","None","735.011051409","143","115395.97945","NA","NA","NA","NA","NA","NA","NA","116162.5778","116911.949946","117678.81573","NA","NA","NA","NA","NA","116921.637579","Mapping"
"Mixed","Both","done","45","m150tile.wav","None","733.223412186","143","115395.97945","NA","NA","NA","NA","NA","NA","NA","116162.5778","116911.949946","117678.81573","118445.606695","NA","NA","NA","NA","117688.332081","Mapping"
"Mixed","Both","done","45","m150reek.wav","None","731.558823492","143","115395.97945","NA","NA","NA","NA","NA","NA","NA","116162.5778","116911.949946","117678.81573","118445.606695","119212.342627","NA","NA","NA","118454.553549","Mapping"
"Mixed","Both","done","45","m160done.wav","None","729.709967505","143","115395.97945","NA","NA","NA","NA","NA","NA","NA","116162.5778","116911.949946","117678.81573","118445.606695","119212.342627","119979.082578","NA","NA","119221.432937","Mapping"
"Mixed","Both","done","45","m160dime.wav","space","428.78829129","143","115395.97945","NA","NA","NA","NA","NA","NA","NA","116162.5778","116911.949946","117678.81573","118445.606695","119212.342627","119979.082578","120745.554166","NA","119988.629846","Mapping"
"Mixed","Both","done","45","m150cave.wav","None","731.420313939","143","115395.97945","NA","NA","NA","NA","NA","NA","NA","116162.5778","116911.949946","117678.81573","118445.606695","119212.342627","119979.082578","120745.554166","121512.799925","120749.353905","Mapping"
"Mixed","Both","done","45","m160cling.wav","None","716.397588141","143","115395.97945","122279.286663","NA","NA","NA","NA","NA","NA","116162.5778","116911.949946","117678.81573","118445.606695","119212.342627","119979.082578","120745.554166","121512.799925","121529.017605","Mapping"
"Mixed","Both","done","45","m160cad.wav","None","720.96995078","143","115395.97945","122279.286663","123029.616319","NA","NA","NA","NA","NA","116162.5778","116911.949946","117678.81573","118445.606695","119212.342627","119979.082578","120745.554166","121512.799925","122289.075086","Mapping"
"Mixed","Both","done","45","m160done.wav","None","735.800679773","143","115395.97945","122279.286663","123029.616319","123795.449774","NA","NA","NA","NA","116162.5778","116911.949946","117678.81573","118445.606695","119212.342627","119979.082578","120745.554166","121512.799925","123038.9045","Mapping"
"Mixed","Both","done","45","m160knife.wav","space","436.913053971","143","115395.97945","122279.286663","123029.616319","123795.449774","124562.310612","NA","NA","NA","116162.5778","116911.949946","117678.81573","118445.606695","119212.342627","119979.082578","120745.554166","121512.799925","123804.415488","Mapping"
"Mixed","Both","done","45","m150done.wav","None","732.533646282","143","115395.97945","122279.286663","123029.616319","123795.449774","124562.310612","125328.759322","NA","NA","116162.5778","116911.949946","117678.81573","118445.606695","119212.342627","119979.082578","120745.554166","121512.799925","124571.786461","Mapping"
"Mixed","Both","done","45","m150ball.wav","None","731.12629028","143","115395.97945","122279.286663","123029.616319","123795.449774","124562.310612","125328.759322","126095.701163","NA","116162.5778","116911.949946","117678.81573","118445.606695","119212.342627","119979.082578","120745.554166","121512.799925","125337.795218","Mapping"
"Mixed","Both","done","45","m150lash.wav","space","8.4354816936","143","115395.97945","122279.286663","123029.616319","123795.449774","124562.310612","125328.759322","126095.701163","126861.75444","116162.5778","116911.949946","117678.81573","118445.606695","119212.342627","119979.082578","120745.554166","121512.799925","126104.872477","Mapping"
"Mixed","Both","tile","31","m160romp.wav","None","731.330344453","143","130062.605718","122279.286663","123029.616319","123795.449774","124562.310612","125328.759322","126095.701163","126861.75444","116162.5778","116911.949946","117678.81573","118445.606695","119212.342627","119979.082578","120745.554166","121512.799925","126870.365532","Mapping"
"Mixed","Both","tile","31","m150tile.wav","None","721.643329598","143","130062.605718","122279.286663","123029.616319","123795.449774","124562.310612","125328.759322","126095.701163","126861.75444","130829.25168","116911.949946","117678.81573","118445.606695","119212.342627","119979.082578","120745.554166","121512.799925","130071.94955","Mapping"
"Mixed","Both","tile","31","m160cling.wav","None","719.362559263","143","130062.605718","122279.286663","123029.616319","123795.449774","124562.310612","125328.759322","126095.701163","126861.75444","130829.25168","131578.733274","117678.81573","118445.606695","119212.342627","119979.082578","120745.554166","121512.799925","130839.196854","Mapping"
"Mixed","Both","tile","31","m160bluff.wav","None","735.690923408","143","130062.605718","122279.286663","123029.616319","123795.449774","124562.310612","125328.759322","126095.701163","126861.75444","130829.25168","131578.733274","132346.02108","118445.606695","119212.342627","119979.082578","120745.554166","121512.799925","131587.752784","Mapping"
"Mixed","Both","tile","31","m150tile.wav","None","733.358520549","143","130062.605718","122279.286663","123029.616319","123795.449774","124562.310612","125328.759322","126095.701163","126861.75444","130829.25168","131578.733274","132346.02108","133112.139284","119212.342627","119979.082578","120745.554166","121512.799925","132355.064705","Mapping"
"Mixed","Both","tile","31","m150gnash.wav","None","732.510458212","143","130062.605718","122279.286663","123029.616319","123795.449774","124562.310612","125328.759322","126095.701163","126861.75444","130829.25168","131578.733274","132346.02108","133112.139284","133878.811216","119979.082578","120745.554166","121512.799925","133121.108089","Mapping"
"Mixed","Both","tile","31","m150romp.wav","None","730.040473863","143","130062.605718","122279.286663","123029.616319","123795.449774","124562.310612","125328.759322","126095.701163","126861.75444","130829.25168","131578.733274","132346.02108","133112.139284","133878.811216","134645.524269","120745.554166","121512.799925","133888.480299","Mapping"
"Mixed","Both","tile","31","m160tile.wav","None","728.840263095","143","130062.605718","122279.286663","123029.616319","123795.449774","124562.310612","125328.759322","126095.701163","126861.75444","130829.25168","131578.733274","132346.02108","133112.139284","133878.811216","134645.524269","135412.024611","121512.799925","134654.595102","Mapping"
"Mixed","Both","tile","31","m160lash.wav","None","727.150632069","143","130062.605718","122279.286663","123029.616319","123795.449774","124562.310612","125328.759322","126095.701163","126861.75444","130829.25168","131578.733274","132346.02108","133112.139284","133878.811216","134645.524269","135412.024611","136178.594208","135421.239519","Mapping"
"Mixed","Both","tile","31","m150bluff.wav","None","725.928470027","143","130062.605718","136945.941684","123029.616319","123795.449774","124562.310612","125328.759322","126095.701163","126861.75444","130829.25168","131578.733274","132346.02108","133112.139284","133878.811216","134645.524269","135412.024611","136178.594208","136187.341645","Mapping"
"Mixed","Both","tile","31","m150gnash.wav","None","722.467585467","143","130062.605718","136945.941684","137712.17861","123795.449774","124562.310612","125328.759322","126095.701163","126861.75444","130829.25168","131578.733274","132346.02108","133112.139284","133878.811216","134645.524269","135412.024611","136178.594208","136955.813275","Mapping"
"Mixed","Both","tile","31","m160ball.wav","None","721.40464792","143","130062.605718","136945.941684","137712.17861","138479.239793","124562.310612","125328.759322","126095.701163","126861.75444","130829.25168","131578.733274","132346.02108","133112.139284","133878.811216","134645.524269","135412.024611","136178.594208","137721.982183","Mapping"
"Mixed","Both","tile","31","m150bluff.wav","None","719.134079758","143","130062.605718","136945.941684","137712.17861","138479.239793","139228.6005","125328.759322","126095.701163","126861.75444","130829.25168","131578.733274","132346.02108","133112.139284","133878.811216","134645.524269","135412.024611","136178.594208","138489.285448","Mapping"
"Mixed","Both","tile","31","m160tile.wav","None","735.274467152","143","130062.605718","136945.941684","137712.17861","138479.239793","139228.6005","139995.085383","126095.701163","126861.75444","130829.25168","131578.733274","132346.02108","133112.139284","133878.811216","134645.524269","135412.024611","136178.594208","139238.044813","Mapping"
"Mixed","Both","tile","31","m150reek.wav","space","357.118851971","143","130062.605718","136945.941684","137712.17861","138479.239793","139228.6005","139995.085383","140761.974355","126861.75444","130829.25168","131578.733274","132346.02108","133112.139284","133878.811216","134645.524269","135412.024611","136178.594208","140003.946287","Mapping"
"Mixed","Both","tile","31","m160romp.wav","None","731.803379487","143","130062.605718","136945.941684","137712.17861","138479.239793","139228.6005","139995.085383","140761.974355","141528.684935","130829.25168","131578.733274","132346.02108","133112.139284","133878.811216","134645.524269","135412.024611","136178.594208","140770.991392","Mapping"
"Mixed","Both","done","41","m150cling.wav","None","730.198770296","143","144662.523231","136945.941684","137712.17861","138479.239793","139228.6005","139995.085383","140761.974355","141528.684935","130829.25168","131578.733274","132346.02108","133112.139284","133878.811216","134645.524269","135412.024611","136178.594208","141537.711246","Mapping"
"Mixed","Both","done","41","m160tile.wav","None","721.357344184","143","144662.523231","136945.941684","137712.17861","138479.239793","139228.6005","139995.085383","140761.974355","141528.684935","145429.276476","131578.733274","132346.02108","133112.139284","133878.811216","134645.524269","135412.024611","136178.594208","144671.93539","Mapping"
"Mixed","Both","done","41","m160done.wav","None","719.353283755","143","144662.523231","136945.941684","137712.17861","138479.239793","139228.6005","139995.085383","140761.974355","141528.684935","145429.276476","146178.537011","132346.02108","133112.139284","133878.811216","134645.524269","135412.024611","136178.594208","145438.841367","Mapping"
"Mixed","Both","done","41","m150park.wav","space","373.030760325","143","144662.523231","136945.941684","137712.17861","138479.239793","139228.6005","139995.085383","140761.974355","141528.684935","145429.276476","146178.537011","146945.291184","133112.139284","133878.811216","134645.524269","135412.024611","136178.594208","146187.926601","Mapping"
"Mixed","Both","done","41","m160dime.wav","None","733.443852514","143","144662.523231","136945.941684","137712.17861","138479.239793","139228.6005","139995.085383","140761.974355","141528.684935","145429.276476","146178.537011","146945.291184","147711.645287","133878.811216","134645.524269","135412.024611","136178.594208","146954.467444","Mapping"
"Mixed","Both","done","41","m150romp.wav","None","738.693613559","143","144662.523231","136945.941684","137712.17861","138479.239793","139228.6005","139995.085383","140761.974355","141528.684935","145429.276476","146178.537011","146945.291184","147711.645287","148478.603205","134645.524269","135412.024611","136178.594208","147715.192121","Mapping"
"Mixed","Both","done","41","m150done.wav","None","731.26263544","143","144662.523231","136945.941684","137712.17861","138479.239793","139228.6005","139995.085383","140761.974355","141528.684935","145429.276476","146178.537011","146945.291184","147711.645287","148478.603205","149244.965346","135412.024611","136178.594208","148487.571392","Mapping"
"Mixed","Both","done","41","m150greet.wav","space","371.287641581","143","144662.523231","136945.941684","137712.17861","138479.239793","139228.6005","139995.085383","140761.974355","141528.684935","145429.276476","146178.537011","146945.291184","147711.645287","148478.603205","149244.965346","150011.80145","136178.594208","149253.601172","Mapping"
"Mixed","Both","done","41","m150depth.wav","None","727.781035937","143","144662.523231","136945.941684","137712.17861","138479.239793","139228.6005","139995.085383","140761.974355","141528.684935","145429.276476","146178.537011","146945.291184","147711.645287","148478.603205","149244.965346","150011.80145","150778.529343","150020.825288","Mapping"
"Mixed","Both","done","41","m160cling.wav","None","726.054922212","143","144662.523231","151545.563009","137712.17861","138479.239793","139228.6005","139995.085383","140761.974355","141528.684935","145429.276476","146178.537011","146945.291184","147711.645287","148478.603205","149244.965346","150011.80145","150778.529343","150787.522264","Mapping"
"Mixed","Both","done","41","m150done.wav","None","723.840932827","143","144662.523231","151545.563009","152312.017902","138479.239793","139228.6005","139995.085383","140761.974355","141528.684935","145429.276476","146178.537011","146945.291184","147711.645287","148478.603205","149244.965346","150011.80145","150778.529343","151555.278777","Mapping"
"Mixed","Both","done","41","m150greet.wav","space","279.249871615","143","144662.523231","151545.563009","152312.017902","153078.61687","139228.6005","139995.085383","140761.974355","141528.684935","145429.276476","146178.537011","146945.291184","147711.645287","148478.603205","149244.965346","150011.80145","150778.529343","152321.656686","Mapping"
"Mixed","Both","done","41","m160cave.wav","None","721.0719781","143","144662.523231","151545.563009","152312.017902","153078.61687","153828.439173","139995.085383","140761.974355","141528.684935","145429.276476","146178.537011","146945.291184","147711.645287","148478.603205","149244.965346","150011.80145","150778.529343","153087.695432","Mapping"
"Mixed","Both","done","41","m160done.wav","None","736.105215736","143","144662.523231","151545.563009","152312.017902","153078.61687","153828.439173","154595.155936","140761.974355","141528.684935","145429.276476","146178.537011","146945.291184","147711.645287","148478.603205","149244.965346","150011.80145","150778.529343","153837.411997","Mapping"
"Mixed","Both","done","41","m160jolt.wav","space","508.55806889","143","144662.523231","151545.563009","152312.017902","153078.61687","153828.439173","154595.155936","155361.543739","141528.684935","145429.276476","146178.537011","146945.291184","147711.645287","148478.603205","149244.965346","150011.80145","150778.529343","154604.215947","Mapping"
"Mixed","Both","done","41","m160cling.wav","None","732.655770145","143","144662.523231","151545.563009","152312.017902","153078.61687","153828.439173","154595.155936","155361.543739","156128.505985","145429.276476","146178.537011","146945.291184","147711.645287","148478.603205","149244.965346","150011.80145","150778.529343","155370.395058","Mapping"
"Mixed","Both","tile","34","m150jolt.wav","None","730.378709268","143","159262.070044","151545.563009","152312.017902","153078.61687","153828.439173","154595.155936","155361.543739","156128.505985","145429.276476","146178.537011","146945.291184","147711.645287","148478.603205","149244.965346","150011.80145","150778.529343","156137.740061","Mapping"
"Mixed","Both","tile","34","m160knife.wav","None","721.752776764","143","159262.070044","151545.563009","152312.017902","153078.61687","153828.439173","154595.155936","155361.543739","156128.505985","160028.773513","146178.537011","146945.291184","147711.645287","148478.603205","149244.965346","150011.80145","150778.529343","159271.605873","Mapping"
"Mixed","Both","tile","34","m160tile.wav","None","725.162648596","143","159262.070044","151545.563009","152312.017902","153078.61687","153828.439173","154595.155936","155361.543739","156128.505985","160028.773513","160778.51172","146945.291184","147711.645287","148478.603205","149244.965346","150011.80145","150778.529343","160033.338455","Mapping"
"Mixed","Both","tile","34","m160cad.wav","space","397.154307924","143","159262.070044","151545.563009","152312.017902","153078.61687","153828.439173","154595.155936","155361.543739","156128.505985","160028.773513","160778.51172","161544.832123","147711.645287","148478.603205","149244.965346","150011.80145","150778.529343","160787.532467","Mapping"
"Mixed","Both","tile","34","m150dime.wav","None","734.429496806","143","159262.070044","151545.563009","152312.017902","153078.61687","153828.439173","154595.155936","155361.543739","156128.505985","160028.773513","160778.51172","161544.832123","162311.363692","148478.603205","149244.965346","150011.80145","150778.529343","161553.971283","Mapping"
"Mixed","Both","tile","34","m160reek.wav","None","733.171470463","143","159262.070044","151545.563009","152312.017902","153078.61687","153828.439173","154595.155936","155361.543739","156128.505985","160028.773513","160778.51172","161544.832123","162311.363692","163078.363348","149244.965346","150011.80145","150778.529343","162320.325386","Mapping"
"Mixed","Both","tile","34","m150reek.wav","None","731.198327616","143","159262.070044","151545.563009","152312.017902","153078.61687","153828.439173","154595.155936","155361.543739","156128.505985","160028.773513","160778.51172","161544.832123","162311.363692","163078.363348","163845.089695","150011.80145","150778.529343","163087.708108","Mapping"
"Mixed","Both","tile","34","m150tile.wav","None","729.960707016","143","159262.070044","151545.563009","152312.017902","153078.61687","153828.439173","154595.155936","155361.543739","156128.505985","160028.773513","160778.51172","161544.832123","162311.363692","163078.363348","163845.089695","164611.565922","150778.529343","163854.165166","Mapping"
"Mixed","Both","tile","34","m160dime.wav","space","379.981901031","143","159262.070044","151545.563009","152312.017902","153078.61687","153828.439173","154595.155936","155361.543739","156128.505985","160028.773513","160778.51172","161544.832123","162311.363692","163078.363348","163845.089695","164611.565922","165378.022052","164620.593161","Mapping"
"Mixed","Both","tile","34","m160tile.wav","None","726.942867972","143","159262.070044","166144.614527","152312.017902","153078.61687","153828.439173","154595.155936","155361.543739","156128.505985","160028.773513","160778.51172","161544.832123","162311.363692","163078.363348","163845.089695","164611.565922","165378.022052","165386.865333","Mapping"
"Mixed","Both","tile","34","m150greet.wav","space","646.939973813","143","159262.070044","166144.614527","166911.727032","153078.61687","153828.439173","154595.155936","155361.543739","156128.505985","160028.773513","160778.51172","161544.832123","162311.363692","163078.363348","163845.089695","164611.565922","165378.022052","166153.604357","Mapping"
"Mixed","Both","tile","34","m150ball.wav","None","722.412552685","143","159262.070044","166144.614527","166911.727032","167678.611985","153828.439173","154595.155936","155361.543739","156128.505985","160028.773513","160778.51172","161544.832123","162311.363692","163078.363348","163845.089695","164611.565922","165378.022052","166921.562759","Mapping"
"Mixed","Both","tile","34","m150tile.wav","None","720.832368825","143","159262.070044","166144.614527","166911.727032","167678.611985","168445.347917","154595.155936","155361.543739","156128.505985","160028.773513","160778.51172","161544.832123","162311.363692","163078.363348","163845.089695","164611.565922","165378.022052","167688.365781","Mapping"
"Mixed","Both","tile","34","m150romp.wav","space","473.356844857","143","159262.070044","166144.614527","166911.727032","167678.611985","168445.347917","169194.632567","155361.543739","156128.505985","160028.773513","160778.51172","161544.832123","162311.363692","163078.363348","163845.089695","164611.565922","165378.022052","168455.19632","Mapping"
"Mixed","Both","tile","34","m160knife.wav","None","735.005177092","143","159262.070044","166144.614527","166911.727032","167678.611985","168445.347917","169194.632567","169961.451048","156128.505985","160028.773513","160778.51172","161544.832123","162311.363692","163078.363348","163845.089695","164611.565922","165378.022052","169203.996805","Mapping"
"Mixed","Both","tile","34","m160cave.wav","None","733.431794681","143","159262.070044","166144.614527","166911.727032","167678.611985","168445.347917","169194.632567","169961.451048","170728.13102","160028.773513","160778.51172","161544.832123","162311.363692","163078.363348","163845.089695","164611.565922","165378.022052","169970.724699","Mapping"
"Mixed","Both","ball","3","m150jaw.wav","None","732.18830023","143","173861.996832","166144.614527","166911.727032","167678.611985","168445.347917","169194.632567","169961.451048","170728.13102","160028.773513","160778.51172","161544.832123","162311.363692","163078.363348","163845.089695","164611.565922","165378.022052","170737.164442","Mapping"
"Mixed","Both","ball","3","m160park.wav","None","720.852464903","143","173861.996832","166144.614527","166911.727032","167678.611985","168445.347917","169194.632567","169961.451048","170728.13102","174628.482333","160778.51172","161544.832123","162311.363692","163078.363348","163845.089695","164611.565922","165378.022052","173872.16121","Mapping"
"Mixed","Both","ball","3","m150greet.wav","None","720.163627062","143","173861.996832","166144.614527","166911.727032","167678.611985","168445.347917","169194.632567","169961.451048","170728.13102","174628.482333","175378.340191","161544.832123","162311.363692","163078.363348","163845.089695","164611.565922","165378.022052","174638.06763","Mapping"
"Mixed","Both","ball","3","m160cad.wav","None","736.261966173","143","173861.996832","166144.614527","166911.727032","167678.611985","168445.347917","169194.632567","169961.451048","170728.13102","174628.482333","175378.340191","176144.608344","162311.363692","163078.363348","163845.089695","164611.565922","165378.022052","175387.152555","Mapping"
"Mixed","Both","ball","3","m160done.wav","None","734.836677555","143","173861.996832","166144.614527","166911.727032","167678.611985","168445.347917","169194.632567","169961.451048","170728.13102","174628.482333","175378.340191","176144.608344","176910.943897","163078.363348","163845.089695","164611.565922","165378.022052","176153.67052","Mapping"
"Mixed","Both","ball","3","m160jolt.wav","None","734.023551922","143","173861.996832","166144.614527","166911.727032","167678.611985","168445.347917","169194.632567","169961.451048","170728.13102","174628.482333","175378.340191","176144.608344","176910.943897","177678.043725","163845.089695","164611.565922","165378.022052","176919.743584","Mapping"
"Mixed","Both","ball","3","m160ball.wav","None","732.017017901","143","173861.996832","166144.614527","166911.727032","167678.611985","168445.347917","169194.632567","169961.451048","170728.13102","174628.482333","175378.340191","176144.608344","176910.943897","177678.043725","178444.744102","164611.565922","165378.022052","177686.989961","Mapping"
"Mixed","Both","ball","3","m150jaw.wav","space","402.558964677","143","173861.996832","166144.614527","166911.727032","167678.611985","168445.347917","169194.632567","169961.451048","170728.13102","174628.482333","175378.340191","176144.608344","176910.943897","177678.043725","178444.744102","179211.24228","165378.022052","178453.826683","Mapping"
"Mixed","Both","ball","3","m150ball.wav","None","728.517177515","143","173861.996832","166144.614527","166911.727032","167678.611985","168445.347917","169194.632567","169961.451048","170728.13102","174628.482333","175378.340191","176144.608344","176910.943897","177678.043725","178444.744102","179211.24228","179978.084567","179220.247567","Mapping"
"Mixed","Both","ball","3","m150lash.wav","space","413.311699871","143","173861.996832","180745.048668","166911.727032","167678.611985","168445.347917","169194.632567","169961.451048","170728.13102","174628.482333","175378.340191","176144.608344","176910.943897","177678.043725","178444.744102","179211.24228","179978.084567","179987.052444","Mapping"
"Mixed","Both","ball","3","m150ball.wav","None","723.956872709","143","173861.996832","180745.048668","181511.649182","167678.611985","168445.347917","169194.632567","169961.451048","170728.13102","174628.482333","175378.340191","176144.608344","176910.943897","177678.043725","178444.744102","179211.24228","179978.084567","180754.559455","Mapping"
"Mixed","Both","ball","3","m160cave.wav","space","519.228253979","143","173861.996832","180745.048668","181511.649182","182278.35296","168445.347917","169194.632567","169961.451048","170728.13102","174628.482333","175378.340191","176144.608344","176910.943897","177678.043725","178444.744102","179211.24228","179978.084567","181521.09195","Mapping"
"Mixed","Both","ball","3","m150bluff.wav","None","719.825391192","143","173861.996832","180745.048668","181511.649182","182278.35296","183028.312535","169194.632567","169961.451048","170728.13102","174628.482333","175378.340191","176144.608344","176910.943897","177678.043725","178444.744102","179211.24228","179978.084567","182288.395215","Mapping"
"Mixed","Both","ball","3","m160greet.wav","space","659.049669281","143","173861.996832","180745.048668","181511.649182","182278.35296","183028.312535","183794.487318","169961.451048","170728.13102","174628.482333","175378.340191","176144.608344","176910.943897","177678.043725","178444.744102","179211.24228","179978.084567","183037.222598","Mapping"
"Mixed","Both","ball","3","m160ball.wav","None","734.757529572","143","173861.996832","180745.048668","181511.649182","182278.35296","183028.312535","183794.487318","184561.299925","170728.13102","174628.482333","175378.340191","176144.608344","176910.943897","177678.043725","178444.744102","179211.24228","179978.084567","183803.492915","Mapping"
"Mixed","Both","ball","3","m150bluff.wav","space","573.241430335","143","173861.996832","180745.048668","181511.649182","182278.35296","183028.312535","183794.487318","184561.299925","185327.967838","174628.482333","175378.340191","176144.608344","176910.943897","177678.043725","178444.744102","179211.24228","179978.084567","184571.018475","Mapping"
"Mixed","Both","ball","5","m160done.wav","None","730.623883661","143","188461.544264","180745.048668","181511.649182","182278.35296","183028.312535","183794.487318","184561.299925","185327.967838","174628.482333","175378.340191","176144.608344","176910.943897","177678.043725","178444.744102","179211.24228","179978.084567","185337.225721","Mapping"
"Mixed","Both","ball","5","m160ball.wav","None","721.407121047","143","188461.544264","180745.048668","181511.649182","182278.35296","183028.312535","183794.487318","184561.299925","185327.967838","189228.505583","175378.340191","176144.608344","176910.943897","177678.043725","178444.744102","179211.24228","179978.084567","188471.078857","Mapping"
"Mixed","Both","ball","5","m150cling.wav","space","450.201936066","143","188461.544264","180745.048668","181511.649182","182278.35296","183028.312535","183794.487318","184561.299925","185327.967838","189228.505583","189977.60844","176144.608344","176910.943897","177678.043725","178444.744102","179211.24228","179978.084567","189237.96381","Mapping"
"Mixed","Both","ball","5","m160jolt.wav","None","735.571273137","143","188461.544264","180745.048668","181511.649182","182278.35296","183028.312535","183794.487318","184561.299925","185327.967838","189228.505583","189977.60844","190744.111564","176910.943897","177678.043725","178444.744102","179211.24228","179978.084567","189986.654229","Mapping"
"Mixed","Both","ball","5","m160ball.wav","None","734.544199891","143","188461.544264","180745.048668","181511.649182","182278.35296","183028.312535","183794.487318","184561.299925","185327.967838","189228.505583","189977.60844","190744.111564","191511.066391","177678.043725","178444.744102","179211.24228","179978.084567","190752.968449","Mapping"
"Mixed","Both","ball","5","m160greet.wav","space","360.023534391","143","188461.544264","180745.048668","181511.649182","182278.35296","183028.312535","183794.487318","184561.299925","185327.967838","189228.505583","189977.60844","190744.111564","191511.066391","192277.776971","178444.744102","179211.24228","179978.084567","191520.118054","Mapping"
"Mixed","Both","ball","5","m150ball.wav","None","730.32058496","143","188461.544264","180745.048668","181511.649182","182278.35296","183028.312535","183794.487318","184561.299925","185327.967838","189228.505583","189977.60844","190744.111564","191511.066391","192277.776971","193044.451067","179211.24228","179978.084567","192287.109054","Mapping"
"Mixed","Both","ball","5","m160cad.wav","space","457.996810786","143","188461.544264","180745.048668","181511.649182","182278.35296","183028.312535","183794.487318","184561.299925","185327.967838","189228.505583","189977.60844","190744.111564","191511.066391","192277.776971","193044.451067","193810.989747","179978.084567","193054.102218","Mapping"
"Mixed","Both","ball","5","m150cad.wav","None","727.217413485","143","188461.544264","180745.048668","181511.649182","182278.35296","183028.312535","183794.487318","184561.299925","185327.967838","189228.505583","189977.60844","190744.111564","191511.066391","192277.776971","193044.451067","193810.989747","194577.71393","193819.900737","Mapping"
"Mixed","Both","ball","5","m150ball.wav","None","725.280443206","143","188461.544264","195344.773566","181511.649182","182278.35296","183028.312535","183794.487318","184561.299925","185327.967838","189228.505583","189977.60844","190744.111564","191511.066391","192277.776971","193044.451067","193810.989747","194577.71393","194587.001802","Mapping"
"Mixed","Both","ball","5","m160reek.wav","space","349.727448542","143","188461.544264","195344.773566","196111.353056","182278.35296","183028.312535","183794.487318","184561.299925","185327.967838","189228.505583","189977.60844","190744.111564","191511.066391","192277.776971","193044.451067","193810.989747","194577.71393","195354.343095","Mapping"
"Mixed","Both","ball","5","m150park.wav","None","720.992829185","143","188461.544264","195344.773566","196111.353056","196878.07693","183028.312535","183794.487318","184561.299925","185327.967838","189228.505583","189977.60844","190744.111564","191511.066391","192277.776971","193044.451067","193810.989747","194577.71393","196121.129422","Mapping"
"Mixed","Both","ball","5","m150gnash.wav","None","719.490865711","143","188461.544264","195344.773566","196111.353056","196878.07693","197627.558215","183794.487318","184561.299925","185327.967838","189228.505583","189977.60844","190744.111564","191511.066391","192277.776971","193044.451067","193810.989747","194577.71393","196888.003245","Mapping"
"Mixed","Both","ball","5","m150done.wav","None","735.692159738","143","188461.544264","195344.773566","196111.353056","196878.07693","197627.558215","198394.258901","184561.299925","185327.967838","189228.505583","189977.60844","190744.111564","191511.066391","192277.776971","193044.451067","193810.989747","194577.71393","197636.935438","Mapping"
"Mixed","Both","ball","5","m150cave.wav","None","734.579136595","143","188461.544264","195344.773566","196111.353056","196878.07693","197627.558215","198394.258901","199160.884767","185327.967838","189228.505583","189977.60844","190744.111564","191511.066391","192277.776971","193044.451067","193810.989747","194577.71393","198403.374563","Mapping"
"Mixed","Both","ball","5","m160cad.wav","None","733.281227294","143","188461.544264","195344.773566","196111.353056","196878.07693","197627.558215","198394.258901","199160.884767","199927.648833","189228.505583","189977.60844","190744.111564","191511.066391","192277.776971","193044.451067","193810.989747","194577.71393","199169.84337","Mapping"
"Mixed","Both","done","48","m150depth.wav","None","731.000456493","143","203061.367788","195344.773566","196111.353056","196878.07693","197627.558215","198394.258901","199160.884767","199927.648833","189228.505583","189977.60844","190744.111564","191511.066391","192277.776971","193044.451067","193810.989747","194577.71393","199937.345742","Mapping"
"Mixed","Both","done","48","m150reek.wav","None","721.31622443","143","203061.367788","195344.773566","196111.353056","196878.07693","197627.558215","198394.258901","199160.884767","199927.648833","203827.746007","189977.60844","190744.111564","191511.066391","192277.776971","193044.451067","193810.989747","194577.71393","203070.875173","Mapping"
"Mixed","Both","done","48","m160depth.wav","None","720.38406739","143","203061.367788","195344.773566","196111.353056","196878.07693","197627.558215","198394.258901","199160.884767","199927.648833","203827.746007","204577.385897","190744.111564","191511.066391","192277.776971","193044.451067","193810.989747","194577.71393","203837.264831","Mapping"
"Mixed","Both","done","48","m160done.wav","None","736.606694292","143","203061.367788","195344.773566","196111.353056","196878.07693","197627.558215","198394.258901","199160.884767","199927.648833","203827.746007","204577.385897","205344.076381","191511.066391","192277.776971","193044.451067","193810.989747","194577.71393","204586.200116","Mapping"
"Mixed","Both","done","48","m160jolt.wav","space","526.851847302","143","203061.367788","195344.773566","196111.353056","196878.07693","197627.558215","198394.258901","199160.884767","199927.648833","203827.746007","204577.385897","205344.076381","206110.832409","192277.776971","193044.451067","193810.989747","194577.71393","205353.024471","Mapping"
"Mixed","Both","done","48","m150ball.wav","None","732.676793821","143","203061.367788","195344.773566","196111.353056","196878.07693","197627.558215","198394.258901","199160.884767","199927.648833","203827.746007","204577.385897","205344.076381","206110.832409","206877.558446","193044.451067","193810.989747","194577.71393","206119.814199","Mapping"
"Mixed","Both","done","48","m150done.wav","None","730.809387751","143","203061.367788","195344.773566","196111.353056","196878.07693","197627.558215","198394.258901","199160.884767","199927.648833","203827.746007","204577.385897","205344.076381","206110.832409","206877.558446","207644.200081","193810.989747","194577.71393","206887.232785","Mapping"
"Mixed","Both","done","48","m160cave.wav","space","586.411281489","143","203061.367788","195344.773566","196111.353056","196878.07693","197627.558215","198394.258901","199160.884767","199927.648833","203827.746007","204577.385897","205344.076381","206110.832409","206877.558446","207644.200081","208410.752673","194577.71393","207653.441886","Mapping"
"Mixed","Both","done","48","m150cave.wav","None","728.349605575","143","203061.367788","195344.773566","196111.353056","196878.07693","197627.558215","198394.258901","199160.884767","199927.648833","203827.746007","204577.385897","205344.076381","206110.832409","206877.558446","207644.200081","208410.752673","209177.514884","208419.716531","Mapping"
"Mixed","Both","done","48","m160depth.wav","None","726.737267338","143","203061.367788","209944.204131","196111.353056","196878.07693","197627.558215","198394.258901","199160.884767","199927.648833","203827.746007","204577.385897","205344.076381","206110.832409","206877.558446","207644.200081","208410.752673","209177.514884","209186.437932","Mapping"
"Mixed","Both","done","48","m160done.wav","None","724.509983789","143","203061.367788","209944.204131","210711.070225","196878.07693","197627.558215","198394.258901","199160.884767","199927.648833","203827.746007","204577.385897","205344.076381","206110.832409","206877.558446","207644.200081","208410.752673","209177.514884","209953.802413","Mapping"
"Mixed","Both","done","48","m150dime.wav","space","383.196374401","143","203061.367788","209944.204131","210711.070225","211478.116566","197627.558215","198394.258901","199160.884767","199927.648833","203827.746007","204577.385897","205344.076381","206110.832409","206877.558446","207644.200081","208410.752673","209177.514884","210720.600489","Mapping"
"Mixed","Both","done","48","m150done.wav","None","720.991902053","143","203061.367788","209944.204131","210711.070225","211478.116566","212244.445008","198394.258901","199160.884767","199927.648833","203827.746007","204577.385897","205344.076381","206110.832409","206877.558446","207644.200081","208410.752673","209177.514884","211487.469983","Mapping"
"Mixed","Both","done","48","m160bluff.wav","None","719.310927205","143","203061.367788","209944.204131","210711.070225","211478.116566","212244.445008","212994.049034","199160.884767","199927.648833","203827.746007","204577.385897","205344.076381","206110.832409","206877.558446","207644.200081","208410.752673","209177.514884","212254.517561","Mapping"
"Mixed","Both","done","48","m150dime.wav","space","236.718459986","143","203061.367788","209944.204131","210711.070225","211478.116566","212244.445008","212994.049034","213760.610901","199927.648833","203827.746007","204577.385897","205344.076381","206110.832409","206877.558446","207644.200081","208410.752673","209177.514884","213003.019695","Mapping"
"Mixed","Both","done","48","m160cling.wav","None","734.148458578","143","203061.367788","209944.204131","210711.070225","211478.116566","212244.445008","212994.049034","213760.610901","214527.273559","203827.746007","204577.385897","205344.076381","206110.832409","206877.558446","207644.200081","208410.752673","209177.514884","213769.644015","Mapping"
"Mixed","Both","done","42","m160reek.wav","None","732.859824318","143","217660.858951","209944.204131","210711.070225","211478.116566","212244.445008","212994.049034","213760.610901","214527.273559","203827.746007","204577.385897","205344.076381","206110.832409","206877.558446","207644.200081","208410.752673","209177.514884","214536.282248","Mapping"
"Mixed","Both","done","42","m150done.wav","None","721.351470333","143","217660.858951","209944.204131","210711.070225","211478.116566","212244.445008","212994.049034","213760.610901","214527.273559","218427.688253","204577.385897","205344.076381","206110.832409","206877.558446","207644.200081","208410.752673","209177.514884","217670.64521","Mapping"
"Mixed","Both","done","42","m150reek.wav","space","714.270167518","143","217660.858951","209944.204131","210711.070225","211478.116566","212244.445008","212994.049034","213760.610901","214527.273559","218427.688253","219176.968575","205344.076381","206110.832409","206877.558446","207644.200081","208410.752673","209177.514884","218437.372485","Mapping"
"Mixed","Both","done","42","m160done.wav","None","735.84767431","143","217660.858951","209944.204131","210711.070225","211478.116566","212244.445008","212994.049034","213760.610901","214527.273559","218427.688253","219176.968575","219943.694304","206110.832409","206877.558446","207644.200081","208410.752673","209177.514884","219186.014983","Mapping"
"Mixed","Both","done","42","m150gnash.wav","space","511.084632017","143","217660.858951","209944.204131","210711.070225","211478.116566","212244.445008","212994.049034","213760.610901","214527.273559","218427.688253","219176.968575","219943.694304","220710.535664","206877.558446","207644.200081","208410.752673","209177.514884","219952.54717","Mapping"
"Mixed","Both","done","42","m160tile.wav","None","732.394827995","143","217660.858951","209944.204131","210711.070225","211478.116566","212244.445008","212994.049034","213760.610901","214527.273559","218427.688253","219176.968575","219943.694304","220710.535664","221477.03446","207644.200081","208410.752673","209177.514884","220719.527966","Mapping"
"Mixed","Both","done","42","m160done.wav","None","731.47751065","143","217660.858951","209944.204131","210711.070225","211478.116566","212244.445008","212994.049034","213760.610901","214527.273559","218427.688253","219176.968575","219943.694304","220710.535664","221477.03446","222243.698973","208410.752673","209177.514884","221485.865992","Mapping"
"Mixed","Both","done","42","m150knife.wav","space","403.044366743","143","217660.858951","209944.204131","210711.070225","211478.116566","212244.445008","212994.049034","213760.610901","214527.273559","218427.688253","219176.968575","219943.694304","220710.535664","221477.03446","222243.698973","223010.509724","209177.514884","222252.54349","Mapping"
"Mixed","Both","done","42","m160cad.wav","None","728.973826393","143","217660.858951","209944.204131","210711.070225","211478.116566","212244.445008","212994.049034","213760.610901","214527.273559","218427.688253","219176.968575","219943.694304","220710.535664","221477.03446","222243.698973","223010.509724","223777.16929","223020.099968","Mapping"
"Mixed","Both","done","42","m150jaw.wav","None","728.468946647","143","217660.858951","224543.494331","210711.070225","211478.116566","212244.445008","212994.049034","213760.610901","214527.273559","218427.688253","219176.968575","219943.694304","220710.535664","221477.03446","222243.698973","223010.509724","223777.16929","223786.175815","Mapping"
"Mixed","Both","done","42","m160bluff.wav","None","728.622296359","143","217660.858951","224543.494331","225310.444211","211478.116566","212244.445008","212994.049034","213760.610901","214527.273559","218427.688253","219176.968575","219943.694304","220710.535664","221477.03446","222243.698973","223010.509724","223777.16929","224552.254135","Mapping"
"Mixed","Both","done","42","m160cave.wav","None","726.984606124","143","217660.858951","224543.494331","225310.444211","226077.231465","212244.445008","212994.049034","213760.610901","214527.273559","218427.688253","219176.968575","219943.694304","220710.535664","221477.03446","222243.698973","223010.509724","223777.16929","225319.472377","Mapping"
"Mixed","Both","done","42","m160jaw.wav","None","725.426682271","143","217660.858951","224543.494331","225310.444211","226077.231465","226844.234213","212994.049034","213760.610901","214527.273559","218427.688253","219176.968575","219943.694304","220710.535664","221477.03446","222243.698973","223010.509724","223777.16929","226086.463995","Mapping"
"Mixed","Both","done","42","m150done.wav","None","723.404998891","143","217660.858951","224543.494331","225310.444211","226077.231465","226844.234213","227611.000444","213760.610901","214527.273559","218427.688253","219176.968575","219943.694304","220710.535664","221477.03446","222243.698973","223010.509724","223777.16929","226854.086636","Mapping"
"Mixed","Both","done","42","m150cling.wav","space","378.674407955","143","217660.858951","224543.494331","225310.444211","226077.231465","226844.234213","227611.000444","228377.241699","214527.273559","218427.688253","219176.968575","219943.694304","220710.535664","221477.03446","222243.698973","223010.509724","223777.16929","227620.798143","Mapping"
"Mixed","Both","done","42","m150cad.wav","None","720.778263174","143","217660.858951","224543.494331","225310.444211","226077.231465","226844.234213","227611.000444","228377.241699","229127.122744","218427.688253","219176.968575","219943.694304","220710.535664","221477.03446","222243.698973","223010.509724","223777.16929","228386.645511","Mapping"
"Mixed","Both","done","39","m150park.wav","None","736.76653672","143","232260.864578","224543.494331","225310.444211","226077.231465","226844.234213","227611.000444","228377.241699","229127.122744","218427.688253","219176.968575","219943.694304","220710.535664","221477.03446","222243.698973","223010.509724","223777.16929","229136.042082","Mapping"
"Mixed","Both","done","39","m150jaw.wav","None","721.325809136","143","232260.864578","224543.494331","225310.444211","226077.231465","226844.234213","227611.000444","228377.241699","229127.122744","233027.471893","219176.968575","219943.694304","220710.535664","221477.03446","222243.698973","223010.509724","223777.16929","232270.383093","Mapping"
"Mixed","Both","done","39","m150depth.wav","None","719.839922152","143","232260.864578","224543.494331","225310.444211","226077.231465","226844.234213","227611.000444","228377.241699","229127.122744","233027.471893","233777.283375","219943.694304","220710.535664","221477.03446","222243.698973","223010.509724","223777.16929","233037.317514","Mapping"
"Mixed","Both","done","39","m160cad.wav","None","735.889412463","143","232260.864578","224543.494331","225310.444211","226077.231465","226844.234213","227611.000444","228377.241699","229127.122744","233027.471893","233777.283375","234543.432187","220710.535664","221477.03446","222243.698973","223010.509724","223777.16929","233786.704501","Mapping"
"Mixed","Both","done","39","m160done.wav","None","735.694014933","143","232260.864578","224543.494331","225310.444211","226077.231465","226844.234213","227611.000444","228377.241699","229127.122744","233027.471893","233777.283375","234543.432187","235310.239538","221477.03446","222243.698973","223010.509724","223777.16929","234552.337612","Mapping"
"Mixed","Both","done","39","m160dime.wav","None","734.25728688","143","232260.864578","224543.494331","225310.444211","226077.231465","226844.234213","227611.000444","228377.241699","229127.122744","233027.471893","233777.283375","234543.432187","235310.239538","236076.951045","222243.698973","223010.509724","223777.16929","235319.235551","Mapping"
"Mixed","Both","done","39","m150done.wav","space","193.452762906","143","232260.864578","224543.494331","225310.444211","226077.231465","226844.234213","227611.000444","228377.241699","229127.122744","233027.471893","233777.283375","234543.432187","235310.239538","236076.951045","236843.75685","223010.509724","223777.16929","236085.899136","Mapping"
"Mixed","Both","done","39","m160cad.wav","None","730.227832682","143","232260.864578","224543.494331","225310.444211","226077.231465","226844.234213","227611.000444","228377.241699","229127.122744","233027.471893","233777.283375","234543.432187","235310.239538","236076.951045","236843.75685","237610.201231","223777.16929","236853.29979","Mapping"
"Mixed","Both","done","39","m160lash.wav","space","0.0336999073625","143","232260.864578","224543.494331","225310.444211","226077.231465","226844.234213","227611.000444","228377.241699","229127.122744","233027.471893","233777.283375","234543.432187","235310.239538","236076.951045","236843.75685","237610.201231","238376.868836","237619.190133","Mapping"
"Mixed","Both","done","39","m160done.wav","None","727.32253233","143","232260.864578","239143.327748","225310.444211","226077.231465","226844.234213","227611.000444","228377.241699","229127.122744","233027.471893","233777.283375","234543.432187","235310.239538","236076.951045","236843.75685","237610.201231","238376.868836","238386.424143","Mapping"
"Mixed","Both","done","39","m160park.wav","space","415.154989809","143","232260.864578","239143.327748","239910.576599","226077.231465","226844.234213","227611.000444","228377.241699","229127.122744","233027.471893","233777.283375","234543.432187","235310.239538","236076.951045","236843.75685","237610.201231","238376.868836","239152.119088","Mapping"
"Mixed","Both","done","39","m150done.wav","None","723.822691478","143","232260.864578","239143.327748","239910.576599","240677.419195","226844.234213","227611.000444","228377.241699","229127.122744","233027.471893","233777.283375","234543.432187","235310.239538","236076.951045","236843.75685","237610.201231","238376.868836","239920.022768","Mapping"
"Mixed","Both","done","39","m160dime.wav","None","722.041854169","143","232260.864578","239143.327748","239910.576599","240677.419195","241444.007033","227611.000444","228377.241699","229127.122744","233027.471893","233777.283375","234543.432187","235310.239538","236076.951045","236843.75685","237610.201231","238376.868836","240687.288004","Mapping"
"Mixed","Both","done","39","m150ball.wav","None","720.877198968","143","232260.864578","239143.327748","239910.576599","240677.419195","241444.007033","242210.453579","228377.241699","229127.122744","233027.471893","233777.283375","234543.432187","235310.239538","236076.951045","236843.75685","237610.201231","238376.868836","241453.822045","Mapping"
"Mixed","Both","done","39","m150priest.wav","None","720.205983613","143","232260.864578","239143.327748","239910.576599","240677.419195","241444.007033","242210.453579","242960.353175","229127.122744","233027.471893","233777.283375","234543.432187","235310.239538","236076.951045","236843.75685","237610.201231","238376.868836","242219.980132","Mapping"
"Mixed","Both","done","39","m150jolt.wav","None","735.753376503","143","232260.864578","239143.327748","239910.576599","240677.419195","241444.007033","242210.453579","242960.353175","243726.672959","233027.471893","233777.283375","234543.432187","235310.239538","236076.951045","236843.75685","237610.201231","238376.868836","242969.830261","Mapping"
"Mixed","Both","ball","2","m160dime.wav","None","735.237057321","143","246860.699232","239143.327748","239910.576599","240677.419195","241444.007033","242210.453579","242960.353175","243726.672959","233027.471893","233777.283375","234543.432187","235310.239538","236076.951045","236843.75685","237610.201231","238376.868836","243736.168905","Mapping"
"Mixed","Both","ball","2","m160ball.wav","None","721.262119245","143","246860.699232","239143.327748","239910.576599","240677.419195","241444.007033","242210.453579","242960.353175","243726.672959","247627.177623","233777.283375","234543.432187","235310.239538","236076.951045","236843.75685","237610.201231","238376.868836","246870.250211","Mapping"
"Mixed","Both","ball","2","m160cad.wav","space","465.888766106","143","246860.699232","239143.327748","239910.576599","240677.419195","241444.007033","242210.453579","242960.353175","243726.672959","247627.177623","248376.431974","234543.432187","235310.239538","236076.951045","236843.75685","237610.201231","238376.868836","247637.27491","Mapping"
"Mixed","Both","ball","2","m150depth.wav","None","736.517961603","143","246860.699232","239143.327748","239910.576599","240677.419195","241444.007033","242210.453579","242960.353175","243726.672959","247627.177623","248376.431974","249143.190476","235310.239538","236076.951045","236843.75685","237610.201231","238376.868836","248385.265362","Mapping"
"Mixed","Both","ball","2","m150lash.wav","None","735.217269976","143","246860.699232","239143.327748","239910.576599","240677.419195","241444.007033","242210.453579","242960.353175","243726.672959","247627.177623","248376.431974","249143.190476","249909.77584","236076.951045","236843.75685","237610.201231","238376.868836","249152.192053","Mapping"
"Mixed","Both","ball","2","m150lash.wav","None","734.684873838","143","246860.699232","239143.327748","239910.576599","240677.419195","241444.007033","242210.453579","242960.353175","243726.672959","247627.177623","248376.431974","249143.190476","249909.77584","250676.806723","236843.75685","237610.201231","238376.868836","249918.620358","Mapping"
"Mixed","Both","ball","2","m160cad.wav","None","732.446768787","143","246860.699232","239143.327748","239910.576599","240677.419195","241444.007033","242210.453579","242960.353175","243726.672959","247627.177623","248376.431974","249143.190476","249909.77584","250676.806723","251443.525341","237610.201231","238376.868836","250686.722835","Mapping"
"Mixed","Both","ball","2","m160cling.wav","None","731.772771571","143","246860.699232","239143.327748","239910.576599","240677.419195","241444.007033","242210.453579","242960.353175","243726.672959","247627.177623","248376.431974","249143.190476","249909.77584","250676.806723","251443.525341","252209.982398","238376.868836","251452.932245","Mapping"
"Mixed","Both","ball","2","m150ball.wav","None","731.391560752","143","246860.699232","239143.327748","239910.576599","240677.419195","241444.007033","242210.453579","242960.353175","243726.672959","247627.177623","248376.431974","249143.190476","249909.77584","250676.806723","251443.525341","252209.982398","252976.341139","252218.961406","Mapping"
"Mixed","Both","ball","2","m150cave.wav","space","349.942014553","143","246860.699232","253742.794796","239910.576599","240677.419195","241444.007033","242210.453579","242960.353175","243726.672959","247627.177623","248376.431974","249143.190476","249909.77584","250676.806723","251443.525341","252209.982398","252976.341139","252985.126296","Mapping"
"Mixed","Both","ball","2","m160ball.wav","None","732.556525152","143","246860.699232","253742.794796","254509.922759","240677.419195","241444.007033","242210.453579","242960.353175","243726.672959","247627.177623","248376.431974","249143.190476","249909.77584","250676.806723","251443.525341","252209.982398","252976.341139","253751.382391","Mapping"
"Mixed","Both","ball","2","m150reek.wav","space","592.0496732","143","246860.699232","253742.794796","254509.922759","255276.706303","241444.007033","242210.453579","242960.353175","243726.672959","247627.177623","248376.431974","249143.190476","249909.77584","250676.806723","251443.525341","252209.982398","252976.341139","254518.945979","Mapping"
"Mixed","Both","ball","2","m150jaw.wav","None","728.698971681","143","246860.699232","253742.794796","254509.922759","255276.706303","256043.389985","242210.453579","242960.353175","243726.672959","247627.177623","248376.431974","249143.190476","249909.77584","250676.806723","251443.525341","252209.982398","252976.341139","255285.639554","Mapping"
"Mixed","Both","ball","2","m150ball.wav","None","727.078903932","143","246860.699232","253742.794796","254509.922759","255276.706303","256043.389985","256809.866521","242960.353175","243726.672959","247627.177623","248376.431974","249143.190476","249909.77584","250676.806723","251443.525341","252209.982398","252976.341139","256052.836772","Mapping"
"Mixed","Both","ball","2","m160bluff.wav","space","564.135661814","143","246860.699232","253742.794796","254509.922759","255276.706303","256043.389985","256809.866521","257576.946871","243726.672959","247627.177623","248376.431974","249143.190476","249909.77584","250676.806723","251443.525341","252209.982398","252976.341139","256818.831925","Mapping"
"Mixed","Both","ball","2","m160park.wav","None","723.509190138","143","246860.699232","253742.794796","254509.922759","255276.706303","256043.389985","256809.866521","257576.946871","258343.652813","247627.177623","248376.431974","249143.190476","249909.77584","250676.806723","251443.525341","252209.982398","252976.341139","257586.558138","Mapping"
"Mixed","Both","ball","1","m150greet.wav","None","722.533130087","143","261460.213583","253742.794796","254509.922759","255276.706303","256043.389985","256809.866521","257576.946871","258343.652813","247627.177623","248376.431974","249143.190476","249909.77584","250676.806723","251443.525341","252209.982398","252976.341139","258353.275829","Mapping"
"Mixed","Both","ball","1","m160ball.wav","None","721.378986258","143","261460.213583","253742.794796","254509.922759","255276.706303","256043.389985","256809.866521","257576.946871","258343.652813","262226.894482","248376.431974","249143.190476","249909.77584","250676.806723","251443.525341","252209.982398","252976.341139","261469.960887","Mapping"
"Mixed","Both","ball","1","m160knife.wav","space","418.336691801","143","261460.213583","253742.794796","254509.922759","255276.706303","256043.389985","256809.866521","257576.946871","258343.652813","262226.894482","262976.390298","249143.190476","249909.77584","250676.806723","251443.525341","252209.982398","252976.341139","262236.558308","Mapping"
"Mixed","Both","ball","1","m160jaw.wav","None","736.124075018","143","261460.213583","253742.794796","254509.922759","255276.706303","256043.389985","256809.866521","257576.946871","258343.652813","262226.894482","262976.390298","263742.984319","249909.77584","250676.806723","251443.525341","252209.982398","252976.341139","262985.407643","Mapping"
"Mixed","Both","ball","1","m160jaw.wav","None","734.835749958","143","261460.213583","253742.794796","254509.922759","255276.706303","256043.389985","256809.866521","257576.946871","258343.652813","262226.894482","262976.390298","263742.984319","264509.829389","250676.806723","251443.525341","252209.982398","252976.341139","263752.324751","Mapping"
"Mixed","Both","ball","1","m150jolt.wav","None","733.384181745","143","261460.213583","253742.794796","254509.922759","255276.706303","256043.389985","256809.866521","257576.946871","258343.652813","262226.894482","262976.390298","263742.984319","264509.829389","265276.418463","251443.525341","252209.982398","252976.341139","264519.374493","Mapping"
"Mixed","Both","ball","1","m150done.wav","None","733.017502818","143","261460.213583","253742.794796","254509.922759","255276.706303","256043.389985","256809.866521","257576.946871","258343.652813","262226.894482","262976.390298","263742.984319","264509.829389","265276.418463","266043.138937","252209.982398","252976.341139","265285.39036","Mapping"
"Mixed","Both","ball","1","m150ball.wav","None","732.253226452","143","261460.213583","253742.794796","254509.922759","255276.706303","256043.389985","256809.866521","257576.946871","258343.652813","262226.894482","262976.390298","263742.984319","264509.829389","265276.418463","266043.138937","266809.780879","252976.341139","266052.237904","Mapping"
"Mixed","Both","ball","1","m150jaw.wav","space","347.562308423","143","261460.213583","253742.794796","254509.922759","255276.706303","256043.389985","256809.866521","257576.946871","258343.652813","262226.894482","262976.390298","263742.984319","264509.829389","265276.418463","266043.138937","266809.780879","267576.171774","266819.271569","Mapping"
"Mixed","Both","ball","1","m160jaw.wav","None","730.122095905","143","261460.213583","268343.09692","254509.922759","255276.706303","256043.389985","256809.866521","257576.946871","258343.652813","262226.894482","262976.390298","263742.984319","264509.829389","265276.418463","266043.138937","266809.780879","267576.171774","267585.021238","Mapping"
"Mixed","Both","ball","1","m160ball.wav","None","728.404019959","143","261460.213583","268343.09692","269109.602208","255276.706303","256043.389985","256809.866521","257576.946871","258343.652813","262226.894482","262976.390298","263742.984319","264509.829389","265276.418463","266043.138937","266809.780879","267576.171774","268352.243191","Mapping"
"Mixed","Both","ball","1","m160depth.wav","space","624.319316354","143","261460.213583","268343.09692","269109.602208","269876.424708","256043.389985","256809.866521","257576.946871","258343.652813","262226.894482","262976.390298","263742.984319","264509.829389","265276.418463","266043.138937","266809.780879","267576.171774","269118.456929","Mapping"
"Mixed","Both","ball","1","m150ball.wav","None","726.076564286","143","261460.213583","268343.09692","269109.602208","269876.424708","270642.7009","256809.866521","257576.946871","258343.652813","262226.894482","262976.390298","263742.984319","264509.829389","265276.418463","266043.138937","266809.780879","267576.171774","269885.75401","Mapping"
"Mixed","Both","ball","1","m160jaw.wav","None","725.795526057","143","261460.213583","268343.09692","269109.602208","269876.424708","270642.7009","271409.938311","257576.946871","258343.652813","262226.894482","262976.390298","263742.984319","264509.829389","265276.418463","266043.138937","266809.780879","267576.171774","270651.578808","Mapping"
"Mixed","Both","ball","1","m150greet.wav","space","195.410756394","143","261460.213583","268343.09692","269109.602208","269876.424708","270642.7009","271409.938311","272176.66002","258343.652813","262226.894482","262976.390298","263742.984319","264509.829389","265276.418463","266043.138937","266809.780879","267576.171774","271419.305022","Mapping"
"Mixed","Both","ball","1","m150gnash.wav","None","721.213888377","143","261460.213583","268343.09692","269109.602208","269876.424708","270642.7009","271409.938311","272176.66002","272943.217559","262226.894482","262976.390298","263742.984319","264509.829389","265276.418463","266043.138937","266809.780879","267576.171774","272186.54336","Mapping"
"Mixed","Both","cave","14","m150jolt.wav","None","720.108903013","143","276059.888085","268343.09692","269109.602208","269876.424708","270642.7009","271409.938311","272176.66002","272943.217559","262226.894482","262976.390298","263742.984319","264509.829389","265276.418463","266043.138937","266809.780879","267576.171774","272953.274963","Mapping"
"Mixed","Both","cave","14","m160cave.wav","None","721.601591446","143","276059.888085","268343.09692","269109.602208","269876.424708","270642.7009","271409.938311","272176.66002","272943.217559","276826.767473","262976.390298","263742.984319","264509.829389","265276.418463","266043.138937","266809.780879","267576.171774","276069.493478","Mapping"
"Mixed","Both","cave","14","m150gnash.wav","space","602.176022716","143","276059.888085","268343.09692","269109.602208","269876.424708","270642.7009","271409.938311","272176.66002","272943.217559","276826.767473","277576.501044","263742.984319","264509.829389","265276.418463","266043.138937","266809.780879","267576.171774","276836.43501","Mapping"
"Mixed","Both","cave","14","m150cave.wav","None","735.835616477","143","276059.888085","268343.09692","269109.602208","269876.424708","270642.7009","271409.938311","272176.66002","272943.217559","276826.767473","277576.501044","278342.491868","264509.829389","265276.418463","266043.138937","266809.780879","267576.171774","277585.423782","Mapping"
"Mixed","Both","cave","14","m160cling.wav","space","455.263101961","143","276059.888085","268343.09692","269109.602208","269876.424708","270642.7009","271409.938311","272176.66002","272943.217559","276826.767473","277576.501044","278342.491868","279109.464008","265276.418463","266043.138937","266809.780879","267576.171774","278351.305468","Mapping"
"Mixed","Both","cave","14","m160greet.wav","None","733.316472732","143","276059.888085","268343.09692","269109.602208","269876.424708","270642.7009","271409.938311","272176.66002","272943.217559","276826.767473","277576.501044","278342.491868","279109.464008","279876.20736","266043.138937","266809.780879","267576.171774","279118.444871","Mapping"
"Mixed","Both","cave","14","m160cave.wav","None","733.050893061","143","276059.888085","268343.09692","269109.602208","269876.424708","270642.7009","271409.938311","272176.66002","272943.217559","276826.767473","277576.501044","278342.491868","279109.464008","279876.20736","280642.912374","266809.780879","267576.171774","279885.212957","Mapping"
"Mixed","Both","cave","14","m150gnash.wav","space","610.023147892","143","276059.888085","268343.09692","269109.602208","269876.424708","270642.7009","271409.938311","272176.66002","272943.217559","276826.767473","277576.501044","278342.491868","279109.464008","279876.20736","280642.912374","281409.408388","267576.171774","280652.51684","Mapping"
"Mixed","Both","cave","14","m150reek.wav","None","730.169708375","143","276059.888085","268343.09692","269109.602208","269876.424708","270642.7009","271409.938311","272176.66002","272943.217559","276826.767473","277576.501044","278342.491868","279109.464008","279876.20736","280642.912374","281409.408388","282176.122059","281418.453868","Mapping"
"Mixed","Both","cave","14","m150romp.wav","None","729.182827286","143","276059.888085","282942.86943","269109.602208","269876.424708","270642.7009","271409.938311","272176.66002","272943.217559","276826.767473","277576.501044","278342.491868","279109.464008","279876.20736","280642.912374","281409.408388","282176.122059","282185.200312","Mapping"
"Mixed","Both","cave","14","m160knife.wav","None","728.238303214","143","276059.888085","282942.86943","283709.423259","269876.424708","270642.7009","271409.938311","272176.66002","272943.217559","276826.767473","277576.501044","278342.491868","279109.464008","279876.20736","280642.912374","281409.408388","282176.122059","282951.896051","Mapping"
"Mixed","Both","cave","14","m150cave.wav","None","727.39642486","143","276059.888085","282942.86943","283709.423259","284476.142495","270642.7009","271409.938311","272176.66002","272943.217559","276826.767473","277576.501044","278342.491868","279109.464008","279876.20736","280642.912374","281409.408388","282176.122059","283718.479251","Mapping"
"Mixed","Both","cave","14","m160jolt.wav","space","561.453274917","143","276059.888085","282942.86943","283709.423259","284476.142495","285243.769773","271409.938311","272176.66002","272943.217559","276826.767473","277576.501044","278342.491868","279109.464008","279876.20736","280642.912374","281409.408388","282176.122059","284485.034007","Mapping"
"Mixed","Both","cave","14","m160lash.wav","None","722.931345459","143","276059.888085","282942.86943","283709.423259","284476.142495","285243.769773","286009.488525","272176.66002","272943.217559","276826.767473","277576.501044","278342.491868","279109.464008","279876.20736","280642.912374","281409.408388","282176.122059","285253.423707","Mapping"
"Mixed","Both","cave","14","m160greet.wav","None","722.831482533","143","276059.888085","282942.86943","283709.423259","284476.142495","285243.769773","286009.488525","286776.453245","272943.217559","276826.767473","277576.501044","278342.491868","279109.464008","279876.20736","280642.912374","281409.408388","282176.122059","286019.271384","Mapping"
"Mixed","Both","cave","14","m150bluff.wav","None","721.596335527","143","276059.888085","282942.86943","283709.423259","284476.142495","285243.769773","286009.488525","286776.453245","287543.118995","276826.767473","277576.501044","278342.491868","279109.464008","279876.20736","280642.912374","281409.408388","282176.122059","286786.163448","Mapping"
"Mixed","Both","ball","8","m150cave.wav","None","721.490907483","143","290659.803125","282942.86943","283709.423259","284476.142495","285243.769773","286009.488525","286776.453245","287543.118995","276826.767473","277576.501044","278342.491868","279109.464008","279876.20736","280642.912374","281409.408388","282176.122059","287552.421089","Mapping"
"Mixed","Both","ball","8","m160ball.wav","None","721.608702559","143","290659.803125","282942.86943","283709.423259","284476.142495","285243.769773","286009.488525","286776.453245","287543.118995","291426.428373","277576.501044","278342.491868","279109.464008","279876.20736","280642.912374","281409.408388","282176.122059","290669.290722","Mapping"
"Mixed","Both","ball","8","m150depth.wav","None","720.364280045","143","290659.803125","282942.86943","283709.423259","284476.142495","285243.769773","286009.488525","286776.453245","287543.118995","291426.428373","292193.047436","278342.491868","279109.464008","279876.20736","280642.912374","281409.408388","282176.122059","291436.456714","Mapping"
"Mixed","Both","ball","8","m160greet.wav","None","720.139511395","143","290659.803125","282942.86943","283709.423259","284476.142495","285243.769773","286009.488525","286776.453245","287543.118995","291426.428373","292193.047436","292959.733282","279109.464008","279876.20736","280642.912374","281409.408388","282176.122059","292202.669525","Mapping"
"Mixed","Both","ball","8","m150ball.wav","None","719.498286024","143","290659.803125","282942.86943","283709.423259","284476.142495","285243.769773","286009.488525","286776.453245","287543.118995","291426.428373","292193.047436","292959.733282","293709.382757","279876.20736","280642.912374","281409.408388","282176.122059","292969.182543","Mapping"
"Mixed","Both","ball","8","m160reek.wav","None","736.320399679","143","290659.803125","282942.86943","283709.423259","284476.142495","285243.769773","286009.488525","286776.453245","287543.118995","291426.428373","292193.047436","292959.733282","293709.382757","294475.822501","280642.912374","281409.408388","282176.122059","293718.279525","Mapping"
"Mixed","Both","ball","8","m160jaw.wav","None","735.763579141","143","290659.803125","282942.86943","283709.423259","284476.142495","285243.769773","286009.488525","286776.453245","287543.118995","291426.428373","292193.047436","292959.733282","293709.382757","294475.822501","295242.401682","281409.408388","282176.122059","294484.790997","Mapping"
"Mixed","Both","ball","8","m150dime.wav","None","734.954472631","143","290659.803125","282942.86943","283709.423259","284476.142495","285243.769773","286009.488525","286776.453245","287543.118995","291426.428373","292193.047436","292959.733282","293709.382757","294475.822501","295242.401682","296009.121846","282176.122059","295251.371106","Mapping"
"Mixed","Both","ball","8","m160lash.wav","None","733.757354319","143","290659.803125","282942.86943","283709.423259","284476.142495","285243.769773","286009.488525","286776.453245","287543.118995","291426.428373","292193.047436","292959.733282","293709.382757","294475.822501","295242.401682","296009.121846","296775.900134","296018.399515","Mapping"
"Mixed","Both","ball","8","m160done.wav","None","732.538902666","143","290659.803125","297542.577941","283709.423259","284476.142495","285243.769773","286009.488525","286776.453245","287543.118995","291426.428373","292193.047436","292959.733282","293709.382757","294475.822501","295242.401682","296009.121846","296775.900134","296785.196973","Mapping"
"Mixed","Both","ball","8","m150ball.wav","None","732.489125337","143","290659.803125","297542.577941","298309.179383","284476.142495","285243.769773","286009.488525","286776.453245","287543.118995","291426.428373","292193.047436","292959.733282","293709.382757","294475.822501","295242.401682","296009.121846","296775.900134","297551.694532","Mapping"
"Mixed","Both","ball","8","m150tile.wav","space","503.627683967","143","290659.803125","297542.577941","298309.179383","299075.813597","285243.769773","286009.488525","286776.453245","287543.118995","291426.428373","292193.047436","292959.733282","293709.382757","294475.822501","295242.401682","296009.121846","296775.900134","298318.559079","Mapping"
"Mixed","Both","ball","8","m150park.wav","None","730.337280314","143","290659.803125","297542.577941","298309.179383","299075.813597","299842.548292","286009.488525","286776.453245","287543.118995","291426.428373","292193.047436","292959.733282","293709.382757","294475.822501","295242.401682","296009.121846","296775.900134","299084.855676","Mapping"
"Mixed","Both","ball","8","m150jolt.wav","None","728.92064834","143","290659.803125","297542.577941","298309.179383","299075.813597","299842.548292","300608.954336","286776.453245","287543.118995","291426.428373","292193.047436","292959.733282","293709.382757","294475.822501","295242.401682","296009.121846","296775.900134","299852.188312","Mapping"
"Mixed","Both","ball","8","m160ball.wav","None","729.515188374","143","290659.803125","297542.577941","298309.179383","299075.813597","299842.548292","300608.954336","301375.803734","287543.118995","291426.428373","292193.047436","292959.733282","293709.382757","294475.822501","295242.401682","296009.121846","296775.900134","300617.837809","Mapping"
"Mixed","Both","ball","8","m160dime.wav","space","565.305263735","143","290659.803125","297542.577941","298309.179383","299075.813597","299842.548292","300608.954336","301375.803734","302142.461754","291426.428373","292193.047436","292959.733282","293709.382757","294475.822501","295242.401682","296009.121846","296775.900134","301384.855398","Mapping"
"Mixed","Both","ball","11","m150tile.wav","None","726.12108523","143","305276.068788","297542.577941","298309.179383","299075.813597","299842.548292","300608.954336","301375.803734","302142.461754","291426.428373","292193.047436","292959.733282","293709.382757","294475.822501","295242.401682","296009.121846","296775.900134","302151.670478","Mapping"
"Mixed","Both","ball","11","m150dime.wav","None","720.707771368","143","305276.068788","297542.577941","298309.179383","299075.813597","299842.548292","300608.954336","301375.803734","302142.461754","306042.824816","292193.047436","292959.733282","293709.382757","294475.822501","295242.401682","296009.121846","296775.900134","305285.821966","Mapping"
"Mixed","Both","ball","11","m150ball.wav","None","719.772213139","143","305276.068788","297542.577941","298309.179383","299075.813597","299842.548292","300608.954336","301375.803734","302142.461754","306042.824816","306809.33969","292959.733282","293709.382757","294475.822501","295242.401682","296009.121846","296775.900134","306052.451233","Mapping"
"Mixed","Both","ball","11","m160greet.wav","space","595.031957608","143","305276.068788","297542.577941","298309.179383","299075.813597","299842.548292","300608.954336","301375.803734","302142.461754","306042.824816","306809.33969","307558.928257","293709.382757","294475.822501","295242.401682","296009.121846","296775.900134","306819.026704","Mapping"
"Mixed","Both","ball","11","m150dime.wav","None","734.728467185","143","305276.068788","297542.577941","298309.179383","299075.813597","299842.548292","300608.954336","301375.803734","302142.461754","306042.824816","306809.33969","307558.928257","308325.654604","294475.822501","295242.401682","296009.121846","296775.900134","307568.010529","Mapping"
"Mixed","Both","ball","11","m160jaw.wav","None","734.012422152","143","305276.068788","297542.577941","298309.179383","299075.813597","299842.548292","300608.954336","301375.803734","302142.461754","306042.824816","306809.33969","307558.928257","308325.654604","309092.323446","295242.401682","296009.121846","296775.900134","308334.593729","Mapping"
"Mixed","Both","ball","11","m160ball.wav","None","732.933407649","143","305276.068788","297542.577941","298309.179383","299075.813597","299842.548292","300608.954336","301375.803734","302142.461754","306042.824816","306809.33969","307558.928257","308325.654604","309092.323446","309858.938491","296009.121846","296775.900134","309101.622139","Mapping"
"Mixed","Both","ball","11","m150jolt.wav","space","545.570428949","143","305276.068788","297542.577941","298309.179383","299075.813597","299842.548292","300608.954336","301375.803734","302142.461754","306042.824816","306809.33969","307558.928257","308325.654604","309092.323446","309858.938491","310625.613206","296775.900134","309868.411867","Mapping"
"Mixed","Both","ball","11","m160ball.wav","None","729.76747388","143","305276.068788","297542.577941","298309.179383","299075.813597","299842.548292","300608.954336","301375.803734","302142.461754","306042.824816","306809.33969","307558.928257","308325.654604","309092.323446","309858.938491","310625.613206","311392.331515","310635.301767","Mapping"
"Mixed","Both","ball","11","m150reek.wav","None","729.533120524","143","305276.068788","312158.95027","298309.179383","299075.813597","299842.548292","300608.954336","301375.803734","302142.461754","306042.824816","306809.33969","307558.928257","308325.654604","309092.323446","309858.938491","310625.613206","311392.331515","311401.415024","Mapping"
"Mixed","Both","ball","11","m150ball.wav","None","728.926832322","143","305276.068788","312158.95027","312925.538417","299075.813597","299842.548292","300608.954336","301375.803734","302142.461754","306042.824816","306809.33969","307558.928257","308325.654604","309092.323446","309858.938491","310625.613206","311392.331515","312167.967616","Mapping"
"Mixed","Both","ball","11","m160priest.wav","space","151.426849887","143","305276.068788","312158.95027","312925.538417","313692.305885","299842.548292","300608.954336","301375.803734","302142.461754","306042.824816","306809.33969","307558.928257","308325.654604","309092.323446","309858.938491","310625.613206","311392.331515","312934.523609","Mapping"
"Mixed","Both","ball","11","m150cling.wav","None","727.99343802","143","305276.068788","312158.95027","312925.538417","313692.305885","314458.876718","300608.954336","301375.803734","302142.461754","306042.824816","306809.33969","307558.928257","308325.654604","309092.323446","309858.938491","310625.613206","311392.331515","313701.821308","Mapping"
"Mixed","Both","ball","11","m160greet.wav","None","728.004877456","143","305276.068788","312158.95027","312925.538417","313692.305885","314458.876718","315225.593172","301375.803734","302142.461754","306042.824816","306809.33969","307558.928257","308325.654604","309092.323446","309858.938491","310625.613206","311392.331515","314467.849542","Mapping"
"Mixed","Both","ball","11","m160cad.wav","None","726.633385289","143","305276.068788","312158.95027","312925.538417","313692.305885","314458.876718","315225.593172","315992.209454","302142.461754","306042.824816","306809.33969","307558.928257","308325.654604","309092.323446","309858.938491","310625.613206","311392.331515","315235.154353","Mapping"
"Mixed","Both","ball","11","m160gnash.wav","None","726.552690845","143","305276.068788","312158.95027","312925.538417","313692.305885","314458.876718","315225.593172","315992.209454","316758.622299","306042.824816","306809.33969","307558.928257","308325.654604","309092.323446","309858.938491","310625.613206","311392.331515","316001.22278","Mapping"
"Mixed","Both","cave","24","m150gnash.wav","None","726.269179489","143","319892.525521","312158.95027","312925.538417","313692.305885","314458.876718","315225.593172","315992.209454","316758.622299","306042.824816","306809.33969","307558.928257","308325.654604","309092.323446","309858.938491","310625.613206","311392.331515","316767.381485","Mapping"
"Mixed","Both","cave","24","m150priest.wav","None","721.236767247","143","319892.525521","312158.95027","312925.538417","313692.305885","314458.876718","315225.593172","315992.209454","316758.622299","320659.194981","306809.33969","307558.928257","308325.654604","309092.323446","309858.938491","310625.613206","311392.331515","319902.066606","Mapping"
"Mixed","Both","cave","24","m160depth.wav","None","720.554112457","143","319892.525521","312158.95027","312925.538417","313692.305885","314458.876718","315225.593172","315992.209454","316758.622299","320659.194981","321425.768597","307558.928257","308325.654604","309092.323446","309858.938491","310625.613206","311392.331515","320668.57746","Mapping"
"Mixed","Both","cave","24","m160cave.wav","None","719.839922618","143","319892.525521","312158.95027","312925.538417","313692.305885","314458.876718","315225.593172","315992.209454","316758.622299","320659.194981","321425.768597","322175.537103","308325.654604","309092.323446","309858.938491","310625.613206","311392.331515","321435.199307","Mapping"
"Mixed","Both","cave","24","m150cling.wav","space","493.399615865","143","319892.525521","312158.95027","312925.538417","313692.305885","314458.876718","315225.593172","315992.209454","316758.622299","320659.194981","321425.768597","322175.537103","322941.966335","309092.323446","309858.938491","310625.613206","311392.331515","322184.376674","Mapping"
"Mixed","Both","cave","24","m160cave.wav","None","734.722283669","143","319892.525521","312158.95027","312925.538417","313692.305885","314458.876718","315225.593172","315992.209454","316758.622299","320659.194981","321425.768597","322175.537103","322941.966335","323708.733803","309858.938491","310625.613206","311392.331515","322950.963893","Mapping"
"Mixed","Both","cave","24","m150knife.wav","space","576.038520318","143","319892.525521","312158.95027","312925.538417","313692.305885","314458.876718","315225.593172","315992.209454","316758.622299","320659.194981","321425.768597","322175.537103","322941.966335","323708.733803","324475.415938","310625.613206","311392.331515","323717.734453","Mapping"
"Mixed","Both","cave","24","m160ball.wav","None","731.937869918","143","319892.525521","312158.95027","312925.538417","313692.305885","314458.876718","315225.593172","315992.209454","316758.622299","320659.194981","321425.768597","322175.537103","322941.966335","323708.733803","324475.415938","325242.085707","311392.331515","324484.490172","Mapping"
"Mixed","Both","cave","24","m160bluff.wav","None","731.184723787","143","319892.525521","312158.95027","312925.538417","313692.305885","314458.876718","315225.593172","315992.209454","316758.622299","320659.194981","321425.768597","322175.537103","322941.966335","323708.733803","324475.415938","325242.085707","326008.684057","325251.214664","Mapping"
"Mixed","Both","cave","24","m150tile.wav","None","730.339444708","143","319892.525521","326775.38938","312925.538417","313692.305885","314458.876718","315225.593172","315992.209454","316758.622299","320659.194981","321425.768597","322175.537103","322941.966335","323708.733803","324475.415938","325242.085707","326008.684057","326018.104564","Mapping"
"Mixed","Both","cave","24","m160done.wav","None","729.965345003","143","319892.525521","326775.38938","327541.845819","313692.305885","314458.876718","315225.593172","315992.209454","316758.622299","320659.194981","321425.768597","322175.537103","322941.966335","323708.733803","324475.415938","325242.085707","326008.684057","326784.349529","Mapping"
"Mixed","Both","cave","24","m150dime.wav","None","729.842912406","143","319892.525521","326775.38938","327541.845819","328308.602466","314458.876718","315225.593172","315992.209454","316758.622299","320659.194981","321425.768597","322175.537103","322941.966335","323708.733803","324475.415938","325242.085707","326008.684057","327551.317959","Mapping"
"Mixed","Both","cave","24","m150cave.wav","None","729.511787649","143","319892.525521","326775.38938","327541.845819","328308.602466","329075.273471","315225.593172","315992.209454","316758.622299","320659.194981","321425.768597","322175.537103","322941.966335","323708.733803","324475.415938","325242.085707","326008.684057","328317.65382","Mapping"
"Mixed","Both","cave","24","m160cad.wav","space","521.026714705","143","319892.525521","326775.38938","327541.845819","328308.602466","329075.273471","329841.997964","315992.209454","316758.622299","320659.194981","321425.768597","322175.537103","322941.966335","323708.733803","324475.415938","325242.085707","326008.684057","329084.656878","Mapping"
"Mixed","Both","cave","24","m150cave.wav","None","726.257430855","143","319892.525521","326775.38938","327541.845819","328308.602466","329075.273471","329841.997964","330608.590439","316758.622299","320659.194981","321425.768597","322175.537103","322941.966335","323708.733803","324475.415938","325242.085707","326008.684057","329851.679722","Mapping"
"Mixed","Both","cave","24","m160ball.wav","None","726.3263762","143","319892.525521","326775.38938","327541.845819","328308.602466","329075.273471","329841.997964","330608.590439","331375.222489","320659.194981","321425.768597","322175.537103","322941.966335","323708.733803","324475.415938","325242.085707","326008.684057","330617.588925","Mapping"
"Mixed","Both","tile","33","m160ball.wav","None","725.625171326","143","334509.087991","326775.38938","327541.845819","328308.602466","329075.273471","329841.997964","330608.590439","331375.222489","320659.194981","321425.768597","322175.537103","322941.966335","323708.733803","324475.415938","325242.085707","326008.684057","331384.26024","Mapping"
"Mixed","Both","tile","33","m160dime.wav","None","721.38857143","143","334509.087991","326775.38938","327541.845819","328308.602466","329075.273471","329841.997964","330608.590439","331375.222489","335275.818358","321425.768597","322175.537103","322941.966335","323708.733803","324475.415938","325242.085707","326008.684057","334518.598468","Mapping"
"Mixed","Both","tile","33","m150romp.wav","None","720.555967651","143","334509.087991","326775.38938","327541.845819","328308.602466","329075.273471","329841.997964","330608.590439","331375.222489","335275.818358","336042.346835","322175.537103","322941.966335","323708.733803","324475.415938","325242.085707","326008.684057","335285.579883","Mapping"
"Mixed","Both","tile","33","m150tile.wav","None","720.704679843","143","334509.087991","326775.38938","327541.845819","328308.602466","329075.273471","329841.997964","330608.590439","331375.222489","335275.818358","336042.346835","336808.936837","322941.966335","323708.733803","324475.415938","325242.085707","326008.684057","336051.677064","Mapping"
"Mixed","Both","tile","33","m150done.wav","space","498.766244389","143","334509.087991","326775.38938","327541.845819","328308.602466","329075.273471","329841.997964","330608.590439","331375.222489","335275.818358","336042.346835","336808.936837","337558.041548","323708.733803","324475.415938","325242.085707","326008.684057","336818.755559","Mapping"
"Mixed","Both","tile","33","m150dime.wav","None","736.084191594","143","334509.087991","326775.38938","327541.845819","328308.602466","329075.273471","329841.997964","330608.590439","331375.222489","335275.818358","336042.346835","336808.936837","337558.041548","338325.092528","324475.415938","325242.085707","326008.684057","337567.117328","Mapping"
"Mixed","Both","tile","33","m160tile.wav","None","735.234583728","143","334509.087991","326775.38938","327541.845819","328308.602466","329075.273471","329841.997964","330608.590439","331375.222489","335275.818358","336042.346835","336808.936837","337558.041548","338325.092528","339091.679438","325242.085707","326008.684057","338334.125641","Mapping"
"Mixed","Both","tile","33","m150dime.wav","space","432.090879884","143","334509.087991","326775.38938","327541.845819","328308.602466","329075.273471","329841.997964","330608.590439","331375.222489","335275.818358","336042.346835","336808.936837","337558.041548","338325.092528","339091.679438","339858.435466","326008.684057","339101.362433","Mapping"
"Mixed","Both","tile","33","m150tile.wav","None","732.924132142","143","334509.087991","326775.38938","327541.845819","328308.602466","329075.273471","329841.997964","330608.590439","331375.222489","335275.818358","336042.346835","336808.936837","337558.041548","338325.092528","339091.679438","339858.435466","340625.089467","339867.165899","Mapping"
"Mixed","Both","tile","33","m160reek.wav","None","732.618978247","143","334509.087991","341391.825708","327541.845819","328308.602466","329075.273471","329841.997964","330608.590439","331375.222489","335275.818358","336042.346835","336808.936837","337558.041548","338325.092528","339091.679438","339858.435466","340625.089467","340633.779089","Mapping"
"Mixed","Both","tile","33","m150romp.wav","space","0.0340091064572","143","334509.087991","341391.825708","342158.288021","328308.602466","329075.273471","329841.997964","330608.590439","331375.222489","335275.818358","336042.346835","336808.936837","337558.041548","338325.092528","339091.679438","339858.435466","340625.089467","341400.9154","Mapping"
"Mixed","Both","tile","33","m160jaw.wav","None","729.755107313","143","334509.087991","341391.825708","342158.288021","342925.128453","329075.273471","329841.997964","330608.590439","331375.222489","335275.818358","336042.346835","336808.936837","337558.041548","338325.092528","339091.679438","339858.435466","340625.089467","342167.945355","Mapping"
"Mixed","Both","tile","33","m160tile.wav","None","729.53930404","143","334509.087991","341391.825708","342158.288021","342925.128453","343691.740716","329841.997964","330608.590439","331375.222489","335275.818358","336042.346835","336808.936837","337558.041548","338325.092528","339091.679438","339858.435466","340625.089467","342934.303787","Mapping"
"Mixed","Both","tile","33","m160cad.wav","space","504.405563697","143","334509.087991","341391.825708","342158.288021","342925.128453","343691.740716","344458.263936","330608.590439","331375.222489","335275.818358","336042.346835","336808.936837","337558.041548","338325.092528","339091.679438","339858.435466","340625.089467","343701.003545","Mapping"
"Mixed","Both","tile","33","m160ball.wav","None","728.028374724","143","334509.087991","341391.825708","342158.288021","342925.128453","343691.740716","344458.263936","345224.779119","331375.222489","335275.818358","336042.346835","336808.936837","337558.041548","338325.092528","339091.679438","339858.435466","340625.089467","344467.185748","Mapping"
"Mixed","Both","tile","33","m150romp.wav","None","727.928202599","143","334509.087991","341391.825708","342158.288021","342925.128453","343691.740716","344458.263936","345224.779119","345991.348406","335275.818358","336042.346835","336808.936837","337558.041548","338325.092528","339091.679438","339858.435466","340625.089467","345233.493166","Mapping"
"Mixed","Both","tile","35","m150jaw.wav","None","727.672207169","143","349124.337712","341391.825708","342158.288021","342925.128453","343691.740716","344458.263936","345224.779119","345991.348406","335275.818358","336042.346835","336808.936837","337558.041548","338325.092528","339091.679438","339858.435466","340625.089467","346000.065545","Mapping"
"Mixed","Both","tile","35","m160tile.wav","None","727.072410751","143","349124.337712","341391.825708","342158.288021","342925.128453","343691.740716","344458.263936","345224.779119","345991.348406","349891.663546","336042.346835","336808.936837","337558.041548","338325.092528","339091.679438","339858.435466","340625.089467","349132.917269","Mapping"
"Mixed","Both","tile","35","m160jaw.wav","None","725.381852128","143","349124.337712","341391.825708","342158.288021","342925.128453","343691.740716","344458.263936","345224.779119","345991.348406","349891.663546","350658.266534","336808.936837","337558.041548","338325.092528","339091.679438","339858.435466","340625.089467","349900.890202","Mapping"
"Mixed","Both","tile","35","m150tile.wav","space","0.0349367037416","143","349124.337712","341391.825708","342158.288021","342925.128453","343691.740716","344458.263936","345224.779119","345991.348406","349891.663546","350658.266534","351425.2362","337558.041548","338325.092528","339091.679438","339858.435466","340625.089467","350667.239049","Mapping"
"Mixed","Both","tile","35","m160cave.wav","None","722.1645955","143","349124.337712","341391.825708","342158.288021","342925.128453","343691.740716","344458.263936","345224.779119","345991.348406","349891.663546","350658.266534","351425.2362","352191.992228","338325.092528","339091.679438","339858.435466","340625.089467","351435.266707","Mapping"
"Mixed","Both","tile","35","m150park.wav","None","721.855731681","143","349124.337712","341391.825708","342158.288021","342925.128453","343691.740716","344458.263936","345224.779119","345991.348406","349891.663546","350658.266534","351425.2362","352191.992228","352958.375084","339091.679438","339858.435466","340625.089467","352201.857327","Mapping"
"Mixed","Both","tile","35","m150done.wav","None","722.479024902","143","349124.337712","341391.825708","342158.288021","342925.128453","343691.740716","344458.263936","345224.779119","345991.348406","349891.663546","350658.266534","351425.2362","352191.992228","352958.375084","353724.733516","339858.435466","340625.089467","352967.555055","Mapping"
"Mixed","Both","tile","35","m160park.wav","None","722.643196117","143","349124.337712","341391.825708","342158.288021","342925.128453","343691.740716","344458.263936","345224.779119","345991.348406","349891.663546","350658.266534","351425.2362","352191.992228","352958.375084","353724.733516","354491.895797","340625.089467","353733.589473","Mapping"
"Mixed","Both","tile","35","m150lash.wav","None","720.527523663","143","349124.337712","341391.825708","342158.288021","342925.128453","343691.740716","344458.263936","345224.779119","345991.348406","349891.663546","350658.266534","351425.2362","352191.992228","352958.375084","353724.733516","354491.895797","355258.353782","354501.952892","Mapping"
"Mixed","Both","tile","35","m160ball.wav","None","720.371700358","143","349124.337712","356025.239354","342158.288021","342925.128453","343691.740716","344458.263936","345224.779119","345991.348406","349891.663546","350658.266534","351425.2362","352191.992228","352958.375084","353724.733516","354491.895797","355258.353782","355268.25289","Mapping"
"Mixed","Both","tile","35","m160ball.wav","None","720.13301868","143","349124.337712","356025.239354","356791.935093","342925.128453","343691.740716","344458.263936","345224.779119","345991.348406","349891.663546","350658.266534","351425.2362","352191.992228","352958.375084","353724.733516","354491.895797","355258.353782","356034.830834","Mapping"
"Mixed","Both","tile","35","m150jolt.wav","None","719.655964524","143","349124.337712","356025.239354","356791.935093","357558.566525","343691.740716","344458.263936","345224.779119","345991.348406","349891.663546","350658.266534","351425.2362","352191.992228","352958.375084","353724.733516","354491.895797","355258.353782","356801.382808","Mapping"
"Mixed","Both","tile","35","m150tile.wav","None","719.03019771","143","349124.337712","356025.239354","356791.935093","357558.566525","358308.41758","344458.263936","345224.779119","345991.348406","349891.663546","350658.266534","351425.2362","352191.992228","352958.375084","353724.733516","354491.895797","355258.353782","357568.318775","Mapping"
"Mixed","Both","tile","35","m150ball.wav","None","736.093466636","143","349124.337712","356025.239354","356791.935093","357558.566525","358308.41758","359074.807547","345224.779119","345991.348406","349891.663546","350658.266534","351425.2362","352191.992228","352958.375084","353724.733516","354491.895797","355258.353782","358317.483775","Mapping"
"Mixed","Both","tile","35","m160tile.wav","space","0.037101097405","143","349124.337712","356025.239354","356791.935093","357558.566525","358308.41758","359074.807547","359841.44207","345991.348406","349891.663546","350658.266534","351425.2362","352191.992228","352958.375084","353724.733516","354491.895797","355258.353782","359083.786555","Mapping"
"Mixed","Both","tile","35","m160cling.wav","None","733.988924883","143","349124.337712","356025.239354","356791.935093","357558.566525","358308.41758","359074.807547","359841.44207","360608.045985","349891.663546","350658.266534","351425.2362","352191.992228","352958.375084","353724.733516","354491.895797","355258.353782","359850.67491","Mapping"
"Mixed","Both","ball","12","m160tile.wav","None","734.08847861","143","363741.83234","356025.239354","356791.935093","357558.566525","358308.41758","359074.807547","359841.44207","360608.045985","349891.663546","350658.266534","351425.2362","352191.992228","352958.375084","353724.733516","354491.895797","355258.353782","360617.095484","Mapping"
"Mixed","Both","ball","12","m160knife.wav","None","720.911825541","143","363741.83234","356025.239354","356791.935093","357558.566525","358308.41758","359074.807547","359841.44207","360608.045985","364508.411211","350658.266534","351425.2362","352191.992228","352958.375084","353724.733516","354491.895797","355258.353782","363751.68538","Mapping"
"Mixed","Both","ball","12","m150jolt.wav","None","721.07816115","143","363741.83234","356025.239354","356791.935093","357558.566525","358308.41758","359074.807547","359841.44207","360608.045985","364508.411211","365275.209905","351425.2362","352191.992228","352958.375084","353724.733516","354491.895797","355258.353782","364517.859544","Mapping"
"Mixed","Both","ball","12","m160ball.wav","None","720.349749085","143","363741.83234","356025.239354","356791.935093","357558.566525","358308.41758","359074.807547","359841.44207","360608.045985","364508.411211","365275.209905","366041.549168","352191.992228","352958.375084","353724.733516","354491.895797","355258.353782","365284.79953","Mapping"
"Mixed","Both","ball","12","m160tile.wav","None","720.073038712","143","363741.83234","356025.239354","356791.935093","357558.566525","358308.41758","359074.807547","359841.44207","360608.045985","364508.411211","365275.209905","366041.549168","366808.349408","352958.375084","353724.733516","354491.895797","355258.353782","366051.433744","Mapping"
"Mixed","Both","ball","12","m160jolt.wav","space","347.325172275","143","363741.83234","356025.239354","356791.935093","357558.566525","358308.41758","359074.807547","359841.44207","360608.045985","364508.411211","365275.209905","366041.549168","366808.349408","367557.643024","353724.733516","354491.895797","355258.353782","366817.694786","Mapping"
"Mixed","Both","ball","12","m150ball.wav","None","735.781510826","143","363741.83234","356025.239354","356791.935093","357558.566525","358308.41758","359074.807547","359841.44207","360608.045985","364508.411211","365275.209905","366041.549168","366808.349408","367557.643024","368324.45223","354491.895797","355258.353782","367566.671191","Mapping"
"Mixed","Both","ball","12","m160reek.wav","space","335.041102953","143","363741.83234","356025.239354","356791.935093","357558.566525","358308.41758","359074.807547","359841.44207","360608.045985","364508.411211","365275.209905","366041.549168","366808.349408","367557.643024","368324.45223","369090.961538","355258.353782","368333.939519","Mapping"
"Mixed","Both","ball","12","m150reek.wav","None","733.497030102","143","363741.83234","356025.239354","356791.935093","357558.566525","358308.41758","359074.807547","359841.44207","360608.045985","364508.411211","365275.209905","366041.549168","366808.349408","367557.643024","368324.45223","369090.961538","369857.892249","369099.678985","Mapping"
"Mixed","Both","ball","12","m150park.wav","None","732.662262861","143","363741.83234","370624.525226","356791.935093","357558.566525","358308.41758","359074.807547","359841.44207","360608.045985","364508.411211","365275.209905","366041.549168","366808.349408","367557.643024","368324.45223","369090.961538","369857.892249","369866.834156","Mapping"
"Mixed","Both","ball","12","m150gnash.wav","None","731.513993349","143","363741.83234","370624.525226","371390.913337","357558.566525","358308.41758","359074.807547","359841.44207","360608.045985","364508.411211","365275.209905","366041.549168","366808.349408","367557.643024","368324.45223","369090.961538","369857.892249","370634.260471","Mapping"
"Mixed","Both","ball","12","m150ball.wav","None","732.282598037","143","363741.83234","370624.525226","371390.913337","372157.846831","358308.41758","359074.807547","359841.44207","360608.045985","364508.411211","365275.209905","366041.549168","366808.349408","367557.643024","368324.45223","369090.961538","369857.892249","371399.712098","Mapping"
"Mixed","Both","ball","12","m160cad.wav","space","374.003418721","143","363741.83234","370624.525226","371390.913337","372157.846831","372924.478262","359074.807547","359841.44207","360608.045985","364508.411211","365275.209905","366041.549168","366808.349408","367557.643024","368324.45223","369090.961538","369857.892249","372166.876853","Mapping"
"Mixed","Both","ball","12","m160ball.wav","None","729.63638464","143","363741.83234","370624.525226","371390.913337","372157.846831","372924.478262","373691.221614","359841.44207","360608.045985","364508.411211","365275.209905","366041.549168","366808.349408","367557.643024","368324.45223","369090.961538","369857.892249","372933.445831","Mapping"
"Mixed","Both","ball","12","m150reek.wav","space","704.073635396","143","363741.83234","370624.525226","371390.913337","372157.846831","372924.478262","373691.221614","374457.794921","360608.045985","364508.411211","365275.209905","366041.549168","366808.349408","367557.643024","368324.45223","369090.961538","369857.892249","373700.82577","Mapping"
