"Condition","Talker","Target","Trial","current_stimulus","response_response","response_time_response","subject_nr","time_Audio1","time_Audio10","time_Audio11","time_Audio12","time_Audio13","time_Audio14","time_Audio15","time_Audio16","time_Audio2","time_Audio3","time_Audio4","time_Audio5","time_Audio6","time_Audio7","time_Audio8","time_Audio9","time_response","title"
"Mixed","Both","cave","21","m160ball.wav","NA","NA","124","289013.958595","NA","NA","NA","NA","NA","NA","NA","NA","NA","NA","NA","NA","NA","NA","NA","NA","Mapping"
"Mixed","Both","cave","21","m160cave.wav","None","718.383773521","124","289013.958595","NA","NA","NA","NA","NA","NA","NA","289780.483258","NA","NA","NA","NA","NA","NA","NA","289028.933445","Mapping"
"Mixed","Both","cave","21","m150dime.wav","space","486.509031092","124","289013.958595","NA","NA","NA","NA","NA","NA","NA","289780.483258","290546.568584","NA","NA","NA","NA","NA","NA","289789.835776","Mapping"
"Mixed","Both","cave","21","m150park.wav","None","725.43263511","124","289013.958595","NA","NA","NA","NA","NA","NA","NA","289780.483258","290546.568584","291313.362847","NA","NA","NA","NA","NA","290556.201214","Mapping"
"Mixed","Both","cave","21","m160cling.wav","None","725.45953322","124","289013.958595","NA","NA","NA","NA","NA","NA","NA","289780.483258","290546.568584","291313.362847","292079.946562","NA","NA","NA","NA","291323.148209","Mapping"
"Mixed","Both","cave","21","m150romp.wav","None","725.926386251","124","289013.958595","NA","NA","NA","NA","NA","NA","NA","289780.483258","290546.568584","291313.362847","292079.946562","292847.283426","NA","NA","NA","292089.650612","Mapping"
"Mixed","Both","cave","21","m150cave.wav","None","725.289487513","124","289013.958595","NA","NA","NA","NA","NA","NA","NA","289780.483258","290546.568584","291313.362847","292079.946562","292847.283426","293613.166552","NA","NA","292857.23636","Mapping"
"Mixed","Both","cave","21","m160tile.wav","space","509.620417608","124","289013.958595","NA","NA","NA","NA","NA","NA","NA","289780.483258","290546.568584","291313.362847","292079.946562","292847.283426","293613.166552","294379.816122","NA","293622.656344","Mapping"
"Mixed","Both","cave","21","m150ball.wav","None","726.98530776","124","289013.958595","NA","NA","NA","NA","NA","NA","NA","289780.483258","290546.568584","291313.362847","292079.946562","292847.283426","293613.166552","294379.816122","295146.659852","294389.232639","Mapping"
"Mixed","Both","cave","21","m160cave.wav","None","727.662089979","124","289013.958595","295913.423507","NA","NA","NA","NA","NA","NA","289780.483258","290546.568584","291313.362847","292079.946562","292847.283426","293613.166552","294379.816122","295146.659852","295155.944662","Mapping"
"Mixed","Both","cave","21","m150priest.wav","space","409.27114361","124","289013.958595","295913.423507","296680.047106","NA","NA","NA","NA","NA","289780.483258","290546.568584","291313.362847","292079.946562","292847.283426","293613.166552","294379.816122","295146.659852","295922.99523","Mapping"
"Mixed","Both","cave","21","m150lash.wav","None","727.704446821","124","289013.958595","295913.423507","296680.047106","297446.79592","NA","NA","NA","NA","289780.483258","290546.568584","291313.362847","292079.946562","292847.283426","293613.166552","294379.816122","295146.659852","296689.467642","Mapping"
"Mixed","Both","cave","21","m150cave.wav","None","727.646631247","124","289013.958595","295913.423507","296680.047106","297446.79592","298213.614917","NA","NA","NA","289780.483258","290546.568584","291313.362847","292079.946562","292847.283426","293613.166552","294379.816122","295146.659852","297456.232224","Mapping"
"Mixed","Both","cave","21","m160lash.wav","space","461.086876981","124","289013.958595","295913.423507","296680.047106","297446.79592","298213.614917","298980.189357","NA","NA","289780.483258","290546.568584","291313.362847","292079.946562","292847.283426","293613.166552","294379.816122","295146.659852","298223.153867","Mapping"
"Mixed","Both","cave","21","m160greet.wav","None","728.24952082","124","289013.958595","295913.423507","296680.047106","297446.79592","298213.614917","298980.189357","299746.907872","NA","289780.483258","290546.568584","291313.362847","292079.946562","292847.283426","293613.166552","294379.816122","295146.659852","298990.033771","Mapping"
"Mixed","Both","cave","21","m160gnash.wav","None","728.274563968","124","289013.958595","295913.423507","296680.047106","297446.79592","298213.614917","298980.189357","299746.907872","300513.371628","289780.483258","290546.568584","291313.362847","292079.946562","292847.283426","293613.166552","294379.816122","295146.659852","299756.702509","Mapping"
"Mixed","Both","done","43","m150depth.wav","None","729.288346018","124","303663.91007","295913.423507","296680.047106","297446.79592","298213.614917","298980.189357","299746.907872","300513.371628","289780.483258","290546.568584","291313.362847","292079.946562","292847.283426","293613.166552","294379.816122","295146.659852","300522.542661","Mapping"
"Mixed","Both","done","43","m160cad.wav","None","722.623787937","124","303663.91007","295913.423507","296680.047106","297446.79592","298213.614917","298980.189357","299746.907872","300513.371628","304430.008382","290546.568584","291313.362847","292079.946562","292847.283426","293613.166552","294379.816122","295146.659852","303674.079426","Mapping"
"Mixed","Both","done","43","m160jolt.wav","None","730.186496978","124","303663.91007","295913.423507","296680.047106","297446.79592","298213.614917","298980.189357","299746.907872","300513.371628","304430.008382","305196.739882","291313.362847","292079.946562","292847.283426","293613.166552","294379.816122","295146.659852","304434.15348","Mapping"
"Mixed","Both","done","43","m150romp.wav","None","725.875372533","124","303663.91007","295913.423507","296680.047106","297446.79592","298213.614917","298980.189357","299746.907872","300513.371628","304430.008382","305196.739882","305963.660288","292079.946562","292847.283426","293613.166552","294379.816122","295146.659852","305206.001194","Mapping"
"Mixed","Both","done","43","m150done.wav","None","725.862078078","124","303663.91007","295913.423507","296680.047106","297446.79592","298213.614917","298980.189357","299746.907872","300513.371628","304430.008382","305196.739882","305963.660288","306729.886598","292847.283426","293613.166552","294379.816122","295146.659852","305973.12751","Mapping"
"Mixed","Both","done","43","m160jolt.wav","space","416.710182966","124","303663.91007","295913.423507","296680.047106","297446.79592","298213.614917","298980.189357","299746.907872","300513.371628","304430.008382","305196.739882","305963.660288","306729.886598","307496.903775","293613.166552","294379.816122","295146.659852","306739.436678","Mapping"
"Mixed","Both","done","43","m150done.wav","None","726.19907785","124","303663.91007","295913.423507","296680.047106","297446.79592","298213.614917","298980.189357","299746.907872","300513.371628","304430.008382","305196.739882","305963.660288","306729.886598","307496.903775","308263.298276","294379.816122","295146.659852","307506.464677","Mapping"
"Mixed","Both","done","43","m150bluff.wav","space","483.143670426","124","303663.91007","295913.423507","296680.047106","297446.79592","298213.614917","298980.189357","299746.907872","300513.371628","304430.008382","305196.739882","305963.660288","306729.886598","307496.903775","308263.298276","309029.996386","295146.659852","308272.975736","Mapping"
"Mixed","Both","done","43","m160depth.wav","None","726.547826256","124","303663.91007","295913.423507","296680.047106","297446.79592","298213.614917","298980.189357","299746.907872","300513.371628","304430.008382","305196.739882","305963.660288","306729.886598","307496.903775","308263.298276","309029.996386","309796.603598","309039.853167","Mapping"
"Mixed","Both","done","43","m160done.wav","None","728.061852162","124","303663.91007","310563.211429","296680.047106","297446.79592","298213.614917","298980.189357","299746.907872","300513.371628","304430.008382","305196.739882","305963.660288","306729.886598","307496.903775","308263.298276","309029.996386","309796.603598","309805.844505","Mapping"
"Mixed","Both","done","43","m150gnash.wav","space","439.406657708","124","303663.91007","310563.211429","311329.74073","297446.79592","298213.614917","298980.189357","299746.907872","300513.371628","304430.008382","305196.739882","305963.660288","306729.886598","307496.903775","308263.298276","309029.996386","309796.603598","310572.597956","Mapping"
"Mixed","Both","done","43","m160park.wav","None","729.052755341","124","303663.91007","310563.211429","311329.74073","312096.672266","298213.614917","298980.189357","299746.907872","300513.371628","304430.008382","305196.739882","305963.660288","306729.886598","307496.903775","308263.298276","309029.996386","309796.603598","311339.413552","Mapping"
"Mixed","Both","done","43","m160done.wav","None","729.198685498","124","303663.91007","310563.211429","311329.74073","312096.672266","312863.285353","298980.189357","299746.907872","300513.371628","304430.008382","305196.739882","305963.660288","306729.886598","307496.903775","308263.298276","309029.996386","309796.603598","312106.246771","Mapping"
"Mixed","Both","done","43","m150bluff.wav","space","419.20243582","124","303663.91007","310563.211429","311329.74073","312096.672266","312863.285353","313629.847116","299746.907872","300513.371628","304430.008382","305196.739882","305963.660288","306729.886598","307496.903775","308263.298276","309029.996386","309796.603598","312872.810081","Mapping"
"Mixed","Both","done","43","m160romp.wav","None","729.987388826","124","303663.91007","310563.211429","311329.74073","312096.672266","312863.285353","313629.847116","314396.574598","300513.371628","304430.008382","305196.739882","305963.660288","306729.886598","307496.903775","308263.298276","309029.996386","309796.603598","313639.313411","Mapping"
"Mixed","Both","done","43","m150priest.wav","None","730.83576269","124","303663.91007","310563.211429","311329.74073","312096.672266","312863.285353","313629.847116","314396.574598","315163.45883","304430.008382","305196.739882","305963.660288","306729.886598","307496.903775","308263.298276","309029.996386","309796.603598","314406.088196","Mapping"
"Mixed","Both","done","38","m150romp.wav","None","731.035798381","124","318296.676409","310563.211429","311329.74073","312096.672266","312863.285353","313629.847116","314396.574598","315163.45883","304430.008382","305196.739882","305963.660288","306729.886598","307496.903775","308263.298276","309029.996386","309796.603598","315173.228424","Mapping"
"Mixed","Both","done","38","m150done.wav","None","724.469248438","124","318296.676409","310563.211429","311329.74073","312096.672266","312863.285353","313629.847116","314396.574598","315163.45883","319063.316703","305196.739882","305963.660288","306729.886598","307496.903775","308263.298276","309029.996386","309796.603598","318306.066028","Mapping"
"Mixed","Both","done","38","m150tile.wav","space","466.666542983","124","318296.676409","310563.211429","311329.74073","312096.672266","312863.285353","313629.847116","314396.574598","315163.45883","319063.316703","319829.810758","305963.660288","306729.886598","307496.903775","308263.298276","309029.996386","309796.603598","319073.286951","Mapping"
"Mixed","Both","done","38","m160done.wav","None","724.86808314","124","318296.676409","310563.211429","311329.74073","312096.672266","312863.285353","313629.847116","314396.574598","315163.45883","319063.316703","319829.810758","320596.439921","306729.886598","307496.903775","308263.298276","309029.996386","309796.603598","319839.800484","Mapping"
"Mixed","Both","done","38","m160tile.wav","space","462.067268265","124","318296.676409","310563.211429","311329.74073","312096.672266","312863.285353","313629.847116","314396.574598","315163.45883","319063.316703","319829.810758","320596.439921","321363.287981","307496.903775","308263.298276","309029.996386","309796.603598","320605.823048","Mapping"
"Mixed","Both","done","38","m160dime.wav","None","724.991134426","124","318296.676409","310563.211429","311329.74073","312096.672266","312863.285353","313629.847116","314396.574598","315163.45883","319063.316703","319829.810758","320596.439921","321363.287981","322129.728548","308263.298276","309029.996386","309796.603598","321373.488563","Mapping"
"Mixed","Both","done","38","m160knife.wav","None","725.915565155","124","318296.676409","310563.211429","311329.74073","312096.672266","312863.285353","313629.847116","314396.574598","315163.45883","319063.316703","319829.810758","320596.439921","321363.287981","322129.728548","322896.241153","309029.996386","309796.603598","322139.486394","Mapping"
"Mixed","Both","done","38","m150jolt.wav","None","726.62450152","124","318296.676409","310563.211429","311329.74073","312096.672266","312863.285353","313629.847116","314396.574598","315163.45883","319063.316703","319829.810758","320596.439921","321363.287981","322129.728548","322896.241153","323663.049329","309796.603598","322905.721979","Mapping"
"Mixed","Both","done","38","m160dime.wav","None","727.119489282","124","318296.676409","310563.211429","311329.74073","312096.672266","312863.285353","313629.847116","314396.574598","315163.45883","319063.316703","319829.810758","320596.439921","321363.287981","322129.728548","322896.241153","323663.049329","324429.554205","323672.344032","Mapping"
"Mixed","Both","done","38","m150cling.wav","None","727.936327399","124","318296.676409","325196.554996","311329.74073","312096.672266","312863.285353","313629.847116","314396.574598","315163.45883","319063.316703","319829.810758","320596.439921","321363.287981","322129.728548","322896.241153","323663.049329","324429.554205","324438.775942","Mapping"
"Mixed","Both","done","38","m160done.wav","None","727.854087134","124","318296.676409","325196.554996","325962.915178","312096.672266","312863.285353","313629.847116","314396.574598","315163.45883","319063.316703","319829.810758","320596.439921","321363.287981","322129.728548","322896.241153","323663.049329","324429.554205","325206.637474","Mapping"
"Mixed","Both","done","38","m150cad.wav","space","471.82789637","124","318296.676409","325196.554996","325962.915178","326729.632457","312863.285353","313629.847116","314396.574598","315163.45883","319063.316703","319829.810758","320596.439921","321363.287981","322129.728548","322896.241153","323663.049329","324429.554205","325971.964397","Mapping"
"Mixed","Both","done","38","m160priest.wav","None","729.616688972","124","318296.676409","325196.554996","325962.915178","326729.632457","327496.574196","313629.847116","314396.574598","315163.45883","319063.316703","319829.810758","320596.439921","321363.287981","322129.728548","322896.241153","323663.049329","324429.554205","326739.226131","Mapping"
"Mixed","Both","done","38","m150done.wav","None","729.806831048","124","318296.676409","325196.554996","325962.915178","326729.632457","327496.574196","328262.939325","314396.574598","315163.45883","319063.316703","319829.810758","320596.439921","321363.287981","322129.728548","322896.241153","323663.049329","324429.554205","327506.077282","Mapping"
"Mixed","Both","done","38","m150park.wav","space","467.666412238","124","318296.676409","325196.554996","325962.915178","326729.632457","327496.574196","328262.939325","329029.600643","315163.45883","319063.316703","319829.810758","320596.439921","321363.287981","322129.728548","322896.241153","323663.049329","324429.554205","328272.131382","Mapping"
"Mixed","Both","done","38","m160tile.wav","None","731.584891677","124","318296.676409","325196.554996","325962.915178","326729.632457","327496.574196","328262.939325","329029.600643","329796.491986","319063.316703","319829.810758","320596.439921","321363.287981","322129.728548","322896.241153","323663.049329","324429.554205","329038.745705","Mapping"
"Mixed","Both","tile","30","m150dime.wav","None","730.998697458","124","332930.038835","325196.554996","325962.915178","326729.632457","327496.574196","328262.939325","329029.600643","329796.491986","319063.316703","319829.810758","320596.439921","321363.287981","322129.728548","322896.241153","323663.049329","324429.554205","329806.264054","Mapping"
"Mixed","Both","tile","30","m150lash.wav","None","723.097133567","124","332930.038835","325196.554996","325962.915178","326729.632457","327496.574196","328262.939325","329029.600643","329796.491986","333696.404892","319829.810758","320596.439921","321363.287981","322129.728548","322896.241153","323663.049329","324429.554205","332940.238491","Mapping"
"Mixed","Both","tile","30","m150tile.wav","None","724.473576876","124","332930.038835","325196.554996","325962.915178","326729.632457","327496.574196","328262.939325","329029.600643","329796.491986","333696.404892","334463.108258","320596.439921","321363.287981","322129.728548","322896.241153","323663.049329","324429.554205","333706.004131","Mapping"
"Mixed","Both","tile","30","m160depth.wav","space","578.754232207","124","332930.038835","325196.554996","325962.915178","326729.632457","327496.574196","328262.939325","329029.600643","329796.491986","333696.404892","334463.108258","335229.595201","321363.287981","322129.728548","322896.241153","323663.049329","324429.554205","334472.935977","Mapping"
"Mixed","Both","tile","30","m160ball.wav","None","725.083268364","124","332930.038835","325196.554996","325962.915178","326729.632457","327496.574196","328262.939325","329029.600643","329796.491986","333696.404892","334463.108258","335229.595201","335996.179844","322129.728548","322896.241153","323663.049329","324429.554205","335239.346554","Mapping"
"Mixed","Both","tile","30","m150greet.wav","None","725.961013755","124","332930.038835","325196.554996","325962.915178","326729.632457","327496.574196","328262.939325","329029.600643","329796.491986","333696.404892","334463.108258","335229.595201","335996.179844","336763.100559","322896.241153","323663.049329","324429.554205","336005.724359","Mapping"
"Mixed","Both","tile","30","m150knife.wav","None","725.94895598","124","332930.038835","325196.554996","325962.915178","326729.632457","327496.574196","328262.939325","329029.600643","329796.491986","333696.404892","334463.108258","335229.595201","335996.179844","336763.100559","337529.504335","323663.049329","324429.554205","336773.025668","Mapping"
"Mixed","Both","tile","30","m160lash.wav","None","727.784213785","124","332930.038835","325196.554996","325962.915178","326729.632457","327496.574196","328262.939325","329029.600643","329796.491986","333696.404892","334463.108258","335229.595201","335996.179844","336763.100559","337529.504335","338296.101036","324429.554205","337538.633939","Mapping"
"Mixed","Both","tile","30","m150park.wav","None","728.02196868","124","332930.038835","325196.554996","325962.915178","326729.632457","327496.574196","328262.939325","329029.600643","329796.491986","333696.404892","334463.108258","335229.595201","335996.179844","336763.100559","337529.504335","338296.101036","339062.773793","338305.758709","Mapping"
"Mixed","Both","tile","30","m160tile.wav","None","729.023074615","124","332930.038835","339829.322262","325962.915178","326729.632457","327496.574196","328262.939325","329029.600643","329796.491986","333696.404892","334463.108258","335229.595201","335996.179844","336763.100559","337529.504335","338296.101036","339062.773793","339072.060148","Mapping"
"Mixed","Both","tile","30","m160ball.wav","space","452.998571913","124","332930.038835","339829.322262","340596.131675","326729.632457","327496.574196","328262.939325","329029.600643","329796.491986","333696.404892","334463.108258","335229.595201","335996.179844","336763.100559","337529.504335","338296.101036","339062.773793","339838.619748","Mapping"
"Mixed","Both","tile","30","m160tile.wav","None","730.430435389","124","332930.038835","339829.322262","340596.131675","341362.992101","327496.574196","328262.939325","329029.600643","329796.491986","333696.404892","334463.108258","335229.595201","335996.179844","336763.100559","337529.504335","338296.101036","339062.773793","340605.523458","Mapping"
"Mixed","Both","tile","30","m150bluff.wav","space","510.371710814","124","332930.038835","339829.322262","340596.131675","341362.992101","342129.523257","328262.939325","329029.600643","329796.491986","333696.404892","334463.108258","335229.595201","335996.179844","336763.100559","337529.504335","338296.101036","339062.773793","341373.211234","Mapping"
"Mixed","Both","tile","30","m150tile.wav","None","730.983547925","124","332930.038835","339829.322262","340596.131675","341362.992101","342129.523257","342896.112846","329029.600643","329796.491986","333696.404892","334463.108258","335229.595201","335996.179844","336763.100559","337529.504335","338296.101036","339062.773793","342139.291305","Mapping"
"Mixed","Both","tile","30","m160knife.wav","space","457.961126289","124","332930.038835","339829.322262","340596.131675","341362.992101","342129.523257","342896.112846","343662.955031","329796.491986","333696.404892","334463.108258","335229.595201","335996.179844","336763.100559","337529.504335","338296.101036","339062.773793","342905.65025","Mapping"
"Mixed","Both","tile","30","m160romp.wav","None","731.617354904","124","332930.038835","339829.322262","340596.131675","341362.992101","342129.523257","342896.112846","343662.955031","344429.254924","333696.404892","334463.108258","335229.595201","335996.179844","336763.100559","337529.504335","338296.101036","339062.773793","343672.873029","Mapping"
"Mixed","Both","done","48","m150cave.wav","None","733.24268352","124","347563.243892","339829.322262","340596.131675","341362.992101","342129.523257","342896.112846","343662.955031","344429.254924","333696.404892","334463.108258","335229.595201","335996.179844","336763.100559","337529.504335","338296.101036","339062.773793","344438.47728","Mapping"
"Mixed","Both","done","48","m160done.wav","None","723.053849186","124","347563.243892","339829.322262","340596.131675","341362.992101","342129.523257","342896.112846","343662.955031","344429.254924","348329.198129","334463.108258","335229.595201","335996.179844","336763.100559","337529.504335","338296.101036","339062.773793","347573.041931","Mapping"
"Mixed","Both","done","48","m150dime.wav","space","442.382458947","124","347563.243892","339829.322262","340596.131675","341362.992101","342129.523257","342896.112846","343662.955031","344429.254924","348329.198129","349096.710603","335229.595201","335996.179844","336763.100559","337529.504335","338296.101036","339062.773793","348345.115033","Mapping"
"Mixed","Both","done","48","m150depth.wav","None","674.531129654","124","347563.243892","339829.322262","340596.131675","341362.992101","342129.523257","342896.112846","343662.955031","344429.254924","348329.198129","349096.710603","349862.617227","335996.179844","336763.100559","337529.504335","338296.101036","339062.773793","349155.343627","Mapping"
"Mixed","Both","done","48","m160knife.wav","None","725.402026903","124","347563.243892","339829.322262","340596.131675","341362.992101","342129.523257","342896.112846","343662.955031","344429.254924","348329.198129","349096.710603","349862.617227","350629.168479","336763.100559","337529.504335","338296.101036","339062.773793","349871.675412","Mapping"
"Mixed","Both","done","48","m150gnash.wav","None","725.935661467","124","347563.243892","339829.322262","340596.131675","341362.992101","342129.523257","342896.112846","343662.955031","344429.254924","348329.198129","349096.710603","349862.617227","350629.168479","351395.969853","337529.504335","338296.101036","339062.773793","350638.605093","Mapping"
"Mixed","Both","done","48","m160done.wav","None","726.822682132","124","347563.243892","339829.322262","340596.131675","341362.992101","342129.523257","342896.112846","343662.955031","344429.254924","348329.198129","349096.710603","349862.617227","350629.168479","351395.969853","352162.841719","338296.101036","339062.773793","351404.930029","Mapping"
"Mixed","Both","done","48","m160romp.wav","space","436.110552051","124","347563.243892","339829.322262","340596.131675","341362.992101","342129.523257","342896.112846","343662.955031","344429.254924","348329.198129","349096.710603","349862.617227","350629.168479","351395.969853","352162.841719","352929.547248","339062.773793","352167.336492","Mapping"
"Mixed","Both","done","48","m150cling.wav","None","726.55864741","124","347563.243892","339829.322262","340596.131675","341362.992101","342129.523257","342896.112846","343662.955031","344429.254924","348329.198129","349096.710603","349862.617227","350629.168479","351395.969853","352162.841719","352929.547248","353695.894445","352939.359199","Mapping"
"Mixed","Both","done","48","m150reek.wav","None","728.04175585","124","347563.243892","354462.535358","340596.131675","341362.992101","342129.523257","342896.112846","343662.955031","344429.254924","348329.198129","349096.710603","349862.617227","350629.168479","351395.969853","352162.841719","352929.547248","353695.894445","353705.065169","Mapping"
"Mixed","Both","done","48","m150done.wav","None","728.520666598","124","347563.243892","354462.535358","355229.298703","341362.992101","342129.523257","342896.112846","343662.955031","344429.254924","348329.198129","349096.710603","349862.617227","350629.168479","351395.969853","352162.841719","352929.547248","353695.894445","354471.723395","Mapping"
"Mixed","Both","done","48","m160gnash.wav","space","492.875545344","124","347563.243892","354462.535358","355229.298703","355996.084","342129.523257","342896.112846","343662.955031","344429.254924","348329.198129","349096.710603","349862.617227","350629.168479","351395.969853","352162.841719","352929.547248","353695.894445","355238.527861","Mapping"
"Mixed","Both","done","48","m150done.wav","None","728.464706044","124","347563.243892","354462.535358","355229.298703","355996.084","356762.532915","342896.112846","343662.955031","344429.254924","348329.198129","349096.710603","349862.617227","350629.168479","351395.969853","352162.841719","352929.547248","353695.894445","356005.805363","Mapping"
"Mixed","Both","done","48","m160gnash.wav","space","519.662085047","124","347563.243892","354462.535358","355229.298703","355996.084","356762.532915","357529.151877","343662.955031","344429.254924","348329.198129","349096.710603","349862.617227","350629.168479","351395.969853","352162.841719","352929.547248","353695.894445","356771.699929","Mapping"
"Mixed","Both","done","48","m160gnash.wav","None","730.78969575","124","347563.243892","354462.535358","355229.298703","355996.084","356762.532915","357529.151877","358295.813813","344429.254924","348329.198129","349096.710603","349862.617227","350629.168479","351395.969853","352162.841719","352929.547248","353695.894445","357537.959012","Mapping"
"Mixed","Both","done","48","m160cave.wav","None","730.964379094","124","347563.243892","354462.535358","355229.298703","355996.084","356762.532915","357529.151877","358295.813813","359062.496773","348329.198129","349096.710603","349862.617227","350629.168479","351395.969853","352162.841719","352929.547248","353695.894445","358305.073888","Mapping"
"Mixed","Both","tile","35","m160jaw.wav","None","731.818627333","124","362196.391752","354462.535358","355229.298703","355996.084","356762.532915","357529.151877","358295.813813","359062.496773","348329.198129","349096.710603","349862.617227","350629.168479","351395.969853","352162.841719","352929.547248","353695.894445","359071.42665","Mapping"
"Mixed","Both","tile","35","m160cad.wav","None","722.525779682","124","362196.391752","354462.535358","355229.298703","355996.084","356762.532915","357529.151877","358295.813813","359062.496773","362962.299922","349096.710603","349862.617227","350629.168479","351395.969853","352162.841719","352929.547248","353695.894445","362206.273267","Mapping"
"Mixed","Both","tile","35","m150tile.wav","None","725.044621562","124","362196.391752","354462.535358","355229.298703","355996.084","356762.532915","357529.151877","358295.813813","359062.496773","362962.299922","363729.236096","349862.617227","350629.168479","351395.969853","352162.841719","352929.547248","353695.894445","362971.291634","Mapping"
"Mixed","Both","tile","35","m150ball.wav","space","472.576407017","124","362196.391752","354462.535358","355229.298703","355996.084","356762.532915","357529.151877","358295.813813","359062.496773","362962.299922","363729.236096","364496.003769","350629.168479","351395.969853","352162.841719","352929.547248","353695.894445","363738.701462","Mapping"
"Mixed","Both","tile","35","m150priest.wav","None","725.196116895","124","362196.391752","354462.535358","355229.298703","355996.084","356762.532915","357529.151877","358295.813813","359062.496773","362962.299922","363729.236096","364496.003769","365262.389613","351395.969853","352162.841719","352929.547248","353695.894445","364505.160271","Mapping"
"Mixed","Both","tile","35","m150park.wav","None","727.364355291","124","362196.391752","354462.535358","355229.298703","355996.084","356762.532915","357529.151877","358295.813813","359062.496773","362962.299922","363729.236096","364496.003769","365262.389613","366029.076902","352162.841719","352929.547248","353695.894445","365271.307123","Mapping"
"Mixed","Both","tile","35","m160cave.wav","None","727.570574381","124","362196.391752","354462.535358","355229.298703","355996.084","356762.532915","357529.151877","358295.813813","359062.496773","362962.299922","363729.236096","364496.003769","365262.389613","366029.076902","366795.763881","352929.547248","353695.894445","366038.494965","Mapping"
"Mixed","Both","tile","35","m160jolt.wav","None","728.487894172","124","362196.391752","354462.535358","355229.298703","355996.084","356762.532915","357529.151877","358295.813813","359062.496773","362962.299922","363729.236096","364496.003769","365262.389613","366029.076902","366795.763881","367562.590607","353695.894445","366805.021483","Mapping"
"Mixed","Both","tile","35","m150bluff.wav","None","728.788102278","124","362196.391752","354462.535358","355229.298703","355996.084","356762.532915","357529.151877","358295.813813","359062.496773","362962.299922","363729.236096","364496.003769","365262.389613","366029.076902","366795.763881","367562.590607","368328.903795","367572.035569","Mapping"
"Mixed","Both","tile","35","m160tile.wav","None","730.385605071","124","362196.391752","369095.64488","355229.298703","355996.084","356762.532915","357529.151877","358295.813813","359062.496773","362962.299922","363729.236096","364496.003769","365262.389613","366029.076902","366795.763881","367562.590607","368328.903795","368337.798117","Mapping"
"Mixed","Both","tile","35","m160romp.wav","space","442.333918589","124","362196.391752","369095.64488","369862.307126","355996.084","356762.532915","357529.151877","358295.813813","359062.496773","362962.299922","363729.236096","364496.003769","365262.389613","366029.076902","366795.763881","367562.590607","368328.903795","369104.823952","Mapping"
"Mixed","Both","tile","35","m160romp.wav","None","731.302924803","124","362196.391752","369095.64488","369862.307126","370629.118702","356762.532915","357529.151877","358295.813813","359062.496773","362962.299922","363729.236096","364496.003769","365262.389613","366029.076902","366795.763881","367562.590607","368328.903795","369871.697981","Mapping"
"Mixed","Both","tile","35","m160tile.wav","None","732.285171107","124","362196.391752","369095.64488","369862.307126","370629.118702","371395.540719","357529.151877","358295.813813","359062.496773","362962.299922","363729.236096","364496.003769","365262.389613","366029.076902","366795.763881","367562.590607","368328.903795","370638.410004","Mapping"
"Mixed","Both","tile","35","m150cave.wav","space","470.384362212","124","362196.391752","369095.64488","369862.307126","370629.118702","371395.540719","372162.298809","358295.813813","359062.496773","362962.299922","363729.236096","364496.003769","365262.389613","366029.076902","366795.763881","367562.590607","368328.903795","371404.776988","Mapping"
"Mixed","Both","tile","35","m150tile.wav","None","733.641518105","124","362196.391752","369095.64488","369862.307126","370629.118702","371395.540719","372162.298809","372928.893345","359062.496773","362962.299922","363729.236096","364496.003769","365262.389613","366029.076902","366795.763881","367562.590607","368328.903795","372171.322056","Mapping"
"Mixed","Both","tile","35","m150knife.wav","space","553.047019523","124","362196.391752","369095.64488","369862.307126","370629.118702","371395.540719","372162.298809","372928.893345","373695.639377","362962.299922","363729.236096","364496.003769","365262.389613","366029.076902","366795.763881","367562.590607","368328.903795","372938.056958","Mapping"
"Mixed","Both","tile","29","m150jaw.wav","None","734.096622444","124","376829.322262","369095.64488","369862.307126","370629.118702","371395.540719","372162.298809","372928.893345","373695.639377","362962.299922","363729.236096","364496.003769","365262.389613","366029.076902","366795.763881","367562.590607","368328.903795","373705.128241","Mapping"
"Mixed","Both","tile","29","m150gnash.wav","None","723.154021602","124","376829.322262","369095.64488","369862.307126","370629.118702","371395.540719","372162.298809","372928.893345","373695.639377","377595.484264","363729.236096","364496.003769","365262.389613","366029.076902","366795.763881","367562.590607","368328.903795","376839.519135","Mapping"
"Mixed","Both","tile","29","m160greet.wav","None","725.688631297","124","376829.322262","369095.64488","369862.307126","370629.118702","371395.540719","372162.298809","372928.893345","373695.639377","377595.484264","378362.182683","364496.003769","365262.389613","366029.076902","366795.763881","367562.590607","368328.903795","377604.5981","Mapping"
"Mixed","Both","tile","29","m150tile.wav","None","726.717253739","124","376829.322262","369095.64488","369862.307126","370629.118702","371395.540719","372162.298809","372928.893345","373695.639377","377595.484264","378362.182683","379128.740428","365262.389613","366029.076902","366795.763881","367562.590607","368328.903795","378370.991982","Mapping"
"Mixed","Both","tile","29","m150lash.wav","space","393.478527665","124","376829.322262","369095.64488","369862.307126","370629.118702","371395.540719","372162.298809","372928.893345","373695.639377","377595.484264","378362.182683","379128.740428","379896.001543","366029.076902","366795.763881","367562.590607","368328.903795","379137.589919","Mapping"
"Mixed","Both","tile","29","m160park.wav","None","726.927801385","124","376829.322262","369095.64488","369862.307126","370629.118702","371395.540719","372162.298809","372928.893345","373695.639377","377595.484264","378362.182683","379128.740428","379896.001543","380662.424179","366795.763881","367562.590607","368328.903795","379905.063129","Mapping"
"Mixed","Both","tile","29","m160cling.wav","None","727.623752318","124","376829.322262","369095.64488","369862.307126","370629.118702","371395.540719","372162.298809","372928.893345","373695.639377","377595.484264","378362.182683","379128.740428","379896.001543","380662.424179","381428.841868","367562.590607","368328.903795","380671.9891","Mapping"
"Mixed","Both","tile","29","m160tile.wav","None","729.178898328","124","376829.322262","369095.64488","369862.307126","370629.118702","371395.540719","372162.298809","372928.893345","373695.639377","377595.484264","378362.182683","379128.740428","379896.001543","380662.424179","381428.841868","382195.771549","368328.903795","381437.916438","Mapping"
"Mixed","Both","tile","29","m160cling.wav","space","451.226694859","124","376829.322262","369095.64488","369862.307126","370629.118702","371395.540719","372162.298809","372928.893345","373695.639377","377595.484264","378362.182683","379128.740428","379896.001543","380662.424179","381428.841868","382195.771549","382961.989202","382199.737944","Mapping"
"Mixed","Both","tile","29","m150cling.wav","None","730.506182997","124","376829.322262","383728.870343","369862.307126","370629.118702","371395.540719","372162.298809","372928.893345","373695.639377","377595.484264","378362.182683","379128.740428","379896.001543","380662.424179","381428.841868","382195.771549","382961.989202","382970.894345","Mapping"
"Mixed","Both","tile","29","m160ball.wav","None","730.353450985","124","376829.322262","383728.870343","384495.408918","370629.118702","371395.540719","372162.298809","372928.893345","373695.639377","377595.484264","378362.182683","379128.740428","379896.001543","380662.424179","381428.841868","382195.771549","382961.989202","383738.377757","Mapping"
"Mixed","Both","tile","29","m160tile.wav","None","732.559408585","124","376829.322262","383728.870343","384495.408918","385262.511737","371395.540719","372162.298809","372928.893345","373695.639377","377595.484264","378362.182683","379128.740428","379896.001543","380662.424179","381428.841868","382195.771549","382961.989202","384504.260884","Mapping"
"Mixed","Both","tile","29","m150jolt.wav","space","459.392293473","124","376829.322262","383728.870343","384495.408918","385262.511737","386028.736501","372162.298809","372928.893345","373695.639377","377595.484264","378362.182683","379128.740428","379896.001543","380662.424179","381428.841868","382195.771549","382961.989202","385271.584762","Mapping"
"Mixed","Both","tile","29","m150tile.wav","None","733.321832027","124","376829.322262","383728.870343","384495.408918","385262.511737","386028.736501","386795.547459","372928.893345","373695.639377","377595.484264","378362.182683","379128.740428","379896.001543","380662.424179","381428.841868","382195.771549","382961.989202","386037.843844","Mapping"
"Mixed","Both","tile","29","m160jaw.wav","space","445.865924179","124","376829.322262","383728.870343","384495.408918","385262.511737","386028.736501","386795.547459","387562.018635","373695.639377","377595.484264","378362.182683","379128.740428","379896.001543","380662.424179","381428.841868","382195.771549","382961.989202","386805.05271","Mapping"
"Mixed","Both","tile","29","m150lash.wav","None","734.784534958","124","376829.322262","383728.870343","384495.408918","385262.511737","386028.736501","386795.547459","387562.018635","388328.466932","377595.484264","378362.182683","379128.740428","379896.001543","380662.424179","381428.841868","382195.771549","382961.989202","387571.283966","Mapping"
"Mixed","Both","ball","7","m150cling.wav","None","735.901272041","124","391479.199227","383728.870343","384495.408918","385262.511737","386028.736501","386795.547459","387562.018635","388328.466932","377595.484264","378362.182683","379128.740428","379896.001543","380662.424179","381428.841868","382195.771549","382961.989202","388337.668573","Mapping"
"Mixed","Both","ball","7","m150greet.wav","None","728.87899942","124","391479.199227","383728.870343","384495.408918","385262.511737","386028.736501","386795.547459","387562.018635","388328.466932","392245.674731","378362.182683","379128.740428","379896.001543","380662.424179","381428.841868","382195.771549","382961.989202","391483.629383","Mapping"
"Mixed","Both","ball","7","m160cad.wav","None","724.990825227","124","391479.199227","383728.870343","384495.408918","385262.511737","386028.736501","386795.547459","387562.018635","388328.466932","392245.674731","393012.064594","379128.740428","379896.001543","380662.424179","381428.841868","382195.771549","382961.989202","392254.988293","Mapping"
"Mixed","Both","ball","7","m160ball.wav","None","726.496812596","124","391479.199227","383728.870343","384495.408918","385262.511737","386028.736501","386795.547459","387562.018635","388328.466932","392245.674731","393012.064594","393778.63687","379896.001543","380662.424179","381428.841868","382195.771549","382961.989202","393021.243047","Mapping"
"Mixed","Both","ball","7","m150tile.wav","space","391.038216127","124","391479.199227","383728.870343","384495.408918","385262.511737","386028.736501","386795.547459","387562.018635","388328.466932","392245.674731","393012.064594","393778.63687","394545.26356","380662.424179","381428.841868","382195.771549","382961.989202","393787.749778","Mapping"
"Mixed","Both","ball","7","m160depth.wav","None","727.421861608","124","391479.199227","383728.870343","384495.408918","385262.511737","386028.736501","386795.547459","387562.018635","388328.466932","392245.674731","393012.064594","393778.63687","394545.26356","395311.941264","381428.841868","382195.771549","382961.989202","394554.350807","Mapping"
"Mixed","Both","ball","7","m160tile.wav","None","728.981336113","124","391479.199227","383728.870343","384495.408918","385262.511737","386028.736501","386795.547459","387562.018635","388328.466932","392245.674731","393012.064594","393778.63687","394545.26356","395311.941264","396078.671219","382195.771549","382961.989202","395320.938232","Mapping"
"Mixed","Both","ball","7","m150cad.wav","None","729.699238495","124","391479.199227","383728.870343","384495.408918","385262.511737","386028.736501","386795.547459","387562.018635","388328.466932","392245.674731","393012.064594","393778.63687","394545.26356","395311.941264","396078.671219","396845.161873","382961.989202","396087.871314","Mapping"
"Mixed","Both","ball","7","m150ball.wav","None","730.512057315","124","391479.199227","383728.870343","384495.408918","385262.511737","386028.736501","386795.547459","387562.018635","388328.466932","392245.674731","393012.064594","393778.63687","394545.26356","395311.941264","396078.671219","396845.161873","397611.906359","396854.359495","Mapping"
"Mixed","Both","ball","7","m160romp.wav","space","493.424329499","124","391479.199227","398378.635076","384495.408918","385262.511737","386028.736501","386795.547459","387562.018635","388328.466932","392245.674731","393012.064594","393778.63687","394545.26356","395311.941264","396078.671219","396845.161873","397611.906359","397621.342663","Mapping"
"Mixed","Both","ball","7","m160ball.wav","None","731.08372034","124","391479.199227","398378.635076","399145.394093","385262.511737","386028.736501","386795.547459","387562.018635","388328.466932","392245.674731","393012.064594","393778.63687","394545.26356","395311.941264","396078.671219","396845.161873","397611.906359","398388.003363","Mapping"
"Mixed","Both","ball","7","m150romp.wav","space","416.074520908","124","391479.199227","398378.635076","399145.394093","399911.90608","386028.736501","386795.547459","387562.018635","388328.466932","392245.674731","393012.064594","393778.63687","394545.26356","395311.941264","396078.671219","396845.161873","397611.906359","399154.653241","Mapping"
"Mixed","Both","ball","7","m150ball.wav","None","732.429555443","124","391479.199227","398378.635076","399145.394093","399911.90608","400678.508964","386795.547459","387562.018635","388328.466932","392245.674731","393012.064594","393778.63687","394545.26356","395311.941264","396078.671219","396845.161873","397611.906359","399921.155953","Mapping"
"Mixed","Both","ball","7","m160gnash.wav","space","411.136082083","124","391479.199227","398378.635076","399145.394093","399911.90608","400678.508964","401445.084332","387562.018635","388328.466932","392245.674731","393012.064594","393778.63687","394545.26356","395311.941264","396078.671219","396845.161873","397611.906359","400687.624346","Mapping"
"Mixed","Both","ball","7","m150greet.wav","None","733.677691489","124","391479.199227","398378.635076","399145.394093","399911.90608","400678.508964","401445.084332","402211.796664","388328.466932","392245.674731","393012.064594","393778.63687","394545.26356","395311.941264","396078.671219","396845.161873","397611.906359","401454.52682","Mapping"
"Mixed","Both","ball","7","m160park.wav","None","734.73104788","124","391479.199227","398378.635076","399145.394093","399911.90608","400678.508964","401445.084332","402211.796664","402978.580105","392245.674731","393012.064594","393778.63687","394545.26356","395311.941264","396078.671219","396845.161873","397611.906359","402221.017783","Mapping"
"Mixed","Both","tile","25","m160gnash.wav","None","736.571870744","124","406128.890068","398378.635076","399145.394093","399911.90608","400678.508964","401445.084332","402211.796664","402978.580105","392245.674731","393012.064594","393778.63687","394545.26356","395311.941264","396078.671219","396845.161873","397611.906359","402987.405791","Mapping"
"Mixed","Both","tile","25","m150gnash.wav","None","723.350656335","124","406128.890068","398378.635076","399145.394093","399911.90608","400678.508964","401445.084332","402211.796664","402978.580105","406895.32909","393012.064594","393778.63687","394545.26356","395311.941264","396078.671219","396845.161873","397611.906359","406138.925552","Mapping"
"Mixed","Both","tile","25","m160tile.wav","None","724.820470321","124","406128.890068","398378.635076","399145.394093","399911.90608","400678.508964","401445.084332","402211.796664","402978.580105","406895.32909","407662.073575","393778.63687","394545.26356","395311.941264","396078.671219","396845.161873","397611.906359","406905.008405","Mapping"
"Mixed","Both","tile","25","m160ball.wav","space","403.087351297","124","406128.890068","398378.635076","399145.394093","399911.90608","400678.508964","401445.084332","402211.796664","402978.580105","406895.32909","407662.073575","408428.519399","394545.26356","395311.941264","396078.671219","396845.161873","397611.906359","407671.533377","Mapping"
"Mixed","Both","tile","25","m150cling.wav","None","726.660984044","124","406128.890068","398378.635076","399145.394093","399911.90608","400678.508964","401445.084332","402211.796664","402978.580105","406895.32909","407662.073575","408428.519399","409195.120737","395311.941264","396078.671219","396845.161873","397611.906359","408437.510493","Mapping"
"Mixed","Both","tile","25","m150tile.wav","None","727.7059927","124","406128.890068","398378.635076","399145.394093","399911.90608","400678.508964","401445.084332","402211.796664","402978.580105","406895.32909","407662.073575","408428.519399","409195.120737","409961.625922","396078.671219","396845.161873","397611.906359","409204.325779","Mapping"
"Mixed","Both","tile","25","m150lash.wav","space","407.619226084","124","406128.890068","398378.635076","399145.394093","399911.90608","400678.508964","401445.084332","402211.796664","402978.580105","406895.32909","407662.073575","408428.519399","409195.120737","409961.625922","410728.281057","396845.161873","397611.906359","409970.946905","Mapping"
"Mixed","Both","tile","25","m160tile.wav","None","729.237023101","124","406128.890068","398378.635076","399145.394093","399911.90608","400678.508964","401445.084332","402211.796664","402978.580105","406895.32909","407662.073575","408428.519399","409195.120737","409961.625922","410728.281057","411495.218158","397611.906359","410737.36212","Mapping"
"Mixed","Both","tile","25","m150jolt.wav","space","425.648716919","124","406128.890068","398378.635076","399145.394093","399911.90608","400678.508964","401445.084332","402211.796664","402978.580105","406895.32909","407662.073575","408428.519399","409195.120737","409961.625922","410728.281057","411495.218158","412261.682223","411504.924062","Mapping"
"Mixed","Both","tile","25","m160romp.wav","None","731.053421274","124","406128.890068","413028.330865","399145.394093","399911.90608","400678.508964","401445.084332","402211.796664","402978.580105","406895.32909","407662.073575","408428.519399","409195.120737","409961.625922","410728.281057","411495.218158","412261.682223","412270.626013","Mapping"
"Mixed","Both","tile","25","m150tile.wav","None","731.826047471","124","406128.890068","413028.330865","413794.968067","399911.90608","400678.508964","401445.084332","402211.796664","402978.580105","406895.32909","407662.073575","408428.519399","409195.120737","409961.625922","410728.281057","411495.218158","412261.682223","413037.46727","Mapping"
"Mixed","Both","tile","25","m150priest.wav","space","438.16161342","124","406128.890068","413028.330865","413794.968067","414561.637423","400678.508964","401445.084332","402211.796664","402978.580105","406895.32909","407662.073575","408428.519399","409195.120737","409961.625922","410728.281057","411495.218158","412261.682223","413804.403753","Mapping"
"Mixed","Both","tile","25","m160lash.wav","None","733.074801916","124","406128.890068","413028.330865","413794.968067","414561.637423","415328.360267","401445.084332","402211.796664","402978.580105","406895.32909","407662.073575","408428.519399","409195.120737","409961.625922","410728.281057","411495.218158","412261.682223","414571.087331","Mapping"
"Mixed","Both","tile","25","m160gnash.wav","None","734.550490102","124","406128.890068","413028.330865","413794.968067","414561.637423","415328.360267","416095.003962","402211.796664","402978.580105","406895.32909","407662.073575","408428.519399","409195.120737","409961.625922","410728.281057","411495.218158","412261.682223","415337.523261","Mapping"
"Mixed","Both","tile","25","m150jaw.wav","None","735.372893396","124","406128.890068","413028.330865","413794.968067","414561.637423","415328.360267","416095.003962","416878.404896","402978.580105","406895.32909","407662.073575","408428.519399","409195.120737","409961.625922","410728.281057","411495.218158","412261.682223","416104.430682","Mapping"
"Mixed","Both","tile","25","m160greet.wav","None","720.030125929","124","406128.890068","413028.330865","413794.968067","414561.637423","415328.360267","416095.003962","416878.404896","417645.343853","406895.32909","407662.073575","408428.519399","409195.120737","409961.625922","410728.281057","411495.218158","412261.682223","416887.868717","Mapping"
"Mixed","Both","cave","14","m150reek.wav","None","720.222741424","124","420778.653565","413028.330865","413794.968067","414561.637423","415328.360267","416095.003962","416878.404896","417645.343853","406895.32909","407662.073575","408428.519399","409195.120737","409961.625922","410728.281057","411495.218158","412261.682223","417655.255976","Mapping"
"Mixed","Both","cave","14","m150bluff.wav","None","723.416510446","124","420778.653565","413028.330865","413794.968067","414561.637423","415328.360267","416095.003962","416878.404896","417645.343853","421545.063524","407662.073575","408428.519399","409195.120737","409961.625922","410728.281057","411495.218158","412261.682223","420788.430579","Mapping"
"Mixed","Both","cave","14","m150romp.wav","None","724.515933776","124","420778.653565","413028.330865","413794.968067","414561.637423","415328.360267","416095.003962","416878.404896","417645.343853","421545.063524","422311.721751","408428.519399","409195.120737","409961.625922","410728.281057","411495.218158","412261.682223","421554.816732","Mapping"
"Mixed","Both","cave","14","m160bluff.wav","None","726.103233872","124","420778.653565","413028.330865","413794.968067","414561.637423","415328.360267","416095.003962","416878.404896","417645.343853","421545.063524","422311.721751","423078.160463","409195.120737","409961.625922","410728.281057","411495.218158","412261.682223","422320.784573","Mapping"
"Mixed","Both","cave","14","m160reek.wav","None","727.452469873","124","420778.653565","413028.330865","413794.968067","414561.637423","415328.360267","416095.003962","416878.404896","417645.343853","421545.063524","422311.721751","423078.160463","423845.195264","409961.625922","410728.281057","411495.218158","412261.682223","423087.002226","Mapping"
"Mixed","Both","cave","14","m160reek.wav","None","727.256762679","124","420778.653565","413028.330865","413794.968067","414561.637423","415328.360267","416095.003962","416878.404896","417645.343853","421545.063524","422311.721751","423078.160463","423845.195264","424611.731984","410728.281057","411495.218158","412261.682223","423854.688456","Mapping"
"Mixed","Both","cave","14","m150cave.wav","None","728.323722666","124","420778.653565","413028.330865","413794.968067","414561.637423","415328.360267","416095.003962","416878.404896","417645.343853","421545.063524","422311.721751","423078.160463","423845.195264","424611.731984","425378.111335","411495.218158","412261.682223","424621.259186","Mapping"
"Mixed","Both","cave","14","m160gnash.wav","space","535.067614866","124","420778.653565","413028.330865","413794.968067","414561.637423","415328.360267","416095.003962","416878.404896","417645.343853","421545.063524","422311.721751","423078.160463","423845.195264","424611.731984","425378.111335","426144.985984","412261.682223","425387.261345","Mapping"
"Mixed","Both","cave","14","m150cave.wav","None","730.480212427","124","420778.653565","413028.330865","413794.968067","414561.637423","415328.360267","416095.003962","416878.404896","417645.343853","421545.063524","422311.721751","423078.160463","423845.195264","424611.731984","425378.111335","426144.985984","426911.739435","426154.304802","Mapping"
"Mixed","Both","cave","14","m160greet.wav","space","528.98183075","124","420778.653565","427678.181858","413794.968067","414561.637423","415328.360267","416095.003962","416878.404896","417645.343853","421545.063524","422311.721751","423078.160463","423845.195264","424611.731984","425378.111335","426144.985984","426911.739435","426921.332182","Mapping"
"Mixed","Both","cave","14","m150reek.wav","None","732.287953666","124","420778.653565","427678.181858","428444.814423","414561.637423","415328.360267","416095.003962","416878.404896","417645.343853","421545.063524","422311.721751","423078.160463","423845.195264","424611.731984","425378.111335","426144.985984","426911.739435","427687.200468","Mapping"
"Mixed","Both","cave","14","m150park.wav","None","733.15735138","124","420778.653565","427678.181858","428444.814423","429211.678559","415328.360267","416095.003962","416878.404896","417645.343853","421545.063524","422311.721751","423078.160463","423845.195264","424611.731984","425378.111335","426144.985984","426911.739435","428453.987929","Mapping"
"Mixed","Both","cave","14","m160cave.wav","None","733.600707143","124","420778.653565","427678.181858","428444.814423","429211.678559","429978.039051","416095.003962","416878.404896","417645.343853","421545.063524","422311.721751","423078.160463","423845.195264","424611.731984","425378.111335","426144.985984","426911.739435","429221.219055","Mapping"
"Mixed","Both","cave","14","m150done.wav","space","399.062522163","124","420778.653565","427678.181858","428444.814423","429211.678559","429978.039051","430745.086527","416878.404896","417645.343853","421545.063524","422311.721751","423078.160463","423845.195264","424611.731984","425378.111335","426144.985984","426911.739435","429987.209774","Mapping"
"Mixed","Both","cave","14","m160cave.wav","None","735.850876663","124","420778.653565","427678.181858","428444.814423","429211.678559","429978.039051","430745.086527","431528.258363","417645.343853","421545.063524","422311.721751","423078.160463","423845.195264","424611.731984","425378.111335","426144.985984","426911.739435","430754.513865","Mapping"
"Mixed","Both","cave","14","m160greet.wav","space","464.727711864","124","420778.653565","427678.181858","428444.814423","429211.678559","429978.039051","430745.086527","431528.258363","432294.821673","421545.063524","422311.721751","423078.160463","423845.195264","424611.731984","425378.111335","426144.985984","426911.739435","431537.521839","Mapping"
"Mixed","Both","cave","13","m150knife.wav","None","720.616629347","124","435428.524964","427678.181858","428444.814423","429211.678559","429978.039051","430745.086527","431528.258363","432294.821673","421545.063524","422311.721751","423078.160463","423845.195264","424611.731984","425378.111335","426144.985984","426911.739435","432304.04372","Mapping"
"Mixed","Both","cave","13","m150cling.wav","None","723.132070212","124","435428.524964","427678.181858","428444.814423","429211.678559","429978.039051","430745.086527","431528.258363","432294.821673","436194.676454","422311.721751","423078.160463","423845.195264","424611.731984","425378.111335","426144.985984","426911.739435","435438.400296","Mapping"
"Mixed","Both","cave","13","m160cave.wav","None","725.139538001","124","435428.524964","427678.181858","428444.814423","429211.678559","429978.039051","430745.086527","431528.258363","432294.821673","436194.676454","436961.210701","423078.160463","423845.195264","424611.731984","425378.111335","426144.985984","426911.739435","436203.986615","Mapping"
"Mixed","Both","cave","13","m160dime.wav","space","472.033188038","124","435428.524964","427678.181858","428444.814423","429211.678559","429978.039051","430745.086527","431528.258363","432294.821673","436194.676454","436961.210701","437727.956424","423845.195264","424611.731984","425378.111335","426144.985984","426911.739435","436970.139342","Mapping"
"Mixed","Both","cave","13","m150lash.wav","None","726.58090794","124","435428.524964","427678.181858","428444.814423","429211.678559","429978.039051","430745.086527","431528.258363","432294.821673","436194.676454","436961.210701","437727.956424","438494.619906","424611.731984","425378.111335","426144.985984","426911.739435","437737.090047","Mapping"
"Mixed","Both","cave","13","m150depth.wav","None","727.339003002","124","435428.524964","427678.181858","428444.814423","429211.678559","429978.039051","430745.086527","431528.258363","432294.821673","436194.676454","436961.210701","437727.956424","438494.619906","439261.307504","425378.111335","426144.985984","426911.739435","438503.92141","Mapping"
"Mixed","Both","cave","13","m150cave.wav","None","728.684528905","124","435428.524964","427678.181858","428444.814423","429211.678559","429978.039051","430745.086527","431528.258363","432294.821673","436194.676454","436961.210701","437727.956424","438494.619906","439261.307504","440027.919663","426144.985984","426911.739435","439270.28623","Mapping"
"Mixed","Both","cave","13","m160lash.wav","space","461.096461397","124","435428.524964","427678.181858","428444.814423","429211.678559","429978.039051","430745.086527","431528.258363","432294.821673","436194.676454","436961.210701","437727.956424","438494.619906","439261.307504","440027.919663","440794.750099","426911.739435","440037.034735","Mapping"
"Mixed","Both","cave","13","m150done.wav","None","729.117681854","124","435428.524964","427678.181858","428444.814423","429211.678559","429978.039051","430745.086527","431528.258363","432294.821673","436194.676454","436961.210701","437727.956424","438494.619906","439261.307504","440027.919663","440794.750099","441561.475107","440804.358923","Mapping"
"Mixed","Both","cave","13","m150priest.wav","None","730.363962939","124","435428.524964","442327.873009","428444.814423","429211.678559","429978.039051","430745.086527","431528.258363","432294.821673","436194.676454","436961.210701","437727.956424","438494.619906","439261.307504","440027.919663","440794.750099","441561.475107","441571.020241","Mapping"
"Mixed","Both","cave","13","m160bluff.wav","None","736.165925104","124","435428.524964","442327.873009","443111.821181","429211.678559","429978.039051","430745.086527","431528.258363","432294.821673","436194.676454","436961.210701","437727.956424","438494.619906","439261.307504","440027.919663","440794.750099","441561.475107","442336.571933","Mapping"
"Mixed","Both","cave","13","m160cave.wav","None","718.915553065","124","435428.524964","442327.873009","443111.821181","443878.252783","429978.039051","430745.086527","431528.258363","432294.821673","436194.676454","436961.210701","437727.956424","438494.619906","439261.307504","440027.919663","440794.750099","441561.475107","443121.891293","Mapping"
"Mixed","Both","cave","13","m160priest.wav","space","433.665602759","124","435428.524964","442327.873009","443111.821181","443878.252783","444645.111972","430745.086527","431528.258363","432294.821673","436194.676454","436961.210701","437727.956424","438494.619906","439261.307504","440027.919663","440794.750099","441561.475107","443888.390912","Mapping"
"Mixed","Both","cave","13","m160jaw.wav","None","719.853278308","124","435428.524964","442327.873009","443111.821181","443878.252783","444645.111972","445411.554395","431528.258363","432294.821673","436194.676454","436961.210701","437727.956424","438494.619906","439261.307504","440027.919663","440794.750099","441561.475107","444655.281638","Mapping"
"Mixed","Both","cave","13","m150cave.wav","None","721.531475603","124","435428.524964","442327.873009","443111.821181","443878.252783","444645.111972","445411.554395","446178.377102","432294.821673","436194.676454","436961.210701","437727.956424","438494.619906","439261.307504","440027.919663","440794.750099","441561.475107","445421.88514","Mapping"
"Mixed","Both","cave","13","m160jolt.wav","space","446.267541382","124","435428.524964","442327.873009","443111.821181","443878.252783","444645.111972","445411.554395","446178.377102","446945.30771","436194.676454","436961.210701","437727.956424","438494.619906","439261.307504","440027.919663","440794.750099","441561.475107","446187.822681","Mapping"
"Mixed","Both","done","46","m160priest.wav","None","723.018912482","124","450078.188289","442327.873009","443111.821181","443878.252783","444645.111972","445411.554395","446178.377102","446945.30771","436194.676454","436961.210701","437727.956424","438494.619906","439261.307504","440027.919663","440794.750099","441561.475107","446955.126154","Mapping"
"Mixed","Both","done","46","m160done.wav","None","723.227605049","124","450078.188289","442327.873009","443111.821181","443878.252783","444645.111972","445411.554395","446178.377102","446945.30771","450844.369459","436961.210701","437727.956424","438494.619906","439261.307504","440027.919663","440794.750099","441561.475107","450088.341259","Mapping"
"Mixed","Both","done","46","m150romp.wav","space","436.471976631","124","450078.188289","442327.873009","443111.821181","443878.252783","444645.111972","445411.554395","446178.377102","446945.30771","450844.369459","451611.5876","437727.956424","438494.619906","439261.307504","440027.919663","440794.750099","441561.475107","450853.494425","Mapping"
"Mixed","Both","done","46","m150jaw.wav","None","725.393679226","124","450078.188289","442327.873009","443111.821181","443878.252783","444645.111972","445411.554395","446178.377102","446945.30771","450844.369459","451611.5876","452377.784229","438494.619906","439261.307504","440027.919663","440794.750099","441561.475107","451620.758633","Mapping"
"Mixed","Both","done","46","m160bluff.wav","None","726.957482053","124","450078.188289","442327.873009","443111.821181","443878.252783","444645.111972","445411.554395","446178.377102","446945.30771","450844.369459","451611.5876","452377.784229","453144.414011","439261.307504","440027.919663","440794.750099","441561.475107","452386.976904","Mapping"
"Mixed","Both","done","46","m160done.wav","None","728.298061236","124","450078.188289","442327.873009","443111.821181","443878.252783","444645.111972","445411.554395","446178.377102","446945.30771","450844.369459","451611.5876","452377.784229","453144.414011","453911.302572","440027.919663","440794.750099","441561.475107","453153.57175","Mapping"
"Mixed","Both","done","46","m150tile.wav","space","393.075673783","124","450078.188289","442327.873009","443111.821181","443878.252783","444645.111972","445411.554395","446178.377102","446945.30771","450844.369459","451611.5876","452377.784229","453144.414011","453911.302572","454677.736338","440794.750099","441561.475107","453920.862237","Mapping"
"Mixed","Both","done","46","m160tile.wav","None","730.058189714","124","450078.188289","442327.873009","443111.821181","443878.252783","444645.111972","445411.554395","446178.377102","446945.30771","450844.369459","451611.5876","452377.784229","453144.414011","453911.302572","454677.736338","455444.2576","441561.475107","454686.88542","Mapping"
"Mixed","Both","done","46","m160bluff.wav","None","731.361667917","124","450078.188289","442327.873009","443111.821181","443878.252783","444645.111972","445411.554395","446178.377102","446945.30771","450844.369459","451611.5876","452377.784229","453144.414011","453911.302572","454677.736338","455444.2576","456211.093602","455453.475009","Mapping"
"Mixed","Both","done","46","m150done.wav","None","732.475931582","124","450078.188289","456977.802841","443111.821181","443878.252783","444645.111972","445411.554395","446178.377102","446945.30771","450844.369459","451611.5876","452377.784229","453144.414011","453911.302572","454677.736338","455444.2576","456211.093602","456220.314721","Mapping"
"Mixed","Both","done","46","m150greet.wav","space","390.739244642","124","450078.188289","456977.802841","457744.29906","443878.252783","444645.111972","445411.554395","446178.377102","446945.30771","450844.369459","451611.5876","452377.784229","453144.414011","453911.302572","454677.736338","455444.2576","456211.093602","456987.161852","Mapping"
"Mixed","Both","done","46","m150ball.wav","None","734.164949972","124","450078.188289","456977.802841","457744.29906","458510.99346","444645.111972","445411.554395","446178.377102","446945.30771","450844.369459","451611.5876","452377.784229","453144.414011","453911.302572","454677.736338","455444.2576","456211.093602","457753.865218","Mapping"
"Mixed","Both","done","46","m160jolt.wav","None","735.267155804","124","450078.188289","456977.802841","457744.29906","458510.99346","459294.915353","445411.554395","446178.377102","446945.30771","450844.369459","451611.5876","452377.784229","453144.414011","453911.302572","454677.736338","455444.2576","456211.093602","458520.766455","Mapping"
"Mixed","Both","done","46","m150knife.wav","None","720.129680005","124","450078.188289","456977.802841","457744.29906","458510.99346","459294.915353","460061.570178","446178.377102","446945.30771","450844.369459","451611.5876","452377.784229","453144.414011","453911.302572","454677.736338","455444.2576","456211.093602","459304.607035","Mapping"
"Mixed","Both","done","46","m150done.wav","None","721.37812525","124","450078.188289","456977.802841","457744.29906","458510.99346","459294.915353","460061.570178","460828.308171","446945.30771","450844.369459","451611.5876","452377.784229","453144.414011","453911.302572","454677.736338","455444.2576","456211.093602","460071.354922","Mapping"
"Mixed","Both","done","46","m160jaw.wav","space","436.083344684","124","450078.188289","456977.802841","457744.29906","458510.99346","459294.915353","460061.570178","460828.308171","461594.786458","450844.369459","451611.5876","452377.784229","453144.414011","453911.302572","454677.736338","455444.2576","456211.093602","460837.742621","Mapping"
"Mixed","Both","cave","19","m160cad.wav","None","722.461471509","124","464727.928598","456977.802841","457744.29906","458510.99346","459294.915353","460061.570178","460828.308171","461594.786458","450844.369459","451611.5876","452377.784229","453144.414011","453911.302572","454677.736338","455444.2576","456211.093602","461604.776493","Mapping"
"Mixed","Both","cave","19","m160cave.wav","None","722.651613585","124","464727.928598","456977.802841","457744.29906","458510.99346","459294.915353","460061.570178","460828.308171","461594.786458","465494.493145","451611.5876","452377.784229","453144.414011","453911.302572","454677.736338","455444.2576","456211.093602","464738.5376","Mapping"
"Mixed","Both","cave","19","m150knife.wav","space","585.926454281","124","464727.928598","456977.802841","457744.29906","458510.99346","459294.915353","460061.570178","460828.308171","461594.786458","465494.493145","466261.198984","452377.784229","453144.414011","453911.302572","454677.736338","455444.2576","456211.093602","465503.837315","Mapping"
"Mixed","Both","cave","19","m150cling.wav","None","725.658950571","124","464727.928598","456977.802841","457744.29906","458510.99346","459294.915353","460061.570178","460828.308171","461594.786458","465494.493145","466261.198984","467027.60245","453144.414011","453911.302572","454677.736338","455444.2576","456211.093602","466270.558613","Mapping"
"Mixed","Both","cave","19","m150cad.wav","None","726.992418757","124","464727.928598","456977.802841","457744.29906","458510.99346","459294.915353","460061.570178","460828.308171","461594.786458","465494.493145","466261.198984","467027.60245","467794.177818","453911.302572","454677.736338","455444.2576","456211.093602","467036.867472","Mapping"
"Mixed","Both","cave","19","m150cave.wav","None","728.535197733","124","464727.928598","456977.802841","457744.29906","458510.99346","459294.915353","460061.570178","460828.308171","461594.786458","465494.493145","466261.198984","467027.60245","467794.177818","468561.079673","454677.736338","455444.2576","456211.093602","467803.27063","Mapping"
"Mixed","Both","cave","19","m160gnash.wav","space","407.022210769","124","464727.928598","456977.802841","457744.29906","458510.99346","459294.915353","460061.570178","460828.308171","461594.786458","465494.493145","466261.198984","467027.60245","467794.177818","468561.079673","469327.506328","455444.2576","456211.093602","468570.674893","Mapping"
"Mixed","Both","cave","19","m150cave.wav","None","729.896491626","124","464727.928598","456977.802841","457744.29906","458510.99346","459294.915353","460061.570178","460828.308171","461594.786458","465494.493145","466261.198984","467027.60245","467794.177818","468561.079673","469327.506328","470094.163008","456211.093602","469336.469287","Mapping"
"Mixed","Both","cave","19","m160priest.wav","space","562.206613075","124","464727.928598","456977.802841","457744.29906","458510.99346","459294.915353","460061.570178","460828.308171","461594.786458","465494.493145","466261.198984","467027.60245","467794.177818","468561.079673","469327.506328","470094.163008","470860.988498","470103.47688","Mapping"
"Mixed","Both","cave","19","m160ball.wav","None","730.717039783","124","464727.928598","471627.498939","457744.29906","458510.99346","459294.915353","460061.570178","460828.308171","461594.786458","465494.493145","466261.198984","467027.60245","467794.177818","468561.079673","469327.506328","470094.163008","470860.988498","470870.51168","Mapping"
"Mixed","Both","cave","19","m160cave.wav","None","732.168303279","124","464727.928598","471627.498939","472393.975989","458510.99346","459294.915353","460061.570178","460828.308171","461594.786458","465494.493145","466261.198984","467027.60245","467794.177818","468561.079673","469327.506328","470094.163008","470860.988498","471637.125076","Mapping"
"Mixed","Both","cave","19","m150lash.wav","space","502.596289967","124","464727.928598","471627.498939","472393.975989","473160.764687","459294.915353","460061.570178","460828.308171","461594.786458","465494.493145","466261.198984","467027.60245","467794.177818","468561.079673","469327.506328","470094.163008","470860.988498","472403.021806","Mapping"
"Mixed","Both","cave","19","m160ball.wav","None","734.62160019","124","464727.928598","471627.498939","472393.975989","473160.764687","473944.213852","460061.570178","460828.308171","461594.786458","465494.493145","466261.198984","467027.60245","467794.177818","468561.079673","469327.506328","470094.163008","470860.988498","473169.96169","Mapping"
"Mixed","Both","cave","19","m160depth.wav","None","721.640304953","124","464727.928598","471627.498939","472393.975989","473160.764687","473944.213852","474711.336458","460828.308171","461594.786458","465494.493145","466261.198984","467027.60245","467794.177818","468561.079673","469327.506328","470094.163008","470860.988498","473952.990379","Mapping"
"Mixed","Both","cave","19","m150bluff.wav","None","721.463766473","124","464727.928598","471627.498939","472393.975989","473160.764687","473944.213852","474711.336458","475477.544836","461594.786458","465494.493145","466261.198984","467027.60245","467794.177818","468561.079673","469327.506328","470094.163008","470860.988498","474721.163558","Mapping"
"Mixed","Both","cave","19","m150cling.wav","None","723.915208364","124","464727.928598","471627.498939","472393.975989","473160.764687","473944.213852","474711.336458","475477.544836","476243.996224","465494.493145","466261.198984","467027.60245","467794.177818","468561.079673","469327.506328","470094.163008","470860.988498","475486.839229","Mapping"
"Mixed","Both","ball","10","m150knife.wav","None","725.551667216","124","479377.973135","471627.498939","472393.975989","473160.764687","473944.213852","474711.336458","475477.544836","476243.996224","465494.493145","466261.198984","467027.60245","467794.177818","468561.079673","469327.506328","470094.163008","470860.988498","476253.215798","Mapping"
"Mixed","Both","ball","10","m160ball.wav","None","722.932343779","124","479377.973135","471627.498939","472393.975989","473160.764687","473944.213852","474711.336458","475477.544836","476243.996224","480143.942521","466261.198984","467027.60245","467794.177818","468561.079673","469327.506328","470094.163008","470860.988498","479388.107554","Mapping"
"Mixed","Both","ball","10","m150park.wav","space","400.345904054","124","479377.973135","471627.498939","472393.975989","473160.764687","473944.213852","474711.336458","475477.544836","476243.996224","480143.942521","480910.974848","467027.60245","467794.177818","468561.079673","469327.506328","470094.163008","470860.988498","480153.209089","Mapping"
"Mixed","Both","ball","10","m150jolt.wav","None","725.547338719","124","479377.973135","471627.498939","472393.975989","473160.764687","473944.213852","474711.336458","475477.544836","476243.996224","480143.942521","480910.974848","481677.327301","467794.177818","468561.079673","469327.506328","470094.163008","470860.988498","480920.357974","Mapping"
"Mixed","Both","ball","10","m160ball.wav","None","727.505647868","124","479377.973135","471627.498939","472393.975989","473160.764687","473944.213852","474711.336458","475477.544836","476243.996224","480143.942521","480910.974848","481677.327301","482443.888446","468561.079673","469327.506328","470094.163008","470860.988498","481686.456286","Mapping"
"Mixed","Both","ball","10","m160done.wav","space","484.605136677","124","479377.973135","471627.498939","472393.975989","473160.764687","473944.213852","474711.336458","475477.544836","476243.996224","480143.942521","480910.974848","481677.327301","482443.888446","483210.59614","469327.506328","470094.163008","470860.988498","482452.911694","Mapping"
"Mixed","Both","ball","10","m150cling.wav","None","729.655026575","124","479377.973135","471627.498939","472393.975989","473160.764687","473944.213852","474711.336458","475477.544836","476243.996224","480143.942521","480910.974848","481677.327301","482443.888446","483210.59614","483977.524585","470094.163008","470860.988498","483219.363392","Mapping"
"Mixed","Both","ball","10","m150ball.wav","None","731.191931292","124","479377.973135","471627.498939","472393.975989","473160.764687","473944.213852","474711.336458","475477.544836","476243.996224","480143.942521","480910.974848","481677.327301","482443.888446","483210.59614","483977.524585","484743.84983","470860.988498","483986.392936","Mapping"
"Mixed","Both","ball","10","m160greet.wav","space","552.410120727","124","479377.973135","471627.498939","472393.975989","473160.764687","473944.213852","474711.336458","475477.544836","476243.996224","480143.942521","480910.974848","481677.327301","482443.888446","483210.59614","483977.524585","484743.84983","485510.773019","484753.047452","Mapping"
"Mixed","Both","ball","10","m160greet.wav","None","732.375140768","124","479377.973135","486277.252852","472393.975989","473160.764687","473944.213852","474711.336458","475477.544836","476243.996224","480143.942521","480910.974848","481677.327301","482443.888446","483210.59614","483977.524585","484743.84983","485510.773019","485520.091528","Mapping"
"Mixed","Both","ball","10","m160bluff.wav","None","734.245953616","124","479377.973135","486277.252852","487043.714443","473160.764687","473944.213852","474711.336458","475477.544836","476243.996224","480143.942521","480910.974848","481677.327301","482443.888446","483210.59614","483977.524585","484743.84983","485510.773019","486286.276408","Mapping"
"Mixed","Both","ball","10","m150cave.wav","None","736.379564449","124","479377.973135","486277.252852","487043.714443","487827.533381","473944.213852","474711.336458","475477.544836","476243.996224","480143.942521","480910.974848","481677.327301","482443.888446","483210.59614","483977.524585","484743.84983","485510.773019","487052.869708","Mapping"
"Mixed","Both","ball","10","m150ball.wav","None","720.079593768","124","479377.973135","486277.252852","487043.714443","487827.533381","488594.300436","474711.336458","475477.544836","476243.996224","480143.942521","480910.974848","481677.327301","482443.888446","483210.59614","483977.524585","484743.84983","485510.773019","487837.458799","Mapping"
"Mixed","Both","ball","10","m160depth.wav","space","381.70919515","124","479377.973135","486277.252852","487043.714443","487827.533381","488594.300436","489360.916615","475477.544836","476243.996224","480143.942521","480910.974848","481677.327301","482443.888446","483210.59614","483977.524585","484743.84983","485510.773019","488603.690365","Mapping"
"Mixed","Both","ball","10","m160lash.wav","None","722.508156789","124","479377.973135","486277.252852","487043.714443","487827.533381","488594.300436","489360.916615","490127.573295","476243.996224","480143.942521","480910.974848","481677.327301","482443.888446","483210.59614","483977.524585","484743.84983","485510.773019","489370.203588","Mapping"
"Mixed","Both","ball","10","m150dime.wav","None","723.895421193","124","479377.973135","486277.252852","487043.714443","487827.533381","488594.300436","489360.916615","490127.573295","490893.777963","480143.942521","480910.974848","481677.327301","482443.888446","483210.59614","483977.524585","484743.84983","485510.773019","490137.081328","Mapping"
"Mixed","Both","ball","11","m160romp.wav","None","726.074789825","124","494027.586682","486277.252852","487043.714443","487827.533381","488594.300436","489360.916615","490127.573295","490893.777963","480143.942521","480910.974848","481677.327301","482443.888446","483210.59614","483977.524585","484743.84983","485510.773019","490902.903238","Mapping"
"Mixed","Both","ball","11","m160ball.wav","None","723.176900472","124","494027.586682","486277.252852","487043.714443","487827.533381","488594.300436","489360.916615","490127.573295","490893.777963","494793.710965","480910.974848","481677.327301","482443.888446","483210.59614","483977.524585","484743.84983","485510.773019","494037.719556","Mapping"
"Mixed","Both","ball","11","m160lash.wav","space","350.423553144","124","494027.586682","486277.252852","487043.714443","487827.533381","488594.300436","489360.916615","490127.573295","490893.777963","494793.710965","495560.699698","481677.327301","482443.888446","483210.59614","483977.524585","484743.84983","485510.773019","494802.897457","Mapping"
"Mixed","Both","ball","11","m160ball.wav","None","726.054384373","124","494027.586682","486277.252852","487043.714443","487827.533381","488594.300436","489360.916615","490127.573295","490893.777963","494793.710965","495560.699698","496327.173966","482443.888446","483210.59614","483977.524585","484743.84983","485510.773019","495570.089008","Mapping"
"Mixed","Both","ball","11","m160cad.wav","space","360.717506672","124","494027.586682","486277.252852","487043.714443","487827.533381","488594.300436","489360.916615","490127.573295","490893.777963","494793.710965","495560.699698","496327.173966","497093.902375","483210.59614","483977.524585","484743.84983","485510.773019","496336.581826","Mapping"
"Mixed","Both","ball","11","m150romp.wav","None","727.21162322","124","494027.586682","486277.252852","487043.714443","487827.533381","488594.300436","489360.916615","490127.573295","490893.777963","494793.710965","495560.699698","496327.173966","497093.902375","497860.619035","483977.524585","484743.84983","485510.773019","497103.601477","Mapping"
"Mixed","Both","ball","11","m150knife.wav","None","728.78562886","124","494027.586682","486277.252852","487043.714443","487827.533381","488594.300436","489360.916615","490127.573295","490893.777963","494793.710965","495560.699698","496327.173966","497093.902375","497860.619035","498627.040124","484743.84983","485510.773019","497870.17839","Mapping"
"Mixed","Both","ball","11","m150ball.wav","None","731.140917575","124","494027.586682","486277.252852","487043.714443","487827.533381","488594.300436","489360.916615","490127.573295","490893.777963","494793.710965","495560.699698","496327.173966","497093.902375","497860.619035","498627.040124","499393.996394","485510.773019","498635.99288","Mapping"
"Mixed","Both","ball","11","m150bluff.wav","space","389.937865257","124","494027.586682","486277.252852","487043.714443","487827.533381","488594.300436","489360.916615","490127.573295","490893.777963","494793.710965","495560.699698","496327.173966","497093.902375","497860.619035","498627.040124","499393.996394","500160.393678","499403.312121","Mapping"
"Mixed","Both","ball","11","m160lash.wav","None","732.833336864","124","494027.586682","500927.072619","487043.714443","487827.533381","488594.300436","489360.916615","490127.573295","490893.777963","494793.710965","495560.699698","496327.173966","497093.902375","497860.619035","498627.040124","499393.996394","500160.393678","500169.459901","Mapping"
"Mixed","Both","ball","11","m160depth.wav","None","734.377043496","124","494027.586682","500927.072619","501694.048367","487827.533381","488594.300436","489360.916615","490127.573295","490893.777963","494793.710965","495560.699698","496327.173966","497093.902375","497860.619035","498627.040124","499393.996394","500160.393678","500936.17316","Mapping"
"Mixed","Both","ball","11","m150cad.wav","None","736.455930455","124","494027.586682","500927.072619","501694.048367","502477.283583","488594.300436","489360.916615","490127.573295","490893.777963","494793.710965","495560.699698","496327.173966","497093.902375","497860.619035","498627.040124","499393.996394","500160.393678","501703.068832","Mapping"
"Mixed","Both","ball","11","m150ball.wav","None","721.215808822","124","494027.586682","500927.072619","501694.048367","502477.283583","503244.209555","489360.916615","490127.573295","490893.777963","494793.710965","495560.699698","496327.173966","497093.902375","497860.619035","498627.040124","499393.996394","500160.393678","502486.473167","Mapping"
"Mixed","Both","ball","11","m160jolt.wav","space","411.055078439","124","494027.586682","500927.072619","501694.048367","502477.283583","503244.209555","504010.668982","490127.573295","490893.777963","494793.710965","495560.699698","496327.173966","497093.902375","497860.619035","498627.040124","499393.996394","500160.393678","503254.097872","Mapping"
"Mixed","Both","ball","11","m150cad.wav","None","722.88905934","124","494027.586682","500927.072619","501694.048367","502477.283583","503244.209555","504010.668982","504776.961146","490893.777963","494793.710965","495560.699698","496327.173966","497093.902375","497860.619035","498627.040124","499393.996394","500160.393678","504020.224627","Mapping"
"Mixed","Both","ball","11","m150tile.wav","None","725.485813047","124","494027.586682","500927.072619","501694.048367","502477.283583","503244.209555","504010.668982","504776.961146","505543.291957","494793.710965","495560.699698","496327.173966","497093.902375","497860.619035","498627.040124","499393.996394","500160.393678","504786.07189","Mapping"
"Mixed","Both","ball","12","m160bluff.wav","None","729.533830308","124","508677.390681","500927.072619","501694.048367","502477.283583","503244.209555","504010.668982","504776.961146","505543.291957","494793.710965","495560.699698","496327.173966","497093.902375","497860.619035","498627.040124","499393.996394","500160.393678","505552.153197","Mapping"
"Mixed","Both","ball","12","m150cad.wav","None","723.786901101","124","508677.390681","500927.072619","501694.048367","502477.283583","503244.209555","504010.668982","504776.961146","505543.291957","509443.884118","495560.699698","496327.173966","497093.902375","497860.619035","498627.040124","499393.996394","500160.393678","508687.105552","Mapping"
"Mixed","Both","ball","12","m150bluff.wav","None","731.127932202","124","508677.390681","500927.072619","501694.048367","502477.283583","503244.209555","504010.668982","504776.961146","505543.291957","509443.884118","510210.46536","496327.173966","497093.902375","497860.619035","498627.040124","499393.996394","500160.393678","509447.98655","Mapping"
"Mixed","Both","ball","12","m150done.wav","None","727.499773551","124","508677.390681","500927.072619","501694.048367","502477.283583","503244.209555","504010.668982","504776.961146","505543.291957","509443.884118","510210.46536","510976.926642","497093.902375","497860.619035","498627.040124","499393.996394","500160.393678","510219.847249","Mapping"
"Mixed","Both","ball","12","m160bluff.wav","None","729.855371406","124","508677.390681","500927.072619","501694.048367","502477.283583","503244.209555","504010.668982","504776.961146","505543.291957","509443.884118","510210.46536","510976.926642","511743.517777","497860.619035","498627.040124","499393.996394","500160.393678","510986.109424","Mapping"
"Mixed","Both","ball","12","m150gnash.wav","None","731.632195297","124","508677.390681","500927.072619","501694.048367","502477.283583","503244.209555","504010.668982","504776.961146","505543.291957","509443.884118","510210.46536","510976.926642","511743.517777","512510.432927","498627.040124","499393.996394","500160.393678","511752.697467","Mapping"
"Mixed","Both","ball","12","m150ball.wav","None","732.652470004","124","508677.390681","500927.072619","501694.048367","502477.283583","503244.209555","504010.668982","504776.961146","505543.291957","509443.884118","510210.46536","510976.926642","511743.517777","512510.432927","513276.543297","499393.996394","500160.393678","512519.908497","Mapping"
"Mixed","Both","ball","12","m150cad.wav","space","371.28446094","124","508677.390681","500927.072619","501694.048367","502477.283583","503244.209555","504010.668982","504776.961146","505543.291957","509443.884118","510210.46536","510976.926642","511743.517777","512510.432927","513276.543297","514043.365385","500160.393678","513285.801208","Mapping"
"Mixed","Both","ball","12","m150ball.wav","None","735.233765037","124","508677.390681","500927.072619","501694.048367","502477.283583","503244.209555","504010.668982","504776.961146","505543.291957","509443.884118","510210.46536","510976.926642","511743.517777","512510.432927","513276.543297","514043.365385","514826.895864","514052.465308","Mapping"
"Mixed","Both","ball","12","m160jaw.wav","space","340.949529491","124","508677.390681","515594.075048","501694.048367","502477.283583","503244.209555","504010.668982","504776.961146","505543.291957","509443.884118","510210.46536","510976.926642","511743.517777","512510.432927","513276.543297","514043.365385","514826.895864","514836.052365","Mapping"
"Mixed","Both","ball","12","m150cave.wav","None","719.19257316","124","508677.390681","515594.075048","516360.349899","502477.283583","503244.209555","504010.668982","504776.961146","505543.291957","509443.884118","510210.46536","510976.926642","511743.517777","512510.432927","513276.543297","514043.365385","514826.895864","515604.090127","Mapping"
"Mixed","Both","ball","12","m160cling.wav","None","722.074385441","124","508677.390681","515594.075048","516360.349899","517127.066868","503244.209555","504010.668982","504776.961146","505543.291957","509443.884118","510210.46536","510976.926642","511743.517777","512510.432927","513276.543297","514043.365385","514826.895864","516369.589259","Mapping"
"Mixed","Both","ball","12","m160ball.wav","None","723.085384932","124","508677.390681","515594.075048","516360.349899","517127.066868","517893.495996","504010.668982","504776.961146","505543.291957","509443.884118","510210.46536","510976.926642","511743.517777","512510.432927","513276.543297","514043.365385","514826.895864","517136.667344","Mapping"
"Mixed","Both","ball","12","m160gnash.wav","space","378.338578448","124","508677.390681","515594.075048","516360.349899","517127.066868","517893.495996","518660.150821","504776.961146","505543.291957","509443.884118","510210.46536","510976.926642","511743.517777","512510.432927","513276.543297","514043.365385","514826.895864","517902.660846","Mapping"
"Mixed","Both","ball","12","m160ball.wav","None","725.828996394","124","508677.390681","515594.075048","516360.349899","517127.066868","517893.495996","518660.150821","519426.763599","505543.291957","509443.884118","510210.46536","510976.926642","511743.517777","512510.432927","513276.543297","514043.365385","514826.895864","518668.988565","Mapping"
"Mixed","Both","ball","12","m160park.wav","space","445.231189602","124","508677.390681","515594.075048","516360.349899","517127.066868","517893.495996","518660.150821","519426.763599","520193.733782","509443.884118","510210.46536","510976.926642","511743.517777","512510.432927","513276.543297","514043.365385","514826.895864","519435.742635","Mapping"
"Mixed","Both","cave","16","m150knife.wav","None","731.972596026","124","523327.29207","515594.075048","516360.349899","517127.066868","517893.495996","518660.150821","519426.763599","520193.733782","509443.884118","510210.46536","510976.926642","511743.517777","512510.432927","513276.543297","514043.365385","514826.895864","520197.830649","Mapping"
"Mixed","Both","cave","16","m160cave.wav","None","723.094969348","124","523327.29207","515594.075048","516360.349899","517127.066868","517893.495996","518660.150821","519426.763599","520193.733782","524093.459637","510210.46536","510976.926642","511743.517777","512510.432927","513276.543297","514043.365385","514826.895864","523337.086398","Mapping"
"Mixed","Both","cave","16","m150knife.wav","space","393.586738617","124","523327.29207","515594.075048","516360.349899","517127.066868","517893.495996","518660.150821","519426.763599","520193.733782","524093.459637","524860.314189","510976.926642","511743.517777","512510.432927","513276.543297","514043.365385","514826.895864","524103.288284","Mapping"
"Mixed","Both","cave","16","m160done.wav","None","725.224560942","124","523327.29207","515594.075048","516360.349899","517127.066868","517893.495996","518660.150821","519426.763599","520193.733782","524093.459637","524860.314189","525626.739607","511743.517777","512510.432927","513276.543297","514043.365385","514826.895864","524870.225694","Mapping"
"Mixed","Both","cave","16","m150cave.wav","None","727.060437028","124","523327.29207","515594.075048","516360.349899","517127.066868","517893.495996","518660.150821","519426.763599","520193.733782","524093.459637","524860.314189","525626.739607","526393.767915","512510.432927","513276.543297","514043.365385","514826.895864","525636.453241","Mapping"
"Mixed","Both","cave","16","m160reek.wav","space","462.762600917","124","523327.29207","515594.075048","516360.349899","517127.066868","517893.495996","518660.150821","519426.763599","520193.733782","524093.459637","524860.314189","525626.739607","526393.767915","527160.023287","513276.543297","514043.365385","514826.895864","526410.098803","Mapping"
"Mixed","Both","cave","16","m150gnash.wav","None","729.290819436","124","523327.29207","515594.075048","516360.349899","517127.066868","517893.495996","518660.150821","519426.763599","520193.733782","524093.459637","524860.314189","525626.739607","526393.767915","527160.023287","527926.643794","514043.365385","514826.895864","527169.07838","Mapping"
"Mixed","Both","cave","16","m150cave.wav","None","730.846274586","124","523327.29207","515594.075048","516360.349899","517127.066868","517893.495996","518660.150821","519426.763599","520193.733782","524093.459637","524860.314189","525626.739607","526393.767915","527160.023287","527926.643794","528693.278214","514826.895864","527935.741243","Mapping"
"Mixed","Both","cave","16","m160dime.wav","space","418.170103279","124","523327.29207","515594.075048","516360.349899","517127.066868","517893.495996","518660.150821","519426.763599","520193.733782","524093.459637","524860.314189","525626.739607","526393.767915","527160.023287","527926.643794","528693.278214","529460.190272","528702.665359","Mapping"
"Mixed","Both","cave","16","m160priest.wav","None","732.315779314","124","523327.29207","530226.628057","516360.349899","517127.066868","517893.495996","518660.150821","519426.763599","520193.733782","524093.459637","524860.314189","525626.739607","526393.767915","527160.023287","527926.643794","528693.278214","529460.190272","529469.591331","Mapping"
"Mixed","Both","cave","16","m150greet.wav","None","733.904625347","124","523327.29207","530226.628057","530993.041108","517127.066868","517893.495996","518660.150821","519426.763599","520193.733782","524093.459637","524860.314189","525626.739607","526393.767915","527160.023287","527926.643794","528693.278214","529460.190272","530236.112283","Mapping"
"Mixed","Both","cave","16","m160priest.wav","None","736.028342624","124","523327.29207","530226.628057","530993.041108","531776.938576","517893.495996","518660.150821","519426.763599","520193.733782","524093.459637","524860.314189","525626.739607","526393.767915","527160.023287","527926.643794","528693.278214","529460.190272","531002.10393","Mapping"
"Mixed","Both","cave","16","m150tile.wav","None","719.243586878","124","523327.29207","530226.628057","530993.041108","531776.938576","532543.693574","518660.150821","519426.763599","520193.733782","524093.459637","524860.314189","525626.739607","526393.767915","527160.023287","527926.643794","528693.278214","529460.190272","531787.120608","Mapping"
"Mixed","Both","cave","16","m160reek.wav","None","721.939276322","124","523327.29207","530226.628057","530993.041108","531776.938576","532543.693574","533310.332322","519426.763599","520193.733782","524093.459637","524860.314189","525626.739607","526393.767915","527160.023287","527926.643794","528693.278214","529460.190272","532553.027232","Mapping"
"Mixed","Both","cave","16","m160cave.wav","None","723.712080973","124","523327.29207","530226.628057","530993.041108","531776.938576","532543.693574","533310.332322","534076.440837","520193.733782","524093.459637","524860.314189","525626.739607","526393.767915","527160.023287","527926.643794","528693.278214","529460.190272","533319.504282","Mapping"
"Mixed","Both","cave","16","m150priest.wav","space","427.371744474","124","523327.29207","530226.628057","530993.041108","531776.938576","532543.693574","533310.332322","534076.440837","534843.418131","524093.459637","524860.314189","525626.739607","526393.767915","527160.023287","527926.643794","528693.278214","529460.190272","534085.354946","Mapping"
"Mixed","Both","cave","24","m160knife.wav","None","725.348848908","124","537976.579439","530226.628057","530993.041108","531776.938576","532543.693574","533310.332322","534076.440837","534843.418131","524093.459637","524860.314189","525626.739607","526393.767915","527160.023287","527926.643794","528693.278214","529460.190272","534852.74406","Mapping"
"Mixed","Both","cave","24","m150cave.wav","None","724.844585871","124","537976.579439","530226.628057","530993.041108","531776.938576","532543.693574","533310.332322","534076.440837","534843.418131","538743.421933","524860.314189","525626.739607","526393.767915","527160.023287","527926.643794","528693.278214","529460.190272","537985.894857","Mapping"
"Mixed","Both","cave","24","m150greet.wav","space","559.585434559","124","537976.579439","530226.628057","530993.041108","531776.938576","532543.693574","533310.332322","534076.440837","534843.418131","538743.421933","539509.980606","525626.739607","526393.767915","527160.023287","527926.643794","528693.278214","529460.190272","538753.071568","Mapping"
"Mixed","Both","cave","24","m160cad.wav","None","726.502996054","124","537976.579439","530226.628057","530993.041108","531776.938576","532543.693574","533310.332322","534076.440837","534843.418131","538743.421933","539509.980606","540276.383145","526393.767915","527160.023287","527926.643794","528693.278214","529460.190272","539519.259849","Mapping"
"Mixed","Both","cave","24","m150bluff.wav","None","728.401016211","124","537976.579439","530226.628057","530993.041108","531776.938576","532543.693574","533310.332322","534076.440837","534843.418131","538743.421933","539509.980606","540276.383145","541043.147108","527160.023287","527926.643794","528693.278214","529460.190272","540285.557888","Mapping"
"Mixed","Both","cave","24","m150park.wav","None","730.307074904","124","537976.579439","530226.628057","530993.041108","531776.938576","532543.693574","533310.332322","534076.440837","534843.418131","538743.421933","539509.980606","540276.383145","541043.147108","541810.015264","527926.643794","528693.278214","529460.190272","541052.464072","Mapping"
"Mixed","Both","cave","24","m160knife.wav","None","731.775652093","124","537976.579439","530226.628057","530993.041108","531776.938576","532543.693574","533310.332322","534076.440837","534843.418131","538743.421933","539509.980606","540276.383145","541043.147108","541810.015264","542576.254868","528693.278214","529460.190272","541819.511857","Mapping"
"Mixed","Both","cave","24","m160cave.wav","None","734.21720037","124","537976.579439","530226.628057","530993.041108","531776.938576","532543.693574","533310.332322","534076.440837","534843.418131","538743.421933","539509.980606","540276.383145","541043.147108","541810.015264","542576.254868","543342.759744","529460.190272","542585.577706","Mapping"
"Mixed","Both","cave","24","m150knife.wav","space","424.76571555","124","537976.579439","530226.628057","530993.041108","531776.938576","532543.693574","533310.332322","534076.440837","534843.418131","538743.421933","539509.980606","540276.383145","541043.147108","541810.015264","542576.254868","543342.759744","544109.877712","543351.842972","Mapping"
"Mixed","Both","cave","24","m160romp.wav","None","736.416974571","124","537976.579439","544893.537116","530993.041108","531776.938576","532543.693574","533310.332322","534076.440837","534843.418131","538743.421933","539509.980606","540276.383145","541043.147108","541810.015264","542576.254868","543342.759744","544109.877712","544118.998659","Mapping"
"Mixed","Both","cave","24","m160park.wav","None","720.445346844","124","537976.579439","544893.537116","545660.286858","531776.938576","532543.693574","533310.332322","534076.440837","534843.418131","538743.421933","539509.980606","540276.383145","541043.147108","541810.015264","542576.254868","543342.759744","544109.877712","544903.133573","Mapping"
"Mixed","Both","cave","24","m160cave.wav","None","722.765698854","124","537976.579439","544893.537116","545660.286858","546426.283451","532543.693574","533310.332322","534076.440837","534843.418131","538743.421933","539509.980606","540276.383145","541043.147108","541810.015264","542576.254868","543342.759744","544109.877712","545669.560228","Mapping"
"Mixed","Both","cave","24","m150depth.wav","space","461.356476822","124","537976.579439","544893.537116","545660.286858","546426.283451","547193.230137","533310.332322","534076.440837","534843.418131","538743.421933","539509.980606","540276.383145","541043.147108","541810.015264","542576.254868","543342.759744","544109.877712","546435.209","Mapping"
"Mixed","Both","cave","24","m150cave.wav","None","724.390718213","124","537976.579439","544893.537116","545660.286858","546426.283451","547193.230137","547959.568986","534076.440837","534843.418131","538743.421933","539509.980606","540276.383145","541043.147108","541810.015264","542576.254868","543342.759744","544109.877712","547202.927694","Mapping"
