"Condition","Talker","Target","Trial","current_stimulus","response_response","response_time_response","subject_nr","time_Audio1","time_Audio10","time_Audio11","time_Audio12","time_Audio13","time_Audio14","time_Audio15","time_Audio16","time_Audio2","time_Audio3","time_Audio4","time_Audio5","time_Audio6","time_Audio7","time_Audio8","time_Audio9","time_response","title"
"Mixed","Both","done","47","m160tile.wav","NA","NA","116","330174.158729","NA","NA","NA","NA","NA","NA","NA","NA","NA","NA","NA","NA","NA","NA","NA","NA","Mapping"
"Mixed","Both","done","47","m150done.wav","None","717.594451911","116","330174.158729","NA","NA","NA","NA","NA","NA","NA","330940.928258","NA","NA","NA","NA","NA","NA","NA","330188.045596","Mapping"
"Mixed","Both","done","47","m150jaw.wav","space","524.328759697","116","330174.158729","NA","NA","NA","NA","NA","NA","NA","330940.928258","331707.323068","NA","NA","NA","NA","NA","NA","330950.357143","Mapping"
"Mixed","Both","done","47","m160done.wav","None","719.796081132","116","330174.158729","NA","NA","NA","NA","NA","NA","NA","330940.928258","331707.323068","332456.889529","NA","NA","NA","NA","NA","331717.068547","Mapping"
"Mixed","Both","done","47","m160jolt.wav","space","416.119041911","116","330174.158729","NA","NA","NA","NA","NA","NA","NA","330940.928258","331707.323068","332456.889529","333223.802824","NA","NA","NA","NA","332466.546583","Mapping"
"Mixed","Both","done","47","m160tile.wav","None","733.295552258","116","330174.158729","NA","NA","NA","NA","NA","NA","NA","330940.928258","331707.323068","332456.889529","333223.802824","333990.570807","NA","NA","NA","333233.013431","Mapping"
"Mixed","Both","done","47","m150cad.wav","None","731.111236848","116","330174.158729","NA","NA","NA","NA","NA","NA","NA","330940.928258","331707.323068","332456.889529","333223.802824","333990.570807","334756.997152","NA","NA","334000.090897","Mapping"
"Mixed","Both","done","47","m160done.wav","None","729.164676392","116","330174.158729","NA","NA","NA","NA","NA","NA","NA","330940.928258","331707.323068","332456.889529","333223.802824","333990.570807","334756.997152","335523.556443","NA","334766.91886","Mapping"
"Mixed","Both","done","47","m160cave.wav","space","461.547855637","116","330174.158729","NA","NA","NA","NA","NA","NA","NA","330940.928258","331707.323068","332456.889529","333223.802824","333990.570807","334756.997152","335523.556443","336290.219616","335533.086118","Mapping"
"Mixed","Both","done","47","m150cave.wav","None","726.009554113","116","330174.158729","337057.288116","NA","NA","NA","NA","NA","NA","330940.928258","331707.323068","332456.889529","333223.802824","333990.570807","334756.997152","335523.556443","336290.219616","336299.549255","Mapping"
"Mixed","Both","done","47","m160depth.wav","None","723.959111085","116","330174.158729","337057.288116","337823.833184","NA","NA","NA","NA","NA","330940.928258","331707.323068","332456.889529","333223.802824","333990.570807","334756.997152","335523.556443","336290.219616","337066.435343","Mapping"
"Mixed","Both","done","47","m150depth.wav","None","721.893518581","116","330174.158729","337057.288116","337823.833184","338590.434523","NA","NA","NA","NA","330940.928258","331707.323068","332456.889529","333223.802824","333990.570807","334756.997152","335523.556443","336290.219616","337833.197451","Mapping"
"Mixed","Both","done","47","m150ball.wav","None","720.229234081","116","330174.158729","337057.288116","337823.833184","338590.434523","339340.342621","NA","NA","NA","330940.928258","331707.323068","332456.889529","333223.802824","333990.570807","334756.997152","335523.556443","336290.219616","338599.532281","Mapping"
"Mixed","Both","done","47","m160priest.wav","None","735.235001717","116","330174.158729","337057.288116","337823.833184","338590.434523","339340.342621","340107.276939","NA","NA","330940.928258","331707.323068","332456.889529","333223.802824","333990.570807","334756.997152","335523.556443","336290.219616","339349.471915","Mapping"
"Mixed","Both","done","47","m150done.wav","None","733.307610091","116","330174.158729","337057.288116","337823.833184","338590.434523","339340.342621","340107.276939","340873.849215","NA","330940.928258","331707.323068","332456.889529","333223.802824","333990.570807","334756.997152","335523.556443","336290.219616","340116.235879","Mapping"
"Mixed","Both","done","47","m150reek.wav","space","487.126451917","116","330174.158729","337057.288116","337823.833184","338590.434523","339340.342621","340107.276939","340873.849215","341640.378207","330940.928258","331707.323068","332456.889529","333223.802824","333990.570807","334756.997152","335523.556443","336290.219616","340883.462986","Mapping"
"Mixed","Both","tile","32","m150lash.wav","None","729.559491738","116","344806.663816","337057.288116","337823.833184","338590.434523","339340.342621","340107.276939","340873.849215","341640.378207","330940.928258","331707.323068","332456.889529","333223.802824","333990.570807","334756.997152","335523.556443","336290.219616","341649.744019","Mapping"
"Mixed","Both","tile","32","m160greet.wav","None","726.479807985","116","344806.663816","337057.288116","337823.833184","338590.434523","339340.342621","340107.276939","340873.849215","341640.378207","345574.180928","331707.323068","332456.889529","333223.802824","333990.570807","334756.997152","335523.556443","336290.219616","344815.357175","Mapping"
"Mixed","Both","tile","32","m160jaw.wav","None","723.177828011","116","344806.663816","337057.288116","337823.833184","338590.434523","339340.342621","340107.276939","340873.849215","341640.378207","345574.180928","346340.700644","332456.889529","333223.802824","333990.570807","334756.997152","335523.556443","336290.219616","345583.981749","Mapping"
"Mixed","Both","tile","32","m160tile.wav","None","721.748206706","116","344806.663816","337057.288116","337823.833184","338590.434523","339340.342621","340107.276939","340873.849215","341640.378207","345574.180928","346340.700644","347107.761106","333223.802824","333990.570807","334756.997152","335523.556443","336290.219616","346350.199093","Mapping"
"Mixed","Both","tile","32","m150priest.wav","space","429.09013445","116","344806.663816","337057.288116","337823.833184","338590.434523","339340.342621","340107.276939","340873.849215","341640.378207","345574.180928","346340.700644","347107.761106","347857.00046","333990.570807","334756.997152","335523.556443","336290.219616","347117.357563","Mapping"
"Mixed","Both","tile","32","m150tile.wav","None","735.762762022","116","344806.663816","337057.288116","337823.833184","338590.434523","339340.342621","340107.276939","340873.849215","341640.378207","345574.180928","346340.700644","347107.761106","347857.00046","348623.707845","334756.997152","335523.556443","336290.219616","347866.240439","Mapping"
"Mixed","Both","tile","32","m150depth.wav","space","601.498628967","116","344806.663816","337057.288116","337823.833184","338590.434523","339340.342621","340107.276939","340873.849215","341640.378207","345574.180928","346340.700644","347107.761106","347857.00046","348623.707845","349390.233127","335523.556443","336290.219616","348632.931438","Mapping"
"Mixed","Both","tile","32","m150park.wav","None","731.963011669","116","344806.663816","337057.288116","337823.833184","338590.434523","339340.342621","340107.276939","340873.849215","341640.378207","345574.180928","346340.700644","347107.761106","347857.00046","348623.707845","349390.233127","350156.881768","336290.219616","349399.622127","Mapping"
"Mixed","Both","tile","32","m160romp.wav","None","730.61439395","116","344806.663816","337057.288116","337823.833184","338590.434523","339340.342621","340107.276939","340873.849215","341640.378207","345574.180928","346340.700644","347107.761106","347857.00046","348623.707845","349390.233127","350156.881768","350923.570912","350166.197804","Mapping"
"Mixed","Both","tile","32","m160tile.wav","None","729.456845962","116","344806.663816","351690.223264","337823.833184","338590.434523","339340.342621","340107.276939","340873.849215","341640.378207","345574.180928","346340.700644","347107.761106","347857.00046","348623.707845","349390.233127","350156.881768","350923.570912","350932.495533","Mapping"
"Mixed","Both","tile","32","m160gnash.wav","space","439.144168864","116","344806.663816","351690.223264","352457.171496","338590.434523","339340.342621","340107.276939","340873.849215","341640.378207","345574.180928","346340.700644","347107.761106","347857.00046","348623.707845","349390.233127","350156.881768","350923.570912","351699.270936","Mapping"
"Mixed","Both","tile","32","m160priest.wav","None","724.723389605","116","344806.663816","351690.223264","352457.171496","353224.13735","339340.342621","340107.276939","340873.849215","341640.378207","345574.180928","346340.700644","347107.761106","347857.00046","348623.707845","349390.233127","350156.881768","350923.570912","352466.571008","Mapping"
"Mixed","Both","tile","32","m150greet.wav","None","722.322652291","116","344806.663816","351690.223264","352457.171496","353224.13735","353990.691385","340107.276939","340873.849215","341640.378207","345574.180928","346340.700644","347107.761106","347857.00046","348623.707845","349390.233127","350156.881768","350923.570912","353233.986402","Mapping"
"Mixed","Both","tile","32","m150jolt.wav","None","720.827486075","116","344806.663816","351690.223264","352457.171496","353224.13735","353990.691385","354757.394441","340873.849215","341640.378207","345574.180928","346340.700644","347107.761106","347857.00046","348623.707845","349390.233127","350156.881768","350923.570912","354000.30701","Mapping"
"Mixed","Both","tile","32","m150tile.wav","None","718.904113688","116","344806.663816","351690.223264","352457.171496","353224.13735","353990.691385","354757.394441","355506.686664","341640.378207","345574.180928","346340.700644","347107.761106","347857.00046","348623.707845","349390.233127","350156.881768","350923.570912","354767.169291","Mapping"
"Mixed","Both","tile","32","m160ball.wav","space","430.562112597","116","344806.663816","351690.223264","352457.171496","353224.13735","353990.691385","354757.394441","355506.686664","356273.654064","345574.180928","346340.700644","347107.761106","347857.00046","348623.707845","349390.233127","350156.881768","350923.570912","355515.802046","Mapping"
"Mixed","Both","ball","1","m160lash.wav","None","732.089154713","116","359407.302323","351690.223264","352457.171496","353224.13735","353990.691385","354757.394441","355506.686664","356273.654064","345574.180928","346340.700644","347107.761106","347857.00046","348623.707845","349390.233127","350156.881768","350923.570912","356283.474054","Mapping"
"Mixed","Both","ball","1","m150jaw.wav","None","720.576436666","116","359407.302323","351690.223264","352457.171496","353224.13735","353990.691385","354757.394441","355506.686664","356273.654064","360173.946018","346340.700644","347107.761106","347857.00046","348623.707845","349390.233127","350156.881768","350923.570912","359417.086448","Mapping"
"Mixed","Both","ball","1","m160ball.wav","None","719.173095131","116","359407.302323","351690.223264","352457.171496","353224.13735","353990.691385","354757.394441","355506.686664","356273.654064","360173.946018","360923.275032","347107.761106","347857.00046","348623.707845","349390.233127","350156.881768","350923.570912","360183.791978","Mapping"
"Mixed","Both","ball","1","m160jolt.wav","space","413.829298108","116","359407.302323","351690.223264","352457.171496","353224.13735","353990.691385","354757.394441","355506.686664","356273.654064","360173.946018","360923.275032","361690.128657","347857.00046","348623.707845","349390.233127","350156.881768","350923.570912","360932.427515","Mapping"
"Mixed","Both","ball","1","m150cave.wav","None","733.021623921","116","359407.302323","351690.223264","352457.171496","353224.13735","353990.691385","354757.394441","355506.686664","356273.654064","360173.946018","360923.275032","361690.128657","362456.947035","348623.707845","349390.233127","350156.881768","350923.570912","361699.560633","Mapping"
"Mixed","Both","ball","1","m160ball.wav","None","730.820922297","116","359407.302323","351690.223264","352457.171496","353224.13735","353990.691385","354757.394441","355506.686664","356273.654064","360173.946018","360923.275032","361690.128657","362456.947035","363223.513746","349390.233127","350156.881768","350923.570912","362466.640882","Mapping"
"Mixed","Both","ball","1","m160romp.wav","space","481.392198824","116","359407.302323","351690.223264","352457.171496","353224.13735","353990.691385","354757.394441","355506.686664","356273.654064","360173.946018","360923.275032","361690.128657","362456.947035","363223.513746","363989.893406","350156.881768","350923.570912","363232.805975","Mapping"
"Mixed","Both","ball","1","m150ball.wav","None","728.521594137","116","359407.302323","351690.223264","352457.171496","353224.13735","353990.691385","354757.394441","355506.686664","356273.654064","360173.946018","360923.275032","361690.128657","362456.947035","363223.513746","363989.893406","364756.675302","350923.570912","363998.728676","Mapping"
"Mixed","Both","ball","1","m160done.wav","space","540.270706697","116","359407.302323","351690.223264","352457.171496","353224.13735","353990.691385","354757.394441","355506.686664","356273.654064","360173.946018","360923.275032","361690.128657","362456.947035","363223.513746","363989.893406","364756.675302","365523.788014","364765.920846","Mapping"
"Mixed","Both","ball","1","m150knife.wav","None","723.67374337","116","359407.302323","366290.2292","352457.171496","353224.13735","353990.691385","354757.394441","355506.686664","356273.654064","360173.946018","360923.275032","361690.128657","362456.947035","363223.513746","363989.893406","364756.675302","365523.788014","365533.293574","Mapping"
"Mixed","Both","ball","1","m150ball.wav","None","722.200837685","116","359407.302323","366290.2292","367057.329545","353224.13735","353990.691385","354757.394441","355506.686664","356273.654064","360173.946018","360923.275032","361690.128657","362456.947035","363223.513746","363989.893406","364756.675302","365523.788014","366299.658393","Mapping"
"Mixed","Both","ball","1","m150gnash.wav","space","494.817159022","116","359407.302323","366290.2292","367057.329545","367806.503046","353990.691385","354757.394441","355506.686664","356273.654064","360173.946018","360923.275032","361690.128657","362456.947035","363223.513746","363989.893406","364756.675302","365523.788014","367067.352971","Mapping"
"Mixed","Both","ball","1","m160bluff.wav","None","735.74606661","116","359407.302323","366290.2292","367057.329545","367806.503046","368573.271956","354757.394441","355506.686664","356273.654064","360173.946018","360923.275032","361690.128657","362456.947035","363223.513746","363989.893406","364756.675302","365523.788014","367815.902558","Mapping"
"Mixed","Both","ball","1","m150cling.wav","None","733.998923446","116","359407.302323","366290.2292","367057.329545","367806.503046","368573.271956","369339.909468","355506.686664","356273.654064","360173.946018","360923.275032","361690.128657","362456.947035","363223.513746","363989.893406","364756.675302","365523.788014","368582.609016","Mapping"
"Mixed","Both","ball","1","m150tile.wav","None","732.63701133","116","359407.302323","366290.2292","367057.329545","367806.503046","368573.271956","369339.909468","370106.739595","356273.654064","360173.946018","360923.275032","361690.128657","362456.947035","363223.513746","363989.893406","364756.675302","365523.788014","369348.923749","Mapping"
"Mixed","Both","ball","1","m160dime.wav","None","730.594297638","116","359407.302323","366290.2292","367057.329545","367806.503046","368573.271956","369339.909468","370106.739595","370873.499539","360173.946018","360923.275032","361690.128657","362456.947035","363223.513746","363989.893406","364756.675302","365523.788014","370116.025022","Mapping"
"Mixed","Both","done","38","m160romp.wav","None","728.557149123","116","374007.221381","366290.2292","367057.329545","367806.503046","368573.271956","369339.909468","370106.739595","370873.499539","360173.946018","360923.275032","361690.128657","362456.947035","363223.513746","363989.893406","364756.675302","365523.788014","370883.021485","Mapping"
"Mixed","Both","done","38","m160done.wav","None","721.523127926","116","374007.221381","366290.2292","367057.329545","367806.503046","368573.271956","369339.909468","370106.739595","370873.499539","374773.74759","360923.275032","361690.128657","362456.947035","363223.513746","363989.893406","364756.675302","365523.788014","374016.960985","Mapping"
"Mixed","Both","done","38","m150romp.wav","space","432.043675159","116","374007.221381","366290.2292","367057.329545","367806.503046","368573.271956","369339.909468","370106.739595","370873.499539","374773.74759","375523.926524","361690.128657","362456.947035","363223.513746","363989.893406","364756.675302","365523.788014","374777.995333","Mapping"
"Mixed","Both","done","38","m160cling.wav","None","735.435346549","116","374007.221381","366290.2292","367057.329545","367806.503046","368573.271956","369339.909468","370106.739595","370873.499539","374773.74759","375523.926524","376289.709478","362456.947035","363223.513746","363989.893406","364756.675302","365523.788014","375532.933076","Mapping"
"Mixed","Both","done","38","m150gnash.wav","None","734.560074518","116","374007.221381","366290.2292","367057.329545","367806.503046","368573.271956","369339.909468","370106.739595","370873.499539","374773.74759","375523.926524","376289.709478","377056.348845","363223.513746","363989.893406","364756.675302","365523.788014","376298.717577","Mapping"
"Mixed","Both","done","38","m160tile.wav","None","733.316885249","116","374007.221381","366290.2292","367057.329545","367806.503046","368573.271956","369339.909468","370106.739595","370873.499539","374773.74759","375523.926524","376289.709478","377056.348845","377822.950492","363989.893406","364756.675302","365523.788014","377065.297273","Mapping"
"Mixed","Both","done","38","m160park.wav","None","732.379778405","116","374007.221381","366290.2292","367057.329545","367806.503046","368573.271956","369339.909468","370106.739595","370873.499539","374773.74759","375523.926524","376289.709478","377056.348845","377822.950492","378590.260767","364756.675302","365523.788014","377831.851616","Mapping"
"Mixed","Both","done","38","m150bluff.wav","None","729.744687094","116","374007.221381","366290.2292","367057.329545","367806.503046","368573.271956","369339.909468","370106.739595","370873.499539","374773.74759","375523.926524","376289.709478","377056.348845","377822.950492","378590.260767","379356.716175","365523.788014","378599.466118","Mapping"
"Mixed","Both","done","38","m150done.wav","None","727.993524633","116","374007.221381","366290.2292","367057.329545","367806.503046","368573.271956","369339.909468","370106.739595","370873.499539","374773.74759","375523.926524","376289.709478","377056.348845","377822.950492","378590.260767","379356.716175","380123.281958","379366.201638","Mapping"
"Mixed","Both","done","38","m150cling.wav","space","389.397119696","116","374007.221381","380890.28615","367057.329545","367806.503046","368573.271956","369339.909468","370106.739595","370873.499539","374773.74759","375523.926524","376289.709478","377056.348845","377822.950492","378590.260767","379356.716175","380123.281958","380132.581298","Mapping"
"Mixed","Both","done","38","m160done.wav","None","723.282638064","116","374007.221381","380890.28615","381656.691163","367806.503046","368573.271956","369339.909468","370106.739595","370873.499539","374773.74759","375523.926524","376289.709478","377056.348845","377822.950492","378590.260767","379356.716175","380123.281958","380900.430463","Mapping"
"Mixed","Both","done","38","m160ball.wav","space","527.725037828","116","374007.221381","380890.28615","381656.691163","382423.519744","368573.271956","369339.909468","370106.739595","370873.499539","374773.74759","375523.926524","376289.709478","377056.348845","377822.950492","378590.260767","379356.716175","380123.281958","381666.226403","Mapping"
"Mixed","Both","done","38","m160reek.wav","None","719.484742731","116","374007.221381","380890.28615","381656.691163","382423.519744","383173.390741","369339.909468","370106.739595","370873.499539","374773.74759","375523.926524","376289.709478","377056.348845","377822.950492","378590.260767","379356.716175","380123.281958","382433.720327","Mapping"
"Mixed","Both","done","38","m150ball.wav","None","735.522533651","116","374007.221381","380890.28615","381656.691163","382423.519744","383173.390741","383939.619833","370106.739595","370873.499539","374773.74759","375523.926524","376289.709478","377056.348845","377822.950492","378590.260767","379356.716175","380123.281958","383182.996782","Mapping"
"Mixed","Both","done","38","m150done.wav","None","734.771858843","116","374007.221381","380890.28615","381656.691163","382423.519744","383173.390741","383939.619833","384706.694208","370873.499539","374773.74759","375523.926524","376289.709478","377056.348845","377822.950492","378590.260767","379356.716175","380123.281958","383948.977917","Mapping"
"Mixed","Both","done","38","m150reek.wav","space","429.927687219","116","374007.221381","380890.28615","381656.691163","382423.519744","383173.390741","383939.619833","384706.694208","385473.201866","374773.74759","375523.926524","376289.709478","377056.348845","377822.950492","378590.260767","379356.716175","380123.281958","384715.978708","Mapping"
"Mixed","Both","tile","27","m160bluff.wav","None","730.864206678","116","388607.024808","380890.28615","381656.691163","382423.519744","383173.390741","383939.619833","384706.694208","385473.201866","374773.74759","375523.926524","376289.709478","377056.348845","377822.950492","378590.260767","379356.716175","380123.281958","385482.466579","Mapping"
"Mixed","Both","tile","27","m160jolt.wav","None","722.21475048","116","388607.024808","380890.28615","381656.691163","382423.519744","383173.390741","383939.619833","384706.694208","385473.201866","389373.462593","375523.926524","376289.709478","377056.348845","377822.950492","378590.260767","379356.716175","380123.281958","388616.603023","Mapping"
"Mixed","Both","tile","27","m150tile.wav","None","720.367744099","116","388607.024808","380890.28615","381656.691163","382423.519744","383173.390741","383939.619833","384706.694208","385473.201866","389373.462593","390139.798969","376289.709478","377056.348845","377822.950492","378590.260767","379356.716175","380123.281958","389383.600413","Mapping"
"Mixed","Both","tile","27","m150jolt.wav","space","428.429120162","116","388607.024808","380890.28615","381656.691163","382423.519744","383173.390741","383939.619833","384706.694208","385473.201866","389373.462593","390139.798969","390889.54846","377056.348845","377822.950492","378590.260767","379356.716175","380123.281958","390149.376566","Mapping"
"Mixed","Both","tile","27","m160dime.wav","None","734.610160755","116","388607.024808","380890.28615","381656.691163","382423.519744","383173.390741","383939.619833","384706.694208","385473.201866","389373.462593","390139.798969","390889.54846","391656.426819","377822.950492","378590.260767","379356.716175","380123.281958","390899.082464","Mapping"
"Mixed","Both","tile","27","m150priest.wav","None","732.839211181","116","388607.024808","380890.28615","381656.691163","382423.519744","383173.390741","383939.619833","384706.694208","385473.201866","389373.462593","390139.798969","390889.54846","391656.426819","392422.872024","378590.260767","379356.716175","380123.281958","391665.994213","Mapping"
"Mixed","Both","tile","27","m150bluff.wav","None","732.023918943","116","388607.024808","380890.28615","381656.691163","382423.519744","383173.390741","383939.619833","384706.694208","385473.201866","389373.462593","390139.798969","390889.54846","391656.426819","392422.872024","393189.577554","379356.716175","380123.281958","392431.953087","Mapping"
"Mixed","Both","tile","27","m160tile.wav","None","730.210612528","116","388607.024808","380890.28615","381656.691163","382423.519744","383173.390741","383939.619833","384706.694208","385473.201866","389373.462593","390139.798969","390889.54846","391656.426819","392422.872024","393189.577554","393956.096033","380123.281958","393198.976448","Mapping"
"Mixed","Both","tile","27","m150jaw.wav","space","412.553027272","116","388607.024808","380890.28615","381656.691163","382423.519744","383173.390741","383939.619833","384706.694208","385473.201866","389373.462593","390139.798969","390889.54846","391656.426819","392422.872024","393189.577554","393956.096033","394722.855978","393965.206159","Mapping"
"Mixed","Both","tile","27","m160tile.wav","None","726.965211448","116","388607.024808","395489.543885","381656.691163","382423.519744","383173.390741","383939.619833","384706.694208","385473.201866","389373.462593","390139.798969","390889.54846","391656.426819","392422.872024","393189.577554","393956.096033","394722.855978","394732.129347","Mapping"
"Mixed","Both","tile","27","m150done.wav","space","527.186147228","116","388607.024808","395489.543885","396256.89497","382423.519744","383173.390741","383939.619833","384706.694208","385473.201866","389373.462593","390139.798969","390889.54846","391656.426819","392422.872024","393189.577554","393956.096033","394722.855978","395498.521065","Mapping"
"Mixed","Both","tile","27","m160jolt.wav","None","722.359753214","116","388607.024808","395489.543885","396256.89497","397023.288543","383173.390741","383939.619833","384706.694208","385473.201866","389373.462593","390139.798969","390889.54846","391656.426819","392422.872024","393189.577554","393956.096033","394722.855978","396266.746495","Mapping"
"Mixed","Both","tile","27","m150knife.wav","None","721.573523304","116","388607.024808","395489.543885","396256.89497","397023.288543","397789.945842","383939.619833","384706.694208","385473.201866","389373.462593","390139.798969","390889.54846","391656.426819","392422.872024","393189.577554","393956.096033","394722.855978","397032.689602","Mapping"
"Mixed","Both","tile","27","m160dime.wav","None","719.98003975","116","388607.024808","395489.543885","396256.89497","397023.288543","397789.945842","398539.507974","384706.694208","385473.201866","389373.462593","390139.798969","390889.54846","391656.426819","392422.872024","393189.577554","393956.096033","394722.855978","397799.53055","Mapping"
"Mixed","Both","tile","27","m150tile.wav","None","735.892924306","116","388607.024808","395489.543885","396256.89497","397023.288543","397789.945842","398539.507974","399306.224325","385473.201866","389373.462593","390139.798969","390889.54846","391656.426819","392422.872024","393189.577554","393956.096033","394722.855978","398548.88368","Mapping"
"Mixed","Both","tile","27","m160romp.wav","space","541.963435244","116","388607.024808","395489.543885","396256.89497","397023.288543","397789.945842","398539.507974","399306.224325","400073.068056","389373.462593","390139.798969","390889.54846","391656.426819","392422.872024","393189.577554","393956.096033","394722.855978","399315.743488","Mapping"
"Mixed","Both","done","37","m160romp.wav","None","731.468023849","116","403206.790206","395489.543885","396256.89497","397023.288543","397789.945842","398539.507974","399306.224325","400073.068056","389373.462593","390139.798969","390889.54846","391656.426819","392422.872024","393189.577554","393956.096033","394722.855978","400082.946788","Mapping"
"Mixed","Both","done","37","m160done.wav","None","721.92041669","116","403206.790206","395489.543885","396256.89497","397023.288543","397789.945842","398539.507974","399306.224325","400073.068056","403973.323526","390139.798969","390889.54846","391656.426819","392422.872024","393189.577554","393956.096033","394722.855978","403216.540632","Mapping"
"Mixed","Both","done","37","m160tile.wav","space","434.519232658","116","403206.790206","395489.543885","396256.89497","397023.288543","397789.945842","398539.507974","399306.224325","400073.068056","403973.323526","404723.19947","390889.54846","391656.426819","392422.872024","393189.577554","393956.096033","394722.855978","403983.129603","Mapping"
"Mixed","Both","done","37","m160cling.wav","None","735.814084939","116","403206.790206","395489.543885","396256.89497","397023.288543","397789.945842","398539.507974","399306.224325","400073.068056","403973.323526","404723.19947","405489.315714","391656.426819","392422.872024","393189.577554","393956.096033","394722.855978","404732.515506","Mapping"
"Mixed","Both","done","37","m160cave.wav","None","734.453100304","116","403206.790206","395489.543885","396256.89497","397023.288543","397789.945842","398539.507974","399306.224325","400073.068056","403973.323526","404723.19947","405489.315714","406256.173667","392422.872024","393189.577554","393956.096033","394722.855978","405499.014198","Mapping"
"Mixed","Both","done","37","m160done.wav","None","733.066454181","116","403206.790206","395489.543885","396256.89497","397023.288543","397789.945842","398539.507974","399306.224325","400073.068056","403973.323526","404723.19947","405489.315714","406256.173667","407022.870231","393189.577554","393956.096033","394722.855978","406265.634087","Mapping"
"Mixed","Both","done","37","m150greet.wav","space","425.076744752","116","403206.790206","395489.543885","396256.89497","397023.288543","397789.945842","398539.507974","399306.224325","400073.068056","403973.323526","404723.19947","405489.315714","406256.173667","407022.870231","407789.376652","393956.096033","394722.855978","407032.512445","Mapping"
"Mixed","Both","done","37","m150park.wav","None","729.550834862","116","403206.790206","395489.543885","396256.89497","397023.288543","397789.945842","398539.507974","399306.224325","400073.068056","403973.323526","404723.19947","405489.315714","406256.173667","407022.870231","407789.376652","408556.44608","394722.855978","407798.944047","Mapping"
"Mixed","Both","done","37","m150cave.wav","None","728.079475055","116","403206.790206","395489.543885","396256.89497","397023.288543","397789.945842","398539.507974","399306.224325","400073.068056","403973.323526","404723.19947","405489.315714","406256.173667","407022.870231","407789.376652","408556.44608","409322.899633","408565.495608","Mapping"
"Mixed","Both","done","37","m150done.wav","None","726.001824718","116","403206.790206","410089.334326","396256.89497","397023.288543","397789.945842","398539.507974","399306.224325","400073.068056","403973.323526","404723.19947","405489.315714","406256.173667","407022.870231","407789.376652","408556.44608","409322.899633","409332.763216","Mapping"
"Mixed","Both","done","37","m150greet.wav","space","383.131396258","116","403206.790206","410089.334326","410856.547829","397023.288543","397789.945842","398539.507974","399306.224325","400073.068056","403973.323526","404723.19947","405489.315714","406256.173667","407022.870231","407789.376652","408556.44608","409322.899633","410098.372105","Mapping"
"Mixed","Both","done","37","m150cling.wav","None","722.284933028","116","403206.790206","410089.334326","410856.547829","411623.17823","397789.945842","398539.507974","399306.224325","400073.068056","403973.323526","404723.19947","405489.315714","406256.173667","407022.870231","407789.376652","408556.44608","409322.899633","410866.301965","Mapping"
"Mixed","Both","done","37","m150done.wav","None","721.146553813","116","403206.790206","410089.334326","410856.547829","411623.17823","412389.722062","398539.507974","399306.224325","400073.068056","403973.323526","404723.19947","405489.315714","406256.173667","407022.870231","407789.376652","408556.44608","409322.899633","411632.93824","Mapping"
"Mixed","Both","done","37","m150park.wav","space","489.543266303","116","403206.790206","410089.334326","410856.547829","411623.17823","412389.722062","413139.060661","399306.224325","400073.068056","403973.323526","404723.19947","405489.315714","406256.173667","407022.870231","407789.376652","408556.44608","409322.899633","412399.923572","Mapping"
"Mixed","Both","done","37","m160reek.wav","None","735.543557559","116","403206.790206","410089.334326","410856.547829","411623.17823","412389.722062","413139.060661","413906.093915","400073.068056","403973.323526","404723.19947","405489.315714","406256.173667","407022.870231","407789.376652","408556.44608","409322.899633","413148.400194","Mapping"
"Mixed","Both","done","37","m160dime.wav","None","733.480438415","116","403206.790206","410089.334326","410856.547829","411623.17823","412389.722062","413139.060661","413906.093915","414672.750596","403973.323526","404723.19947","405489.315714","406256.173667","407022.870231","407789.376652","408556.44608","409322.899633","413915.797655","Mapping"
"Mixed","Both","ball","12","m150lash.wav","None","732.294446323","116","417806.66227","410089.334326","410856.547829","411623.17823","412389.722062","413139.060661","413906.093915","414672.750596","403973.323526","404723.19947","405489.315714","406256.173667","407022.870231","407789.376652","408556.44608","409322.899633","414682.256773","Mapping"
"Mixed","Both","ball","12","m160priest.wav","None","720.538099064","116","417806.66227","410089.334326","410856.547829","411623.17823","412389.722062","413139.060661","413906.093915","414672.750596","418573.039148","404723.19947","405489.315714","406256.173667","407022.870231","407789.376652","408556.44608","409322.899633","417816.233684","Mapping"
"Mixed","Both","ball","12","m160romp.wav","None","725.389659929","116","417806.66227","410089.334326","410856.547829","411623.17823","412389.722062","413139.060661","413906.093915","414672.750596","418573.039148","419322.569744","405489.315714","406256.173667","407022.870231","407789.376652","408556.44608","409322.899633","418577.349963","Mapping"
"Mixed","Both","ball","12","m160greet.wav","None","736.196533311","116","417806.66227","410089.334326","410856.547829","411623.17823","412389.722062","413139.060661","413906.093915","414672.750596","418573.039148","419322.569744","420089.171701","406256.173667","407022.870231","407789.376652","408556.44608","409322.899633","419331.692237","Mapping"
"Mixed","Both","ball","12","m150ball.wav","None","734.920571616","116","417806.66227","410089.334326","410856.547829","411623.17823","412389.722062","413139.060661","413906.093915","414672.750596","418573.039148","419322.569744","420089.171701","420855.820652","407022.870231","407789.376652","408556.44608","409322.899633","420098.240088","Mapping"
"Mixed","Both","ball","12","m150cling.wav","space","342.119753652","116","417806.66227","410089.334326","410856.547829","411623.17823","412389.722062","413139.060661","413906.093915","414672.750596","418573.039148","419322.569744","420089.171701","420855.820652","421622.764555","407789.376652","408556.44608","409322.899633","420859.267634","Mapping"
"Mixed","Both","ball","12","m150cave.wav","None","730.721986562","116","417806.66227","410089.334326","410856.547829","411623.17823","412389.722062","413139.060661","413906.093915","414672.750596","418573.039148","419322.569744","420089.171701","420855.820652","421622.764555","422389.027657","408556.44608","409322.899633","421632.845487","Mapping"
"Mixed","Both","ball","12","m150jaw.wav","None","730.473410513","116","417806.66227","410089.334326","410856.547829","411623.17823","412389.722062","413139.060661","413906.093915","414672.750596","418573.039148","419322.569744","420089.171701","420855.820652","421622.764555","422389.027657","423155.970014","409322.899633","422398.247848","Mapping"
"Mixed","Both","ball","12","m160ball.wav","None","728.758421494","116","417806.66227","410089.334326","410856.547829","411623.17823","412389.722062","413139.060661","413906.093915","414672.750596","418573.039148","419322.569744","420089.171701","420855.820652","421622.764555","422389.027657","423155.970014","423922.421093","423165.204737","Mapping"
"Mixed","Both","ball","12","m150depth.wav","space","486.070931365","116","417806.66227","424689.09787","410856.547829","411623.17823","412389.722062","413139.060661","413906.093915","414672.750596","418573.039148","419322.569744","420089.171701","420855.820652","421622.764555","422389.027657","423155.970014","423922.421093","423931.245851","Mapping"
"Mixed","Both","ball","12","m150ball.wav","None","725.911236717","116","417806.66227","424689.09787","425456.114738","411623.17823","412389.722062","413139.060661","413906.093915","414672.750596","418573.039148","419322.569744","420089.171701","420855.820652","421622.764555","422389.027657","423155.970014","423922.421093","424698.310951","Mapping"
"Mixed","Both","ball","12","m160bluff.wav","space","623.651575588","116","417806.66227","424689.09787","425456.114738","426222.749776","412389.722062","413139.060661","413906.093915","414672.750596","418573.039148","419322.569744","420089.171701","420855.820652","421622.764555","422389.027657","423155.970014","423922.421093","425465.662345","Mapping"
"Mixed","Both","ball","12","m160ball.wav","None","722.085206537","116","417806.66227","424689.09787","425456.114738","426222.749776","426989.355752","413139.060661","413906.093915","414672.750596","418573.039148","419322.569744","420089.171701","420855.820652","421622.764555","422389.027657","423155.970014","423922.421093","426232.061174","Mapping"
"Mixed","Both","ball","12","m160cad.wav","space","538.306523289","116","417806.66227","424689.09787","425456.114738","426222.749776","426989.355752","427738.711356","413906.093915","414672.750596","418573.039148","419322.569744","420089.171701","420855.820652","421622.764555","422389.027657","423155.970014","423922.421093","426998.967358","Mapping"
"Mixed","Both","ball","12","m160reek.wav","None","736.469224968","116","417806.66227","424689.09787","425456.114738","426222.749776","426989.355752","427738.711356","428505.579202","414672.750596","418573.039148","419322.569744","420089.171701","420855.820652","421622.764555","422389.027657","423155.970014","423922.421093","427747.644634","Mapping"
"Mixed","Both","ball","12","m150park.wav","None","734.848534048","116","417806.66227","424689.09787","425456.114738","426222.749776","426989.355752","427738.711356","428505.579202","429272.946056","418573.039148","419322.569744","420089.171701","420855.820652","421622.764555","422389.027657","423155.970014","423922.421093","428514.663666","Mapping"
"Mixed","Both","done","42","m150romp.wav","None","732.781395607","116","432406.374182","424689.09787","425456.114738","426222.749776","426989.355752","427738.711356","428505.579202","429272.946056","418573.039148","419322.569744","420089.171701","420855.820652","421622.764555","422389.027657","423155.970014","423922.421093","429282.039177","Mapping"
"Mixed","Both","done","42","m160bluff.wav","None","721.363903198","116","432406.374182","424689.09787","425456.114738","426222.749776","426989.355752","427738.711356","428505.579202","429272.946056","433172.892352","419322.569744","420089.171701","420855.820652","421622.764555","422389.027657","423155.970014","423922.421093","432416.213031","Mapping"
"Mixed","Both","done","42","m150romp.wav","None","720.304054208","116","432406.374182","424689.09787","425456.114738","426222.749776","426989.355752","427738.711356","428505.579202","429272.946056","433172.892352","433922.806015","420089.171701","420855.820652","421622.764555","422389.027657","423155.970014","423922.421093","433182.686371","Mapping"
"Mixed","Both","done","42","m160done.wav","None","735.715767485","116","432406.374182","424689.09787","425456.114738","426222.749776","426989.355752","427738.711356","428505.579202","429272.946056","433172.892352","433922.806015","434688.631635","420855.820652","421622.764555","422389.027657","423155.970014","423922.421093","433932.491823","Mapping"
"Mixed","Both","done","42","m160gnash.wav","space","399.520409061","116","432406.374182","424689.09787","425456.114738","426222.749776","426989.355752","427738.711356","428505.579202","429272.946056","433172.892352","433922.806015","434688.631635","435455.563481","421622.764555","422389.027657","423155.970014","423922.421093","434697.618401","Mapping"
"Mixed","Both","done","42","m160romp.wav","None","733.490022831","116","432406.374182","424689.09787","425456.114738","426222.749776","426989.355752","427738.711356","428505.579202","429272.946056","433172.892352","433922.806015","434688.631635","435455.563481","436222.456679","422389.027657","423155.970014","423922.421093","435464.650418","Mapping"
"Mixed","Both","done","42","m150done.wav","space","657.229125558","116","432406.374182","424689.09787","425456.114738","426222.749776","426989.355752","427738.711356","428505.579202","429272.946056","433172.892352","433922.806015","434688.631635","435455.563481","436222.456679","436988.970521","423155.970014","423922.421093","436231.933795","Mapping"
"Mixed","Both","done","42","m150lash.wav","None","729.46179274","116","432406.374182","424689.09787","425456.114738","426222.749776","426989.355752","427738.711356","428505.579202","429272.946056","433172.892352","433922.806015","434688.631635","435455.563481","436222.456679","436988.970521","437755.531048","423922.421093","436998.342517","Mapping"
"Mixed","Both","done","42","m160cad.wav","space","60.6309069553","116","432406.374182","424689.09787","425456.114738","426222.749776","426989.355752","427738.711356","428505.579202","429272.946056","433172.892352","433922.806015","434688.631635","435455.563481","436222.456679","436988.970521","437755.531048","438522.483918","437764.486278","Mapping"
"Mixed","Both","done","42","m150tile.wav","None","726.436214405","116","432406.374182","439288.958185","425456.114738","426222.749776","426989.355752","427738.711356","428505.579202","429272.946056","433172.892352","433922.806015","434688.631635","435455.563481","436222.456679","436988.970521","437755.531048","438522.483918","438531.932898","Mapping"
"Mixed","Both","done","42","m160knife.wav","None","725.585985521","116","432406.374182","439288.958185","440055.637435","426222.749776","426989.355752","427738.711356","428505.579202","429272.946056","433172.892352","433922.806015","434688.631635","435455.563481","436222.456679","436988.970521","437755.531048","438522.483918","439298.089335","Mapping"
"Mixed","Both","done","42","m150priest.wav","None","727.295100223","116","432406.374182","439288.958185","440055.637435","440822.44592","426989.355752","427738.711356","428505.579202","429272.946056","433172.892352","433922.806015","434688.631635","435455.563481","436222.456679","436988.970521","437755.531048","438522.483918","440064.540105","Mapping"
"Mixed","Both","done","42","m160done.wav","None","725.103364675","116","432406.374182","439288.958185","440055.637435","440822.44592","441589.335718","427738.711356","428505.579202","429272.946056","433172.892352","433922.806015","434688.631635","435455.563481","436222.456679","436988.970521","437755.531048","438522.483918","440832.070821","Mapping"
"Mixed","Both","done","42","m160reek.wav","space","514.239170356","116","432406.374182","439288.958185","440055.637435","440822.44592","441589.335718","442356.227061","428505.579202","429272.946056","433172.892352","433922.806015","434688.631635","435455.563481","436222.456679","436988.970521","437755.531048","438522.483918","441598.809123","Mapping"
"Mixed","Both","done","42","m150done.wav","None","720.694541174","116","432406.374182","439288.958185","440055.637435","440822.44592","441589.335718","442356.227061","443122.754816","429272.946056","433172.892352","433922.806015","434688.631635","435455.563481","436222.456679","436988.970521","437755.531048","438522.483918","442366.524725","Mapping"
"Mixed","Both","done","42","m150romp.wav","space","668.579527177","116","432406.374182","439288.958185","440055.637435","440822.44592","441589.335718","442356.227061","443122.754816","443871.936045","433172.892352","433922.806015","434688.631635","435455.563481","436222.456679","436988.970521","437755.531048","438522.483918","443132.442788","Mapping"
"Mixed","Both","tile","29","m150lash.wav","None","735.774201457","116","447005.988394","439288.958185","440055.637435","440822.44592","441589.335718","442356.227061","443122.754816","443871.936045","433172.892352","433922.806015","434688.631635","435455.563481","436222.456679","436988.970521","437755.531048","438522.483918","443881.337722","Mapping"
"Mixed","Both","tile","29","m150knife.wav","None","720.748028369","116","447005.988394","439288.958185","440055.637435","440822.44592","441589.335718","442356.227061","443122.754816","443871.936045","447772.792241","433922.806015","434688.631635","435455.563481","436222.456679","436988.970521","437755.531048","438522.483918","447015.807456","Mapping"
"Mixed","Both","tile","29","m150ball.wav","None","719.672411447","116","447005.988394","439288.958185","440055.637435","440822.44592","441589.335718","442356.227061","443122.754816","443871.936045","447772.792241","448522.304906","434688.631635","435455.563481","436222.456679","436988.970521","437755.531048","438522.483918","447782.404775","Mapping"
"Mixed","Both","tile","29","m160jaw.wav","None","735.6802125","116","447005.988394","439288.958185","440055.637435","440822.44592","441589.335718","442356.227061","443122.754816","443871.936045","447772.792241","448522.304906","449288.764642","435455.563481","436222.456679","436988.970521","437755.531048","438522.483918","448531.77491","Mapping"
"Mixed","Both","tile","29","m160tile.wav","None","734.75640011","116","447005.988394","439288.958185","440055.637435","440822.44592","441589.335718","442356.227061","443122.754816","443871.936045","447772.792241","448522.304906","449288.764642","450055.372164","436222.456679","436988.970521","437755.531048","438522.483918","449298.149005","Mapping"
"Mixed","Both","tile","29","m150reek.wav","space","440.256268252","116","447005.988394","439288.958185","440055.637435","440822.44592","441589.335718","442356.227061","443122.754816","443871.936045","447772.792241","448522.304906","449288.764642","450055.372164","450822.00782","436988.970521","437755.531048","438522.483918","450064.679543","Mapping"
"Mixed","Both","tile","29","m150tile.wav","None","732.254562841","116","447005.988394","439288.958185","440055.637435","440822.44592","441589.335718","442356.227061","443122.754816","443871.936045","447772.792241","448522.304906","449288.764642","450055.372164","450822.00782","451588.724171","437755.531048","438522.483918","450830.839998","Mapping"
"Mixed","Both","tile","29","m160priest.wav","space","600.085084734","116","447005.988394","439288.958185","440055.637435","440822.44592","441589.335718","442356.227061","443122.754816","443871.936045","447772.792241","448522.304906","449288.764642","450055.372164","450822.00782","451588.724171","452355.263675","438522.483918","451592.822893","Mapping"
"Mixed","Both","tile","29","m150greet.wav","None","729.018746177","116","447005.988394","439288.958185","440055.637435","440822.44592","441589.335718","442356.227061","443122.754816","443871.936045","447772.792241","448522.304906","449288.764642","450055.372164","450822.00782","451588.724171","452355.263675","453122.251171","452364.426978","Mapping"
"Mixed","Both","tile","29","m160reek.wav","None","726.803822559","116","447005.988394","453888.660203","440055.637435","440822.44592","441589.335718","442356.227061","443122.754816","443871.936045","447772.792241","448522.304906","449288.764642","450055.372164","450822.00782","451588.724171","452355.263675","453122.251171","453132.114136","Mapping"
"Mixed","Both","tile","29","m150greet.wav","None","726.227212697","116","447005.988394","453888.660203","454655.532687","440822.44592","441589.335718","442356.227061","443122.754816","443871.936045","447772.792241","448522.304906","449288.764642","450055.372164","450822.00782","451588.724171","452355.263675","453122.251171","453898.171018","Mapping"
"Mixed","Both","tile","29","m160jolt.wav","None","725.090997643","116","447005.988394","453888.660203","454655.532687","455422.419702","441589.335718","442356.227061","443122.754816","443871.936045","447772.792241","448522.304906","449288.764642","450055.372164","450822.00782","451588.724171","452355.263675","453122.251171","454664.91334","Mapping"
"Mixed","Both","tile","29","m160tile.wav","None","723.78782864","116","447005.988394","453888.660203","454655.532687","455422.419702","456188.967862","442356.227061","443122.754816","443871.936045","447772.792241","448522.304906","449288.764642","450055.372164","450822.00782","451588.724171","452355.263675","453122.251171","455431.805611","Mapping"
"Mixed","Both","tile","29","m160jolt.wav","space","521.699851903","116","447005.988394","453888.660203","454655.532687","455422.419702","456188.967862","456955.416468","443122.754816","443871.936045","447772.792241","448522.304906","449288.764642","450055.372164","450822.00782","451588.724171","452355.263675","453122.251171","456199.178648","Mapping"
"Mixed","Both","tile","29","m150tile.wav","None","721.441196802","116","447005.988394","453888.660203","454655.532687","455422.419702","456188.967862","456955.416468","457722.326053","443871.936045","447772.792241","448522.304906","449288.764642","450055.372164","450822.00782","451588.724171","452355.263675","453122.251171","456965.114334","Mapping"
"Mixed","Both","tile","29","m160cling.wav","space","589.257805841","116","447005.988394","453888.660203","454655.532687","455422.419702","456188.967862","456955.416468","457722.326053","458471.603436","447772.792241","448522.304906","449288.764642","450055.372164","450822.00782","451588.724171","452355.263675","453122.251171","457731.539752","Mapping"
"Mixed","Both","done","44","m150reek.wav","None","736.33195163","116","461605.785329","453888.660203","454655.532687","455422.419702","456188.967862","456955.416468","457722.326053","458471.603436","447772.792241","448522.304906","449288.764642","450055.372164","450822.00782","451588.724171","452355.263675","453122.251171","458480.595457","Mapping"
"Mixed","Both","done","44","m160cling.wav","None","721.572595765","116","461605.785329","453888.660203","454655.532687","455422.419702","456188.967862","456955.416468","457722.326053","458471.603436","462372.349566","448522.304906","449288.764642","450055.372164","450822.00782","451588.724171","452355.263675","453122.251171","461615.685085","Mapping"
"Mixed","Both","done","44","m150done.wav","None","720.352903707","116","461605.785329","453888.660203","454655.532687","455422.419702","456188.967862","456955.416468","457722.326053","458471.603436","462372.349566","463139.098689","449288.764642","450055.372164","450822.00782","451588.724171","452355.263675","453122.251171","462382.570864","Mapping"
"Mixed","Both","done","44","m150depth.wav","space","491.459218552","116","461605.785329","453888.660203","454655.532687","455422.419702","456188.967862","456955.416468","457722.326053","458471.603436","462372.349566","463139.098689","463888.272499","450055.372164","450822.00782","451588.724171","452355.263675","453122.251171","463149.256297","Mapping"
"Mixed","Both","done","44","m150romp.wav","None","735.672792362","116","461605.785329","453888.660203","454655.532687","455422.419702","456188.967862","456955.416468","457722.326053","458471.603436","462372.349566","463139.098689","463888.272499","464655.050684","450822.00782","451588.724171","452355.263675","453122.251171","463897.225564","Mapping"
"Mixed","Both","done","44","m160done.wav","None","734.492365387","116","461605.785329","453888.660203","454655.532687","455422.419702","456188.967862","456955.416468","457722.326053","458471.603436","462372.349566","463139.098689","463888.272499","464655.050684","465422.050857","451588.724171","452355.263675","453122.251171","464663.952118","Mapping"
"Mixed","Both","done","44","m160jolt.wav","space","472.689564689","116","461605.785329","453888.660203","454655.532687","455422.419702","456188.967862","456955.416468","457722.326053","458471.603436","462372.349566","463139.098689","463888.272499","464655.050684","465422.050857","466188.511521","452355.263675","453122.251171","465432.011212","Mapping"
"Mixed","Both","done","44","m150park.wav","None","730.935316766","116","461605.785329","453888.660203","454655.532687","455422.419702","456188.967862","456955.416468","457722.326053","458471.603436","462372.349566","463139.098689","463888.272499","464655.050684","465422.050857","466188.511521","466955.387406","453122.251171","466197.550537","Mapping"
"Mixed","Both","done","44","m160gnash.wav","None","729.513424798","116","461605.785329","453888.660203","454655.532687","455422.419702","456188.967862","456955.416468","457722.326053","458471.603436","462372.349566","463139.098689","463888.272499","464655.050684","465422.050857","466188.511521","466955.387406","467721.755627","466964.518246","Mapping"
"Mixed","Both","done","44","m160jaw.wav","None","729.548052303","116","461605.785329","468488.511552","454655.532687","455422.419702","456188.967862","456955.416468","457722.326053","458471.603436","462372.349566","463139.098689","463888.272499","464655.050684","465422.050857","466188.511521","466955.387406","467721.755627","467730.593679","Mapping"
"Mixed","Both","done","44","m150dime.wav","None","727.715577115","116","461605.785329","468488.511552","469255.250164","455422.419702","456188.967862","456955.416468","457722.326053","458471.603436","462372.349566","463139.098689","463888.272499","464655.050684","465422.050857","466188.511521","466955.387406","467721.755627","468498.044628","Mapping"
"Mixed","Both","done","44","m150done.wav","None","726.679534477","116","461605.785329","468488.511552","469255.250164","470021.929414","456188.967862","456955.416468","457722.326053","458471.603436","462372.349566","463139.098689","463888.272499","464655.050684","465422.050857","466188.511521","466955.387406","467721.755627","469264.557233","Mapping"
"Mixed","Both","done","44","m150cad.wav","space","409.229714249","116","461605.785329","468488.511552","469255.250164","470021.929414","470788.702962","456955.416468","457722.326053","458471.603436","462372.349566","463139.098689","463888.272499","464655.050684","465422.050857","466188.511521","466955.387406","467721.755627","470031.426316","Mapping"
"Mixed","Both","done","44","m160done.wav","None","722.448486194","116","461605.785329","468488.511552","469255.250164","470021.929414","470788.702962","471554.911958","457722.326053","458471.603436","462372.349566","463139.098689","463888.272499","464655.050684","465422.050857","466188.511521","466955.387406","467721.755627","470798.851604","Mapping"
"Mixed","Both","done","44","m160cad.wav","space","516.962685448","116","461605.785329","468488.511552","469255.250164","470021.929414","470788.702962","471554.911958","472322.273865","458471.603436","462372.349566","463139.098689","463888.272499","464655.050684","465422.050857","466188.511521","466955.387406","467721.755627","471563.649529","Mapping"
"Mixed","Both","done","44","m160reek.wav","None","723.084457451","116","461605.785329","468488.511552","469255.250164","470021.929414","470788.702962","471554.911958","472322.273865","473088.485025","462372.349566","463139.098689","463888.272499","464655.050684","465422.050857","466188.511521","466955.387406","467721.755627","472332.39097","Mapping"
"Mixed","Both","tile","25","m150priest.wav","None","722.91070153","116","476205.812598","468488.511552","469255.250164","470021.929414","470788.702962","471554.911958","472322.273865","473088.485025","462372.349566","463139.098689","463888.272499","464655.050684","465422.050857","466188.511521","466955.387406","467721.755627","473098.105597","Mapping"
"Mixed","Both","tile","25","m160tile.wav","None","721.654836147","116","476205.812598","468488.511552","469255.250164","470021.929414","470788.702962","471554.911958","472322.273865","473088.485025","476972.169998","463139.098689","463888.272499","464655.050684","465422.050857","466188.511521","466955.387406","467721.755627","476215.441518","Mapping"
"Mixed","Both","tile","25","m160jaw.wav","space","530.06023023","116","476205.812598","468488.511552","469255.250164","470021.929414","470788.702962","471554.911958","472322.273865","473088.485025","476972.169998","477738.853885","463888.272499","464655.050684","465422.050857","466188.511521","466955.387406","467721.755627","476982.450657","Mapping"
"Mixed","Both","tile","25","m160greet.wav","None","718.726647669","116","476205.812598","468488.511552","469255.250164","470021.929414","470788.702962","471554.911958","472322.273865","473088.485025","476972.169998","477738.853885","478488.107462","464655.050684","465422.050857","466188.511521","466955.387406","467721.755627","477748.763226","Mapping"
"Mixed","Both","tile","25","m150tile.wav","None","735.545412579","116","476205.812598","468488.511552","469255.250164","470021.929414","470788.702962","471554.911958","472322.273865","473088.485025","476972.169998","477738.853885","478488.107462","479255.028486","465422.050857","466188.511521","466955.387406","467721.755627","478497.48997","Mapping"
"Mixed","Both","tile","25","m150jaw.wav","space","520.196647092","116","476205.812598","468488.511552","469255.250164","470021.929414","470788.702962","471554.911958","472322.273865","473088.485025","476972.169998","477738.853885","478488.107462","479255.028486","480021.853666","466188.511521","466955.387406","467721.755627","479264.321333","Mapping"
"Mixed","Both","tile","25","m160tile.wav","None","732.468511385","116","476205.812598","468488.511552","469255.250164","470021.929414","470788.702962","471554.911958","472322.273865","473088.485025","476972.169998","477738.853885","478488.107462","479255.028486","480021.853666","480788.260224","466955.387406","467721.755627","480031.350259","Mapping"
"Mixed","Both","tile","25","m160cave.wav","space","595.182819292","116","476205.812598","468488.511552","469255.250164","470021.929414","470788.702962","471554.911958","472322.273865","473088.485025","476972.169998","477738.853885","478488.107462","479255.028486","480021.853666","480788.260224","481554.841776","467721.755627","480797.290892","Mapping"
"Mixed","Both","tile","25","m150done.wav","None","730.235037277","116","476205.812598","468488.511552","469255.250164","470021.929414","470788.702962","471554.911958","472322.273865","473088.485025","476972.169998","477738.853885","478488.107462","479255.028486","480021.853666","480788.260224","481554.841776","482321.843803","481563.949737","Mapping"
"Mixed","Both","tile","25","m150knife.wav","None","728.377518943","116","476205.812598","483088.235521","469255.250164","470021.929414","470788.702962","471554.911958","472322.273865","473088.485025","476972.169998","477738.853885","478488.107462","479255.028486","480021.853666","480788.260224","481554.841776","482321.843803","482331.459738","Mapping"
"Mixed","Both","tile","25","m160romp.wav","None","728.239008924","116","476205.812598","483088.235521","483854.804087","470021.929414","470788.702962","471554.911958","472322.273865","473088.485025","476972.169998","477738.853885","478488.107462","479255.028486","480021.853666","480788.260224","481554.841776","482321.843803","483097.359251","Mapping"
"Mixed","Both","tile","25","m160depth.wav","None","727.344258921","116","476205.812598","483088.235521","483854.804087","484621.982654","470788.702962","471554.911958","472322.273865","473088.485025","476972.169998","477738.853885","478488.107462","479255.028486","480021.853666","480788.260224","481554.841776","482321.843803","483863.967391","Mapping"
"Mixed","Both","tile","25","m150tile.wav","None","725.199826993","116","476205.812598","483088.235521","483854.804087","484621.982654","485388.269871","471554.911958","472322.273865","473088.485025","476972.169998","477738.853885","478488.107462","479255.028486","480021.853666","480788.260224","481554.841776","482321.843803","484631.769561","Mapping"
"Mixed","Both","tile","25","m150gnash.wav","space","490.58796576","116","476205.812598","483088.235521","483854.804087","484621.982654","485388.269871","486155.449055","472322.273865","473088.485025","476972.169998","477738.853885","478488.107462","479255.028486","480021.853666","480788.260224","481554.841776","482321.843803","485397.768937","Mapping"
"Mixed","Both","tile","25","m160greet.wav","None","722.173630318","116","476205.812598","483088.235521","483854.804087","484621.982654","485388.269871","486155.449055","486922.08904","473088.485025","476972.169998","477738.853885","478488.107462","479255.028486","480021.853666","480788.260224","481554.841776","482321.843803","486165.219886","Mapping"
"Mixed","Both","tile","25","m150romp.wav","None","721.170669363","116","476205.812598","483088.235521","483854.804087","484621.982654","485388.269871","486155.449055","486922.08904","487688.538574","476972.169998","477738.853885","478488.107462","479255.028486","480021.853666","480788.260224","481554.841776","482321.843803","486931.914286","Mapping"
"Mixed","Both","done","43","m150lash.wav","None","720.624049485","116","490805.344261","483088.235521","483854.804087","484621.982654","485388.269871","486155.449055","486922.08904","487688.538574","476972.169998","477738.853885","478488.107462","479255.028486","480021.853666","480788.260224","481554.841776","482321.843803","487698.33352","Mapping"
"Mixed","Both","done","43","m160done.wav","None","721.099868533","116","490805.344261","483088.235521","483854.804087","484621.982654","485388.269871","486155.449055","486922.08904","487688.538574","491571.46607","477738.853885","478488.107462","479255.028486","480021.853666","480788.260224","481554.841776","482321.843803","490815.623065","Mapping"
"Mixed","Both","done","43","m160cad.wav","space","555.259778921","116","490805.344261","483088.235521","483854.804087","484621.982654","485388.269871","486155.449055","486922.08904","487688.538574","491571.46607","492337.993515","478488.107462","479255.028486","480021.853666","480788.260224","481554.841776","482321.843803","491581.073038","Mapping"
"Mixed","Both","done","43","m150jaw.wav","None","720.616010949","116","490805.344261","483088.235521","483854.804087","484621.982654","485388.269871","486155.449055","486922.08904","487688.538574","491571.46607","492337.993515","493088.084026","479255.028486","480021.853666","480788.260224","481554.841776","482321.843803","492347.099931","Mapping"
"Mixed","Both","done","43","m160park.wav","None","736.10563617","116","490805.344261","483088.235521","483854.804087","484621.982654","485388.269871","486155.449055","486922.08904","487688.538574","491571.46607","492337.993515","493088.084026","493854.562313","480021.853666","480788.260224","481554.841776","482321.843803","493097.223833","Mapping"
"Mixed","Both","done","43","m150jolt.wav","None","735.166983446","116","490805.344261","483088.235521","483854.804087","484621.982654","485388.269871","486155.449055","486922.08904","487688.538574","491571.46607","492337.993515","493088.084026","493854.562313","494621.705943","480788.260224","481554.841776","482321.843803","493863.725617","Mapping"
"Mixed","Both","done","43","m150lash.wav","None","733.345329296","116","490805.344261","483088.235521","483854.804087","484621.982654","485388.269871","486155.449055","486922.08904","487688.538574","491571.46607","492337.993515","493088.084026","493854.562313","494621.705943","495388.072618","481554.841776","482321.843803","494631.278593","Mapping"
"Mixed","Both","done","43","m150dime.wav","None","732.828390086","116","490805.344261","483088.235521","483854.804087","484621.982654","485388.269871","486155.449055","486922.08904","487688.538574","491571.46607","492337.993515","493088.084026","493854.562313","494621.705943","495388.072618","496154.821741","482321.843803","495397.490681","Mapping"
"Mixed","Both","done","43","m150done.wav","None","732.237249089","116","490805.344261","483088.235521","483854.804087","484621.982654","485388.269871","486155.449055","486922.08904","487688.538574","491571.46607","492337.993515","493088.084026","493854.562313","494621.705943","495388.072618","496154.821741","496921.59869","496164.179206","Mapping"
"Mixed","Both","done","43","m160cling.wav","space","428.839394241","116","490805.344261","497687.982988","483854.804087","484621.982654","485388.269871","486155.449055","486922.08904","487688.538574","491571.46607","492337.993515","493088.084026","493854.562313","494621.705943","495388.072618","496154.821741","496921.59869","496931.398274","Mapping"
"Mixed","Both","done","43","m160depth.wav","None","729.472304694","116","490805.344261","497687.982988","498454.52682","484621.982654","485388.269871","486155.449055","486922.08904","487688.538574","491571.46607","492337.993515","493088.084026","493854.562313","494621.705943","495388.072618","496154.821741","496921.59869","497697.031588","Mapping"
"Mixed","Both","done","43","m160romp.wav","None","728.569825296","116","490805.344261","497687.982988","498454.52682","499221.537505","485388.269871","486155.449055","486922.08904","487688.538574","491571.46607","492337.993515","493088.084026","493854.562313","494621.705943","495388.072618","496154.821741","496921.59869","498463.637255","Mapping"
"Mixed","Both","done","43","m160done.wav","None","727.026427921","116","490805.344261","497687.982988","498454.52682","499221.537505","499988.114418","486155.449055","486922.08904","487688.538574","491571.46607","492337.993515","493088.084026","493854.562313","494621.705943","495388.072618","496154.821741","496921.59869","499230.915066","Mapping"
"Mixed","Both","done","43","m150lash.wav","space","530.01818253","116","490805.344261","497687.982988","498454.52682","499221.537505","499988.114418","500755.278762","486922.08904","487688.538574","491571.46607","492337.993515","493088.084026","493854.562313","494621.705943","495388.072618","496154.821741","496921.59869","499998.159177","Mapping"
"Mixed","Both","done","43","m150done.wav","None","723.448355391","116","490805.344261","497687.982988","498454.52682","499221.537505","499988.114418","500755.278762","501521.79786","487688.538574","491571.46607","492337.993515","493088.084026","493854.562313","494621.705943","495388.072618","496154.821741","496921.59869","500765.193668","Mapping"
"Mixed","Both","done","43","m160cad.wav","space","556.598503026","116","490805.344261","497687.982988","498454.52682","499221.537505","499988.114418","500755.278762","501521.79786","502288.418058","491571.46607","492337.993515","493088.084026","493854.562313","494621.705943","495388.072618","496154.821741","496921.59869","501531.593116","Mapping"
"Mixed","Both","cave","22","m160gnash.wav","None","720.641672437","116","505405.213851","497687.982988","498454.52682","499221.537505","499988.114418","500755.278762","501521.79786","502288.418058","491571.46607","492337.993515","493088.084026","493854.562313","494621.705943","495388.072618","496154.821741","496921.59869","502298.370065","Mapping"
"Mixed","Both","cave","22","m150cave.wav","None","720.553557738","116","505405.213851","497687.982988","498454.52682","499221.537505","499988.114418","500755.278762","501521.79786","502288.418058","506171.571251","492337.993515","493088.084026","493854.562313","494621.705943","495388.072618","496154.821741","496921.59869","505414.999213","Mapping"
"Mixed","Both","cave","22","m150jolt.wav","space","507.054581307","116","505405.213851","497687.982988","498454.52682","499221.537505","499988.114418","500755.278762","501521.79786","502288.418058","506171.571251","506921.231391","493088.084026","493854.562313","494621.705943","495388.072618","496154.821741","496921.59869","506181.028888","Mapping"
"Mixed","Both","cave","22","m160jolt.wav","None","735.228199919","116","505405.213851","497687.982988","498454.52682","499221.537505","499988.114418","500755.278762","501521.79786","502288.418058","506171.571251","506921.231391","507687.765639","493854.562313","494621.705943","495388.072618","496154.821741","496921.59869","506930.626885","Mapping"
"Mixed","Both","cave","22","m150depth.wav","None","734.576460789","116","505405.213851","497687.982988","498454.52682","499221.537505","499988.114418","500755.278762","501521.79786","502288.418058","506171.571251","506921.231391","507687.765639","508454.615553","494621.705943","495388.072618","496154.821741","496921.59869","507696.809601","Mapping"
"Mixed","Both","cave","22","m160cave.wav","None","732.841066259","116","505405.213851","497687.982988","498454.52682","499221.537505","499988.114418","500755.278762","501521.79786","502288.418058","506171.571251","506921.231391","507687.765639","508454.615553","509221.60645","495388.072618","496154.821741","496921.59869","508464.330114","Mapping"
"Mixed","Both","cave","22","m150gnash.wav","space","481.196800829","116","505405.213851","497687.982988","498454.52682","499221.537505","499988.114418","500755.278762","501521.79786","502288.418058","506171.571251","506921.231391","507687.765639","508454.615553","509221.60645","509987.876354","496154.821741","496921.59869","509230.862815","Mapping"
"Mixed","Both","cave","22","m160lash.wav","None","730.132082303","116","505405.213851","497687.982988","498454.52682","499221.537505","499988.114418","500755.278762","501521.79786","502288.418058","506171.571251","506921.231391","507687.765639","508454.615553","509221.60645","509987.876354","510754.470581","496921.59869","509997.268756","Mapping"
"Mixed","Both","cave","22","m150cave.wav","None","729.412633984","116","505405.213851","497687.982988","498454.52682","499221.537505","499988.114418","500755.278762","501521.79786","502288.418058","506171.571251","506921.231391","507687.765639","508454.615553","509221.60645","509987.876354","510754.470581","511521.305346","510763.759409","Mapping"
"Mixed","Both","cave","22","m150park.wav","space","533.072513994","116","505405.213851","512287.63492","498454.52682","499221.537505","499988.114418","500755.278762","501521.79786","502288.418058","506171.571251","506921.231391","507687.765639","508454.615553","509221.60645","509987.876354","510754.470581","511521.305346","511530.92499","Mapping"
"Mixed","Both","cave","22","m160cave.wav","None","726.823609672","116","505405.213851","512287.63492","513054.620871","499221.537505","499988.114418","500755.278762","501521.79786","502288.418058","506171.571251","506921.231391","507687.765639","508454.615553","509221.60645","509987.876354","510754.470581","511521.305346","512296.55243","Mapping"
"Mixed","Both","cave","22","m160jaw.wav","space","500.996932038","116","505405.213851","512287.63492","513054.620871","513821.517161","499988.114418","500755.278762","501521.79786","502288.418058","506171.571251","506921.231391","507687.765639","508454.615553","509221.60645","509987.876354","510754.470581","511521.305346","513058.974661","Mapping"
"Mixed","Both","cave","22","m160bluff.wav","None","722.768172272","116","505405.213851","512287.63492","513054.620871","513821.517161","514588.063466","500755.278762","501521.79786","502288.418058","506171.571251","506921.231391","507687.765639","508454.615553","509221.60645","509987.876354","510754.470581","511521.305346","513830.993349","Mapping"
"Mixed","Both","cave","22","m160greet.wav","None","721.42419219","116","505405.213851","512287.63492","513054.620871","513821.517161","514588.063466","515354.789711","501521.79786","502288.418058","506171.571251","506921.231391","507687.765639","508454.615553","509221.60645","509987.876354","510754.470581","511521.305346","514598.278889","Mapping"
"Mixed","Both","cave","22","m150cling.wav","None","721.096158435","116","505405.213851","512287.63492","513054.620871","513821.517161","514588.063466","515354.789711","516121.623548","502288.418058","506171.571251","506921.231391","507687.765639","508454.615553","509221.60645","509987.876354","510754.470581","511521.305346","515364.341337","Mapping"
"Mixed","Both","cave","22","m150knife.wav","None","719.259663951","116","505405.213851","512287.63492","513054.620871","513821.517161","514588.063466","515354.789711","516121.623548","516888.27219","506171.571251","506921.231391","507687.765639","508454.615553","509221.60645","509987.876354","510754.470581","511521.305346","516131.900187","Mapping"
"Mixed","Both","tile","33","m150priest.wav","None","719.008305343","116","520005.009858","512287.63492","513054.620871","513821.517161","514588.063466","515354.789711","516121.623548","516888.27219","506171.571251","506921.231391","507687.765639","508454.615553","509221.60645","509987.876354","510754.470581","511521.305346","516898.004683","Mapping"
"Mixed","Both","tile","33","m160park.wav","None","720.527587109","116","520005.009858","512287.63492","513054.620871","513821.517161","514588.063466","515354.789711","516121.623548","516888.27219","520771.492164","506921.231391","507687.765639","508454.615553","509221.60645","509987.876354","510754.470581","511521.305346","520014.86633","Mapping"
"Mixed","Both","tile","33","m160gnash.wav","None","725.864551438","116","520005.009858","512287.63492","513054.620871","513821.517161","514588.063466","515354.789711","516121.623548","516888.27219","520771.492164","521538.173578","507687.765639","508454.615553","509221.60645","509987.876354","510754.470581","511521.305346","520775.630769","Mapping"
"Mixed","Both","tile","33","m160dime.wav","None","719.174950209","116","520005.009858","512287.63492","513054.620871","513821.517161","514588.063466","515354.789711","516121.623548","516888.27219","520771.492164","521538.173578","522287.882568","508454.615553","509221.60645","509987.876354","510754.470581","511521.305346","521548.267805","Mapping"
"Mixed","Both","tile","33","m160greet.wav","None","728.398851992","116","520005.009858","512287.63492","513054.620871","513821.517161","514588.063466","515354.789711","516121.623548","516888.27219","520771.492164","521538.173578","522287.882568","523054.102695","509221.60645","509987.876354","510754.470581","511521.305346","522304.889002","Mapping"
"Mixed","Both","tile","33","m150lash.wav","None","735.544794239","116","520005.009858","512287.63492","513054.620871","513821.517161","514588.063466","515354.789711","516121.623548","516888.27219","520771.492164","521538.173578","522287.882568","523054.102695","523821.103486","509987.876354","510754.470581","511521.305346","523063.802106","Mapping"
"Mixed","Both","tile","33","m150tile.wav","None","734.497930505","116","520005.009858","512287.63492","513054.620871","513821.517161","514588.063466","515354.789711","516121.623548","516888.27219","520771.492164","521538.173578","522287.882568","523054.102695","523821.103486","524587.612072","510754.470581","511521.305346","523830.711691","Mapping"
"Mixed","Both","tile","33","m160ball.wav","space","442.607846926","116","520005.009858","512287.63492","513054.620871","513821.517161","514588.063466","515354.789711","516121.623548","516888.27219","520771.492164","521538.173578","522287.882568","523054.102695","523821.103486","524587.612072","525354.109527","511521.305346","524597.238209","Mapping"
"Mixed","Both","tile","33","m150jolt.wav","None","732.149752846","116","520005.009858","512287.63492","513054.620871","513821.517161","514588.063466","515354.789711","516121.623548","516888.27219","520771.492164","521538.173578","522287.882568","523054.102695","523821.103486","524587.612072","525354.109527","526121.105681","525363.653734","Mapping"
"Mixed","Both","tile","33","m150bluff.wav","None","730.931915867","116","520005.009858","526887.622924","513054.620871","513821.517161","514588.063466","515354.789711","516121.623548","516888.27219","520771.492164","521538.173578","522287.882568","523054.102695","523821.103486","524587.612072","525354.109527","526121.105681","526130.848686","Mapping"
"Mixed","Both","tile","33","m160tile.wav","None","729.308751528","116","520005.009858","526887.622924","527654.353188","513821.517161","514588.063466","515354.789711","516121.623548","516888.27219","520771.492164","521538.173578","522287.882568","523054.102695","523821.103486","524587.612072","525354.109527","526121.105681","526898.457623","Mapping"
"Mixed","Both","tile","33","m150priest.wav","space","463.27242913","116","520005.009858","526887.622924","527654.353188","528420.833639","514588.063466","515354.789711","516121.623548","516888.27219","520771.492164","521538.173578","522287.882568","523054.102695","523821.103486","524587.612072","525354.109527","526121.105681","527664.525945","Mapping"
"Mixed","Both","tile","33","m160tile.wav","None","728.415856545","116","520005.009858","526887.622924","527654.353188","528420.833639","529187.601931","515354.789711","516121.623548","516888.27219","520771.492164","521538.173578","522287.882568","523054.102695","523821.103486","524587.612072","525354.109527","526121.105681","528430.38341","Mapping"
"Mixed","Both","tile","33","m150reek.wav","space","586.382795358","116","520005.009858","526887.622924","527654.353188","528420.833639","529187.601931","529954.196467","516121.623548","516888.27219","520771.492164","521538.173578","522287.882568","523054.102695","523821.103486","524587.612072","525354.109527","526121.105681","529197.371525","Mapping"
"Mixed","Both","tile","33","m150tile.wav","None","725.764379022","116","520005.009858","526887.622924","527654.353188","528420.833639","529187.601931","529954.196467","530721.11038","516888.27219","520771.492164","521538.173578","522287.882568","523054.102695","523821.103486","524587.612072","525354.109527","526121.105681","529963.591033","Mapping"
"Mixed","Both","tile","33","m160jolt.wav","space","524.728521879","116","520005.009858","526887.622924","527654.353188","528420.833639","529187.601931","529954.196467","530721.11038","531487.87589","520771.492164","521538.173578","522287.882568","523054.102695","523821.103486","524587.612072","525354.109527","526121.105681","530731.009828","Mapping"
"Mixed","Both","cave","19","m160depth.wav","None","721.564248088","116","534604.77402","526887.622924","527654.353188","528420.833639","529187.601931","529954.196467","530721.11038","531487.87589","520771.492164","521538.173578","522287.882568","523054.102695","523821.103486","524587.612072","525354.109527","526121.105681","531498.465414","Mapping"
"Mixed","Both","cave","19","m150jolt.wav","None","719.941392948","116","534604.77402","526887.622924","527654.353188","528420.833639","529187.601931","529954.196467","530721.11038","531487.87589","535371.382469","521538.173578","522287.882568","523054.102695","523821.103486","524587.612072","525354.109527","526121.105681","534615.150832","Mapping"
"Mixed","Both","cave","19","m160ball.wav","None","719.414251042","116","534604.77402","526887.622924","527654.353188","528420.833639","529187.601931","529954.196467","530721.11038","531487.87589","535371.382469","536137.979788","522287.882568","523054.102695","523821.103486","524587.612072","525354.109527","526121.105681","535381.500193","Mapping"
"Mixed","Both","cave","19","m150dime.wav","None","719.073541113","116","534604.77402","526887.622924","527654.353188","528420.833639","529187.601931","529954.196467","530721.11038","531487.87589","535371.382469","536137.979788","536887.926533","523054.102695","523821.103486","524587.612072","525354.109527","526121.105681","536148.324755","Mapping"
"Mixed","Both","cave","19","m160cave.wav","None","735.642493237","116","534604.77402","526887.622924","527654.353188","528420.833639","529187.601931","529954.196467","530721.11038","531487.87589","535371.382469","536137.979788","536887.926533","537654.02268","523821.103486","524587.612072","525354.109527","526121.105681","536897.485579","Mapping"
"Mixed","Both","cave","19","m160dime.wav","space","375.563122099","116","534604.77402","526887.622924","527654.353188","528420.833639","529187.601931","529954.196467","530721.11038","531487.87589","535371.382469","536137.979788","536887.926533","537654.02268","538420.978332","524587.612072","525354.109527","526121.105681","537664.047652","Mapping"
"Mixed","Both","cave","19","m150cave.wav","None","732.875384565","116","534604.77402","526887.622924","527654.353188","528420.833639","529187.601931","529954.196467","530721.11038","531487.87589","535371.382469","536137.979788","536887.926533","537654.02268","538420.978332","539187.365722","525354.109527","526121.105681","538430.868504","Mapping"
"Mixed","Both","cave","19","m150bluff.wav","space","403.03602838","116","534604.77402","526887.622924","527654.353188","528420.833639","529187.601931","529954.196467","530721.11038","531487.87589","535371.382469","536137.979788","536887.926533","537654.02268","538420.978332","539187.365722","539954.514607","526121.105681","539196.5349","Mapping"
"Mixed","Both","cave","19","m160cave.wav","None","729.348325753","116","534604.77402","526887.622924","527654.353188","528420.833639","529187.601931","529954.196467","530721.11038","531487.87589","535371.382469","536137.979788","536887.926533","537654.02268","538420.978332","539187.365722","539954.514607","540720.909417","539964.822783","Mapping"
"Mixed","Both","cave","19","m160knife.wav","space","516.625067277","116","534604.77402","541487.416148","527654.353188","528420.833639","529187.601931","529954.196467","530721.11038","531487.87589","535371.382469","536137.979788","536887.926533","537654.02268","538420.978332","539187.365722","539954.514607","540720.909417","540730.936863","Mapping"
"Mixed","Both","cave","19","m150jaw.wav","None","727.312723116","116","534604.77402","541487.416148","542254.176711","528420.833639","529187.601931","529954.196467","530721.11038","531487.87589","535371.382469","536137.979788","536887.926533","537654.02268","538420.978332","539187.365722","539954.514607","540720.909417","541497.267673","Mapping"
"Mixed","Both","cave","19","m160park.wav","None","726.568850165","116","534604.77402","541487.416148","542254.176711","543020.862145","529187.601931","529954.196467","530721.11038","531487.87589","535371.382469","536137.979788","536887.926533","537654.02268","538420.978332","539187.365722","539954.514607","540720.909417","542263.910441","Mapping"
"Mixed","Both","cave","19","m150cave.wav","None","725.728823978","116","534604.77402","541487.416148","542254.176711","543020.862145","543787.333939","529954.196467","530721.11038","531487.87589","535371.382469","536137.979788","536887.926533","537654.02268","538420.978332","539187.365722","539954.514607","540720.909417","543030.806113","Mapping"
"Mixed","Both","cave","19","m150done.wav","space","506.942660257","116","534604.77402","541487.416148","542254.176711","543020.862145","543787.333939","544554.565065","530721.11038","531487.87589","535371.382469","536137.979788","536887.926533","537654.02268","538420.978332","539187.365722","539954.514607","540720.909417","543796.575463","Mapping"
"Mixed","Both","cave","19","m150romp.wav","None","721.487882081","116","534604.77402","541487.416148","542254.176711","543020.862145","543787.333939","544554.565065","545321.153108","531487.87589","535371.382469","536137.979788","536887.926533","537654.02268","538420.978332","539187.365722","539954.514607","540720.909417","544565.554042","Mapping"
"Mixed","Both","cave","19","m160reek.wav","None","722.455597192","116","534604.77402","541487.416148","542254.176711","543020.862145","543787.333939","544554.565065","545321.153108","546087.673443","535371.382469","536137.979788","536887.926533","537654.02268","538420.978332","539187.365722","539954.514607","540720.909417","545330.47811","Mapping"
"Mixed","Both","done","46","m150dime.wav","None","721.477679326","116","549204.715957","541487.416148","542254.176711","543020.862145","543787.333939","544554.565065","545321.153108","546087.673443","535371.382469","536137.979788","536887.926533","537654.02268","538420.978332","539187.365722","539954.514607","540720.909417","546097.485085","Mapping"
"Mixed","Both","done","46","m150done.wav","None","720.956102479","116","549204.715957","541487.416148","542254.176711","543020.862145","543787.333939","544554.565065","545321.153108","546087.673443","549971.278648","536137.979788","536887.926533","537654.02268","538420.978332","539187.365722","539954.514607","540720.909417","549214.810493","Mapping"
"Mixed","Both","done","46","m150greet.wav","space","497.673000733","116","549204.715957","541487.416148","542254.176711","543020.862145","543787.333939","544554.565065","545321.153108","546087.673443","549971.278648","550720.969706","536887.926533","537654.02268","538420.978332","539187.365722","539954.514607","540720.909417","549981.775111","Mapping"
"Mixed","Both","done","46","m150greet.wav","None","736.098215973","116","549204.715957","541487.416148","542254.176711","543020.862145","543787.333939","544554.565065","545321.153108","546087.673443","549971.278648","550720.969706","551487.53889","537654.02268","538420.978332","539187.365722","539954.514607","540720.909417","550730.355924","Mapping"
"Mixed","Both","done","46","m160depth.wav","None","735.120298166","116","549204.715957","541487.416148","542254.176711","543020.862145","543787.333939","544554.565065","545321.153108","546087.673443","549971.278648","550720.969706","551487.53889","552253.868464","538420.978332","539187.365722","539954.514607","540720.909417","551497.357334","Mapping"
"Mixed","Both","done","46","m150done.wav","None","734.938812908","116","549204.715957","541487.416148","542254.176711","543020.862145","543787.333939","544554.565065","545321.153108","546087.673443","549971.278648","550720.969706","551487.53889","552253.868464","553020.544313","539187.365722","539954.514607","540720.909417","552263.827582","Mapping"
"Mixed","Both","done","46","m160greet.wav","space","489.095582103","116","549204.715957","541487.416148","542254.176711","543020.862145","543787.333939","544554.565065","545321.153108","546087.673443","549971.278648","550720.969706","551487.53889","552253.868464","553020.544313","553787.070213","539954.514607","540720.909417","553030.312671","Mapping"
"Mixed","Both","done","46","m160done.wav","None","733.011730365","116","549204.715957","541487.416148","542254.176711","543020.862145","543787.333939","544554.565065","545321.153108","546087.673443","549971.278648","550720.969706","551487.53889","552253.868464","553020.544313","553787.070213","554553.839433","540720.909417","553796.80147","Mapping"
"Mixed","Both","done","46","m150gnash.wav","space","563.761759084","116","549204.715957","541487.416148","542254.176711","543020.862145","543787.333939","544554.565065","545321.153108","546087.673443","549971.278648","550720.969706","551487.53889","552253.868464","553020.544313","553787.070213","554553.839433","555320.712226","554563.613974","Mapping"
"Mixed","Both","done","46","m160dime.wav","None","729.73293846","116","549204.715957","556087.147538","542254.176711","543020.862145","543787.333939","544554.565065","545321.153108","546087.673443","549971.278648","550720.969706","551487.53889","552253.868464","553020.544313","553787.070213","554553.839433","555320.712226","555330.636716","Mapping"
"Mixed","Both","done","46","m160jolt.wav","None","730.18556938","116","549204.715957","556087.147538","556853.914284","543020.862145","543787.333939","544554.565065","545321.153108","546087.673443","549971.278648","550720.969706","551487.53889","552253.868464","553020.544313","553787.070213","554553.839433","555320.712226","556096.298474","Mapping"
"Mixed","Both","done","46","m160reek.wav","None","728.644645424","116","549204.715957","556087.147538","556853.914284","557620.636509","543787.333939","544554.565065","545321.153108","546087.673443","549971.278648","550720.969706","551487.53889","552253.868464","553020.544313","553787.070213","554553.839433","555320.712226","556863.996453","Mapping"
"Mixed","Both","done","46","m150jaw.wav","None","727.919013705","116","549204.715957","556087.147538","556853.914284","557620.636509","558387.146023","544554.565065","545321.153108","546087.673443","549971.278648","550720.969706","551487.53889","552253.868464","553020.544313","553787.070213","554553.839433","555320.712226","557630.730427","Mapping"
"Mixed","Both","done","46","m160done.wav","None","727.702591743","116","549204.715957","556087.147538","556853.914284","557620.636509","558387.146023","559154.013251","545321.153108","546087.673443","549971.278648","550720.969706","551487.53889","552253.868464","553020.544313","553787.070213","554553.839433","555320.712226","558397.226646","Mapping"
"Mixed","Both","done","46","m160bluff.wav","space","547.715002031","116","549204.715957","556087.147538","556853.914284","557620.636509","558387.146023","559154.013251","559920.598203","546087.673443","549971.278648","550720.969706","551487.53889","552253.868464","553020.544313","553787.070213","554553.839433","555320.712226","559163.591775","Mapping"
"Mixed","Both","done","46","m150priest.wav","None","725.265990244","116","549204.715957","556087.147538","556853.914284","557620.636509","558387.146023","559154.013251","559920.598203","560687.191811","549971.278648","550720.969706","551487.53889","552253.868464","553020.544313","553787.070213","554553.839433","555320.712226","559930.319256","Mapping"
"Mixed","Both","ball","3","m150jaw.wav","None","724.904874864","116","563820.64529","556087.147538","556853.914284","557620.636509","558387.146023","559154.013251","559920.598203","560687.191811","549971.278648","550720.969706","551487.53889","552253.868464","553020.544313","553787.070213","554553.839433","555320.712226","560696.792287","Mapping"
"Mixed","Both","ball","3","m160tile.wav","None","722.082114837","116","563820.64529","556087.147538","556853.914284","557620.636509","558387.146023","559154.013251","559920.598203","560687.191811","564587.42193","550720.969706","551487.53889","552253.868464","553020.544313","553787.070213","554553.839433","555320.712226","563830.222578","Mapping"
"Mixed","Both","ball","3","m160ball.wav","None","720.793786109","116","563820.64529","556087.147538","556853.914284","557620.636509","558387.146023","559154.013251","559920.598203","560687.191811","564587.42193","565354.356867","551487.53889","552253.868464","553020.544313","553787.070213","554553.839433","555320.712226","564597.610764","Mapping"
"Mixed","Both","ball","3","m160tile.wav","space","537.67240711","116","563820.64529","556087.147538","556853.914284","557620.636509","558387.146023","559154.013251","559920.598203","560687.191811","564587.42193","565354.356867","566103.756682","552253.868464","553020.544313","553787.070213","554553.839433","555320.712226","565365.552372","Mapping"
"Mixed","Both","ball","3","m160priest.wav","None","735.097419238","116","563820.64529","556087.147538","556853.914284","557620.636509","558387.146023","559154.013251","559920.598203","560687.191811","564587.42193","565354.356867","566103.756682","566870.050392","553020.544313","553787.070213","554553.839433","555320.712226","566113.977671","Mapping"
"Mixed","Both","ball","3","m150cling.wav","None","736.06018757","116","563820.64529","556087.147538","556853.914284","557620.636509","558387.146023","559154.013251","559920.598203","560687.191811","564587.42193","565354.356867","566103.756682","566870.050392","567636.888867","553787.070213","554553.839433","555320.712226","566879.120635","Mapping"
"Mixed","Both","ball","3","m150ball.wav","None","734.89336425","116","563820.64529","556087.147538","556853.914284","557620.636509","558387.146023","559154.013251","559920.598203","560687.191811","564587.42193","565354.356867","566103.756682","566870.050392","567636.888867","568403.713738","554553.839433","555320.712226","567646.440184","Mapping"
"Mixed","Both","ball","3","m150priest.wav","space","529.545146041","116","563820.64529","556087.147538","556853.914284","557620.636509","558387.146023","559154.013251","559920.598203","560687.191811","564587.42193","565354.356867","566103.756682","566870.050392","567636.888867","568403.713738","569170.512948","555320.712226","568413.621533","Mapping"
"Mixed","Both","ball","3","m150gnash.wav","None","732.136149134","116","563820.64529","556087.147538","556853.914284","557620.636509","558387.146023","559154.013251","559920.598203","560687.191811","564587.42193","565354.356867","566103.756682","566870.050392","567636.888867","568403.713738","569170.512948","569936.886425","569180.483505","Mapping"
"Mixed","Both","ball","3","m150cad.wav","None","732.491699455","116","563820.64529","570703.78086","556853.914284","557620.636509","558387.146023","559154.013251","559920.598203","560687.191811","564587.42193","565354.356867","566103.756682","566870.050392","567636.888867","568403.713738","569170.512948","569936.886425","569946.2476","Mapping"
"Mixed","Both","ball","3","m160romp.wav","None","731.80533282","116","563820.64529","570703.78086","571470.429192","557620.636509","558387.146023","559154.013251","559920.598203","560687.191811","564587.42193","565354.356867","566103.756682","566870.050392","567636.888867","568403.713738","569170.512948","569936.886425","570713.199851","Mapping"
"Mixed","Both","ball","3","m150ball.wav","None","730.90409016","116","563820.64529","570703.78086","571470.429192","572236.905315","558387.146023","559154.013251","559920.598203","560687.191811","564587.42193","565354.356867","566103.756682","566870.050392","567636.888867","568403.713738","569170.512948","569936.886425","571480.218883","Mapping"
"Mixed","Both","ball","3","m160bluff.wav","space","472.973386582","116","563820.64529","570703.78086","571470.429192","572236.905315","573003.689684","559154.013251","559920.598203","560687.191811","564587.42193","565354.356867","566103.756682","566870.050392","567636.888867","568403.713738","569170.512948","569936.886425","572246.122415","Mapping"
"Mixed","Both","ball","3","m160ball.wav","None","728.994939709","116","563820.64529","570703.78086","571470.429192","572236.905315","573003.689684","573770.408818","559920.598203","560687.191811","564587.42193","565354.356867","566103.756682","566870.050392","567636.888867","568403.713738","569170.512948","569936.886425","573013.957667","Mapping"
"Mixed","Both","ball","3","m150cad.wav","space","619.127120997","116","563820.64529","570703.78086","571470.429192","572236.905315","573003.689684","573770.408818","574536.909056","560687.191811","564587.42193","565354.356867","566103.756682","566870.050392","567636.888867","568403.713738","569170.512948","569936.886425","573779.997236","Mapping"
"Mixed","Both","ball","3","m160cad.wav","None","727.561299165","116","563820.64529","570703.78086","571470.429192","572236.905315","573003.689684","573770.408818","574536.909056","575303.686933","564587.42193","565354.356867","566103.756682","566870.050392","567636.888867","568403.713738","569170.512948","569936.886425","574546.593937","Mapping"
"Mixed","Both","ball","8","m160depth.wav","None","727.136803092","116","578437.018906","570703.78086","571470.429192","572236.905315","573003.689684","573770.408818","574536.909056","575303.686933","564587.42193","565354.356867","566103.756682","566870.050392","567636.888867","568403.713738","569170.512948","569936.886425","575313.382325","Mapping"
"Mixed","Both","ball","8","m160cling.wav","None","720.584784343","116","578437.018906","570703.78086","571470.429192","572236.905315","573003.689684","573770.408818","574536.909056","575303.686933","579203.900665","565354.356867","566103.756682","566870.050392","567636.888867","568403.713738","569170.512948","569936.886425","578447.820523","Mapping"
"Mixed","Both","ball","8","m160ball.wav","None","720.233871718","116","578437.018906","570703.78086","571470.429192","572236.905315","573003.689684","573770.408818","574536.909056","575303.686933","579203.900665","579970.752743","566103.756682","566870.050392","567636.888867","568403.713738","569170.512948","569936.886425","579214.372703","Mapping"
"Mixed","Both","ball","8","m150done.wav","space","474.149175861","116","578437.018906","570703.78086","571470.429192","572236.905315","573003.689684","573770.408818","574536.909056","575303.686933","579203.900665","579970.752743","580720.456168","566870.050392","567636.888867","568403.713738","569170.512948","569936.886425","579980.835222","Mapping"
"Mixed","Both","ball","8","m150ball.wav","None","735.230364138","116","578437.018906","570703.78086","571470.429192","572236.905315","573003.689684","573770.408818","574536.909056","575303.686933","579203.900665","579970.752743","580720.456168","581486.510886","567636.888867","568403.713738","569170.512948","569936.886425","580730.375093","Mapping"
"Mixed","Both","ball","8","m150knife.wav","space","430.555310799","116","578437.018906","570703.78086","571470.429192","572236.905315","573003.689684","573770.408818","574536.909056","575303.686933","579203.900665","579970.752743","580720.456168","581486.510886","582253.622362","568403.713738","569170.512948","569936.886425","581496.421773","Mapping"
"Mixed","Both","ball","8","m150reek.wav","None","733.011730365","116","578437.018906","570703.78086","571470.429192","572236.905315","573003.689684","573770.408818","574536.909056","575303.686933","579203.900665","579970.752743","580720.456168","581486.510886","582253.622362","583020.31336","569170.512948","569936.886425","582263.378661","Mapping"
"Mixed","Both","ball","8","m150knife.wav","None","732.764700253","116","578437.018906","570703.78086","571470.429192","572236.905315","573003.689684","573770.408818","574536.909056","575303.686933","579203.900665","579970.752743","580720.456168","581486.510886","582253.622362","583020.31336","583786.736923","569936.886425","583029.852929","Mapping"
"Mixed","Both","ball","8","m150ball.wav","None","733.153950539","116","578437.018906","570703.78086","571470.429192","572236.905315","573003.689684","573770.408818","574536.909056","575303.686933","579203.900665","579970.752743","580720.456168","581486.510886","582253.622362","583020.31336","583786.736923","584553.648363","583795.854469","Mapping"
"Mixed","Both","ball","8","m160knife.wav","space","563.962413056","116","578437.018906","585320.334724","571470.429192","572236.905315","573003.689684","573770.408818","574536.909056","575303.686933","579203.900665","579970.752743","580720.456168","581486.510886","582253.622362","583020.31336","583786.736923","584553.648363","584562.992534","Mapping"
"Mixed","Both","ball","8","m160cling.wav","None","729.300403793","116","578437.018906","585320.334724","586086.753341","572236.905315","573003.689684","573770.408818","574536.909056","575303.686933","579203.900665","579970.752743","580720.456168","581486.510886","582253.622362","583020.31336","583786.736923","584553.648363","585330.508718","Mapping"
"Mixed","Both","ball","8","m160jaw.wav","None","729.738812777","116","578437.018906","585320.334724","586086.753341","586853.52998","573003.689684","573770.408818","574536.909056","575303.686933","579203.900665","579970.752743","580720.456168","581486.510886","582253.622362","583020.31336","583786.736923","584553.648363","586096.232929","Mapping"
"Mixed","Both","ball","8","m150jaw.wav","None","729.224037786","116","578437.018906","585320.334724","586086.753341","586853.52998","587620.215723","573770.408818","574536.909056","575303.686933","579203.900665","579970.752743","580720.456168","581486.510886","582253.622362","583020.31336","583786.736923","584553.648363","586863.262474","Mapping"
"Mixed","Both","ball","8","m160done.wav","None","729.088928725","116","578437.018906","585320.334724","586086.753341","586853.52998","587620.215723","588386.737294","574536.909056","575303.686933","579203.900665","579970.752743","580720.456168","581486.510886","582253.622362","583020.31336","583786.736923","584553.648363","587629.768277","Mapping"
