"Condition","Talker","Target","Trial","current_stimulus","response_response","response_time_response","subject_nr","time_Audio1","time_Audio10","time_Audio11","time_Audio12","time_Audio13","time_Audio14","time_Audio15","time_Audio16","time_Audio2","time_Audio3","time_Audio4","time_Audio5","time_Audio6","time_Audio7","time_Audio8","time_Audio9","time_response","title"
"Blocked","m150","ball","3","m150cave.wav","NA","NA","109","271407.940124","NA","NA","NA","NA","NA","NA","NA","NA","NA","NA","NA","NA","NA","NA","NA","NA","Mapping"
"Blocked","m150","ball","3","m150cad.wav","None","718.496255809","109","271407.940124","NA","NA","NA","NA","NA","NA","NA","272174.567845","NA","NA","NA","NA","NA","NA","NA","271421.765113","Mapping"
"Blocked","m150","ball","3","m150dime.wav","None","722.187474603","109","271407.940124","NA","NA","NA","NA","NA","NA","NA","272174.567845","272940.90649","NA","NA","NA","NA","NA","NA","272184.753247","Mapping"
"Blocked","m150","ball","3","m150park.wav","None","722.917123232","109","271407.940124","NA","NA","NA","NA","NA","NA","NA","272174.567845","272940.90649","273707.518752","NA","NA","NA","NA","NA","272950.712845","Mapping"
"Blocked","m150","ball","3","m150depth.wav","None","723.206200171","109","271407.940124","NA","NA","NA","NA","NA","NA","NA","272174.567845","272940.90649","273707.518752","274474.355165","NA","NA","NA","NA","273717.182579","Mapping"
"Blocked","m150","ball","3","m150ball.wav","None","723.488475429","109","271407.940124","NA","NA","NA","NA","NA","NA","NA","272174.567845","272940.90649","273707.518752","274474.355165","275240.882714","NA","NA","NA","274483.667771","Mapping"
"Blocked","m150","ball","3","m150bluff.wav","space","642.510449281","109","271407.940124","NA","NA","NA","NA","NA","NA","NA","272174.567845","272940.90649","273707.518752","274474.355165","275240.882714","276008.148569","NA","NA","275250.197484","Mapping"
"Blocked","m150","ball","3","m150jaw.wav","None","722.858689493","109","271407.940124","NA","NA","NA","NA","NA","NA","NA","272174.567845","272940.90649","273707.518752","274474.355165","275240.882714","276008.148569","276774.053752","NA","276017.435513","Mapping"
"Blocked","m150","ball","3","m150dime.wav","None","723.268962465","109","271407.940124","NA","NA","NA","NA","NA","NA","NA","272174.567845","272940.90649","273707.518752","274474.355165","275240.882714","276008.148569","276774.053752","277540.904387","276783.652653","Mapping"
"Blocked","m150","ball","3","m150ball.wav","None","719.960500021","109","271407.940124","278290.399275","NA","NA","NA","NA","NA","NA","272174.567845","272940.90649","273707.518752","274474.355165","275240.882714","276008.148569","276774.053752","277540.904387","277550.209573","Mapping"
"Blocked","m150","ball","3","m150lash.wav","space","569.442928769","109","271407.940124","278290.399275","279057.479317","NA","NA","NA","NA","NA","272174.567845","272940.90649","273707.518752","274474.355165","275240.882714","276008.148569","276774.053752","277540.904387","278299.171137","Mapping"
"Blocked","m150","ball","3","m150ball.wav","None","733.719016658","109","271407.940124","278290.399275","279057.479317","279823.809304","NA","NA","NA","NA","272174.567845","272940.90649","273707.518752","274474.355165","275240.882714","276008.148569","276774.053752","277540.904387","279066.506865","Mapping"
"Blocked","m150","ball","3","m150greet.wav","space","651.841914747","109","271407.940124","278290.399275","279057.479317","279823.809304","280590.475363","NA","NA","NA","272174.567845","272940.90649","273707.518752","274474.355165","275240.882714","276008.148569","276774.053752","277540.904387","279832.743173","Mapping"
"Blocked","m150","ball","3","m150ball.wav","None","731.131236767","109","271407.940124","278290.399275","279057.479317","279823.809304","280590.475363","281357.155334","NA","NA","272174.567845","272940.90649","273707.518752","274474.355165","275240.882714","276008.148569","276774.053752","277540.904387","280599.124174","Mapping"
"Blocked","m150","ball","3","m150priest.wav","space","438.42893024","109","271407.940124","278290.399275","279057.479317","279823.809304","280590.475363","281357.155334","282124.492608","NA","272174.567845","272940.90649","273707.518752","274474.355165","275240.882714","276008.148569","276774.053752","277540.904387","281366.098169","Mapping"
"Blocked","m150","ball","3","m150cave.wav","None","726.527648047","109","271407.940124","278290.399275","279057.479317","279823.809304","280590.475363","281357.155334","282124.492608","282891.004698","272174.567845","272940.90649","273707.518752","274474.355165","275240.882714","276008.148569","276774.053752","277540.904387","282133.518301","Mapping"
"Blocked","m150","done","19","m150cave.wav","None","722.608259181","109","286057.757882","278290.399275","279057.479317","279823.809304","280590.475363","281357.155334","282124.492608","282891.004698","272174.567845","272940.90649","273707.518752","274474.355165","275240.882714","276008.148569","276774.053752","277540.904387","282900.866705","Mapping"
"Blocked","m150","done","19","m150cad.wav","None","719.722436508","109","286057.757882","278290.399275","279057.479317","279823.809304","280590.475363","281357.155334","282124.492608","282891.004698","286807.265447","272940.90649","273707.518752","274474.355165","275240.882714","276008.148569","276774.053752","277540.904387","286067.230949","Mapping"
"Blocked","m150","done","19","m150greet.wav","None","737.588937627","109","286057.757882","278290.399275","279057.479317","279823.809304","280590.475363","281357.155334","282124.492608","282891.004698","286807.265447","287573.737963","273707.518752","274474.355165","275240.882714","276008.148569","276774.053752","277540.904387","286812.795627","Mapping"
"Blocked","m150","done","19","m150gnash.wav","None","731.381048914","109","286057.757882","278290.399275","279057.479317","279823.809304","280590.475363","281357.155334","282124.492608","282891.004698","286807.265447","287573.737963","288341.042155","274474.355165","275240.882714","276008.148569","276774.053752","277540.904387","287582.482927","Mapping"
"Blocked","m150","done","19","m150done.wav","None","730.364178075","109","286057.757882","278290.399275","279057.479317","279823.809304","280590.475363","281357.155334","282124.492608","282891.004698","286807.265447","287573.737963","288341.042155","289107.306906","275240.882714","276008.148569","276774.053752","277540.904387","288350.420615","Mapping"
"Blocked","m150","done","19","m150jolt.wav","space","432.113758288","109","286057.757882","278290.399275","279057.479317","279823.809304","280590.475363","281357.155334","282124.492608","282891.004698","286807.265447","287573.737963","288341.042155","289107.306906","289873.642768","276008.148569","276774.053752","277540.904387","289116.304774","Mapping"
"Blocked","m150","done","19","m150romp.wav","None","732.586824335","109","286057.757882","278290.399275","279057.479317","279823.809304","280590.475363","281357.155334","282124.492608","282891.004698","286807.265447","287573.737963","288341.042155","289107.306906","289873.642768","290640.699931","276774.053752","277540.904387","289882.469045","Mapping"
"Blocked","m150","done","19","m150ball.wav","None","732.205922948","109","286057.757882","278290.399275","279057.479317","279823.809304","280590.475363","281357.155334","282124.492608","282891.004698","286807.265447","287573.737963","288341.042155","289107.306906","289873.642768","290640.699931","291407.012914","277540.904387","290649.642457","Mapping"
"Blocked","m150","done","19","m150done.wav","None","729.421818163","109","286057.757882","278290.399275","279057.479317","279823.809304","280590.475363","281357.155334","282124.492608","282891.004698","286807.265447","287573.737963","288341.042155","289107.306906","289873.642768","290640.699931","291407.012914","292173.582201","291415.899479","Mapping"
"Blocked","m150","done","19","m150cave.wav","space","461.596514797","109","286057.757882","292940.723459","279057.479317","279823.809304","280590.475363","281357.155334","282124.492608","282891.004698","286807.265447","287573.737963","288341.042155","289107.306906","289873.642768","290640.699931","291407.012914","292173.582201","292182.76279","Mapping"
"Blocked","m150","done","19","m150romp.wav","None","721.411449835","109","286057.757882","292940.723459","293690.23226","279823.809304","280590.475363","281357.155334","282124.492608","282891.004698","286807.265447","287573.737963","288341.042155","289107.306906","289873.642768","290640.699931","291407.012914","292173.582201","292950.24723","Mapping"
"Blocked","m150","done","19","m150cling.wav","None","735.808409052","109","286057.757882","292940.723459","293690.23226","294473.587179","280590.475363","281357.155334","282124.492608","282891.004698","286807.265447","287573.737963","288341.042155","289107.306906","289873.642768","290640.699931","291407.012914","292173.582201","293699.219925","Mapping"
"Blocked","m150","done","19","m150done.wav","None","722.275279695","109","286057.757882","292940.723459","293690.23226","294473.587179","295223.484301","281357.155334","282124.492608","282891.004698","286807.265447","287573.737963","288341.042155","289107.306906","289873.642768","290640.699931","291407.012914","292173.582201","294482.417166","Mapping"
"Blocked","m150","done","19","m150greet.wav","space","379.865651717","109","286057.757882","292940.723459","293690.23226","294473.587179","295223.484301","295990.192717","282124.492608","282891.004698","286807.265447","287573.737963","288341.042155","289107.306906","289873.642768","290640.699931","291407.012914","292173.582201","295232.439194","Mapping"
"Blocked","m150","done","19","m150done.wav","None","732.269921806","109","286057.757882","292940.723459","293690.23226","294473.587179","295223.484301","295990.192717","296757.149089","282891.004698","286807.265447","287573.737963","288341.042155","289107.306906","289873.642768","290640.699931","291407.012914","292173.582201","295998.877701","Mapping"
"Blocked","m150","done","19","m150reek.wav","space","662.111102603","109","286057.757882","292940.723459","293690.23226","294473.587179","295223.484301","295990.192717","296757.149089","297523.710647","286807.265447","287573.737963","288341.042155","289107.306906","289873.642768","290640.699931","291407.012914","292173.582201","296766.152831","Mapping"
"Blocked","m150","done","21","m150cling.wav","None","727.767123375","109","300657.433621","292940.723459","293690.23226","294473.587179","295223.484301","295990.192717","296757.149089","297523.710647","286807.265447","287573.737963","288341.042155","289107.306906","289873.642768","290640.699931","291407.012914","292173.582201","297532.925245","Mapping"
"Blocked","m150","done","21","m150done.wav","None","719.749334734","109","300657.433621","292940.723459","293690.23226","294473.587179","295223.484301","295990.192717","296757.149089","297523.710647","301406.99189","287573.737963","288341.042155","289107.306906","289873.642768","290640.699931","291407.012914","292173.582201","300667.501847","Mapping"
"Blocked","m150","done","21","m150lash.wav","space","572.239091154","109","300657.433621","292940.723459","293690.23226","294473.587179","295223.484301","295990.192717","296757.149089","297523.710647","301406.99189","302173.426687","288341.042155","289107.306906","289873.642768","290640.699931","291407.012914","292173.582201","301415.934106","Mapping"
"Blocked","m150","done","21","m150dime.wav","None","736.829299014","109","300657.433621","292940.723459","293690.23226","294473.587179","295223.484301","295990.192717","296757.149089","297523.710647","301406.99189","302173.426687","302940.200338","289107.306906","289873.642768","290640.699931","291407.012914","292173.582201","302176.887881","Mapping"
"Blocked","m150","done","21","m150done.wav","None","727.045203792","109","300657.433621","292940.723459","293690.23226","294473.587179","295223.484301","295990.192717","296757.149089","297523.710647","301406.99189","302173.426687","302940.200338","303707.372822","289873.642768","290640.699931","291407.012914","292173.582201","302950.061417","Mapping"
"Blocked","m150","done","21","m150dime.wav","space","487.086299341","109","300657.433621","292940.723459","293690.23226","294473.587179","295223.484301","295990.192717","296757.149089","297523.710647","301406.99189","302173.426687","302940.200338","303707.372822","304474.002089","290640.699931","291407.012914","292173.582201","303717.051489","Mapping"
"Blocked","m150","done","21","m150reek.wav","None","720.291624544","109","300657.433621","292940.723459","293690.23226","294473.587179","295223.484301","295990.192717","296757.149089","297523.710647","301406.99189","302173.426687","302940.200338","303707.372822","304474.002089","305223.295087","291407.012914","292173.582201","304483.669935","Mapping"
"Blocked","m150","done","21","m150done.wav","None","735.289925477","109","300657.433621","292940.723459","293690.23226","294473.587179","295223.484301","295990.192717","296757.149089","297523.710647","301406.99189","302173.426687","302940.200338","303707.372822","304474.002089","305223.295087","305990.006904","292173.582201","305232.033868","Mapping"
"Blocked","m150","done","21","m150lash.wav","space","541.182334069","109","300657.433621","292940.723459","293690.23226","294473.587179","295223.484301","295990.192717","296757.149089","297523.710647","301406.99189","302173.426687","302940.200338","303707.372822","304474.002089","305223.295087","305990.006904","306757.014908","305998.900889","Mapping"
"Blocked","m150","done","21","m150gnash.wav","None","727.784746094","109","300657.433621","307523.764753","293690.23226","294473.587179","295223.484301","295990.192717","296757.149089","297523.710647","301406.99189","302173.426687","302940.200338","303707.372822","304474.002089","305223.295087","305990.006904","306757.014908","306765.969801","Mapping"
"Blocked","m150","done","21","m150cad.wav","None","724.248114042","109","300657.433621","307523.764753","308290.444724","294473.587179","295223.484301","295990.192717","296757.149089","297523.710647","301406.99189","302173.426687","302940.200338","303707.372822","304474.002089","305223.295087","305990.006904","306757.014908","307532.970384","Mapping"
"Blocked","m150","done","21","m150depth.wav","None","720.944598317","109","300657.433621","307523.764753","308290.444724","309040.019997","295223.484301","295990.192717","296757.149089","297523.710647","301406.99189","302173.426687","302940.200338","303707.372822","304474.002089","305223.295087","305990.006904","306757.014908","308300.016417","Mapping"
"Blocked","m150","done","21","m150priest.wav","None","735.389788635","109","300657.433621","307523.764753","308290.444724","309040.019997","309806.637516","295990.192717","296757.149089","297523.710647","301406.99189","302173.426687","302940.200338","303707.372822","304474.002089","305223.295087","305990.006904","306757.014908","309048.947064","Mapping"
"Blocked","m150","done","21","m150priest.wav","None","732.099567307","109","300657.433621","307523.764753","308290.444724","309040.019997","309806.637516","310573.545038","296757.149089","297523.710647","301406.99189","302173.426687","302940.200338","303707.372822","304474.002089","305223.295087","305990.006904","306757.014908","309815.635693","Mapping"
"Blocked","m150","done","21","m150done.wav","None","728.286225116","109","300657.433621","307523.764753","308290.444724","309040.019997","309806.637516","310573.545038","311339.932532","297523.710647","301406.99189","302173.426687","302940.200338","303707.372822","304474.002089","305223.295087","305990.006904","306757.014908","310582.973275","Mapping"
"Blocked","m150","done","21","m150cave.wav","space","479.142094031","109","300657.433621","307523.764753","308290.444724","309040.019997","309806.637516","310573.545038","311339.932532","312107.212299","301406.99189","302173.426687","302940.200338","303707.372822","304474.002089","305223.295087","305990.006904","306757.014908","311348.847232","Mapping"
"Blocked","m150","cave","9","m150reek.wav","None","720.93377728","109","315224.071731","307523.764753","308290.444724","309040.019997","309806.637516","310573.545038","311339.932532","312107.212299","301406.99189","302173.426687","302940.200338","303707.372822","304474.002089","305223.295087","305990.006904","306757.014908","312116.770698","Mapping"
"Blocked","m150","cave","9","m150cave.wav","None","718.621780165","109","315224.071731","307523.764753","308290.444724","309040.019997","309806.637516","310573.545038","311339.932532","312107.212299","315973.376168","302173.426687","302940.200338","303707.372822","304474.002089","305223.295087","305990.006904","306757.014908","315233.911786","Mapping"
"Blocked","m150","cave","9","m150ball.wav","space","653.471566737","109","315224.071731","307523.764753","308290.444724","309040.019997","309806.637516","310573.545038","311339.932532","312107.212299","315973.376168","316739.966479","302940.200338","303707.372822","304474.002089","305223.295087","305990.006904","306757.014908","315982.4436","Mapping"
"Blocked","m150","cave","9","m150dime.wav","None","729.941538535","109","315224.071731","307523.764753","308290.444724","309040.019997","309806.637516","310573.545038","311339.932532","312107.212299","315973.376168","316739.966479","317506.504231","303707.372822","304474.002089","305223.295087","305990.006904","306757.014908","316748.912097","Mapping"
"Blocked","m150","cave","9","m150reek.wav","None","726.824763464","109","315224.071731","307523.764753","308290.444724","309040.019997","309806.637516","310573.545038","311339.932532","312107.212299","315973.376168","316739.966479","317506.504231","318273.429686","304474.002089","305223.295087","305990.006904","306757.014908","317515.509828","Mapping"
"Blocked","m150","cave","9","m150reek.wav","None","722.85961709","109","315224.071731","307523.764753","308290.444724","309040.019997","309806.637516","310573.545038","311339.932532","312107.212299","315973.376168","316739.966479","317506.504231","318273.429686","319040.14614","305223.295087","305990.006904","306757.014908","318282.889768","Mapping"
"Blocked","m150","cave","9","m150cave.wav","None","719.738204498","109","315224.071731","307523.764753","308290.444724","309040.019997","309806.637516","310573.545038","311339.932532","312107.212299","315973.376168","316739.966479","317506.504231","318273.429686","319040.14614","319789.814165","305990.006904","306757.014908","319049.487808","Mapping"
"Blocked","m150","cave","9","m150lash.wav","space","717.348295497","109","315224.071731","307523.764753","308290.444724","309040.019997","309806.637516","310573.545038","311339.932532","312107.212299","315973.376168","316739.966479","317506.504231","318273.429686","319040.14614","319789.814165","320556.720451","306757.014908","319798.484","Mapping"
"Blocked","m150","cave","9","m150cave.wav","None","730.193205411","109","315224.071731","307523.764753","308290.444724","309040.019997","309806.637516","310573.545038","311339.932532","312107.212299","315973.376168","316739.966479","317506.504231","318273.429686","319040.14614","319789.814165","320556.720451","321323.051057","320565.702242","Mapping"
"Blocked","m150","cave","9","m150bluff.wav","space","680.000173161","109","315224.071731","322090.065245","308290.444724","309040.019997","309806.637516","310573.545038","311339.932532","312107.212299","315973.376168","316739.966479","317506.504231","318273.429686","319040.14614","319789.814165","320556.720451","321323.051057","321331.789528","Mapping"
"Blocked","m150","cave","9","m150romp.wav","None","722.580433823","109","315224.071731","322090.065245","322856.43697","309040.019997","309806.637516","310573.545038","311339.932532","312107.212299","315973.376168","316739.966479","317506.504231","318273.429686","319040.14614","319789.814165","320556.720451","321323.051057","322099.63972","Mapping"
"Blocked","m150","cave","9","m150knife.wav","None","720.355005004","109","315224.071731","322090.065245","322856.43697","323623.316359","309806.637516","310573.545038","311339.932532","312107.212299","315973.376168","316739.966479","317506.504231","318273.429686","319040.14614","319789.814165","320556.720451","321323.051057","322865.49389","Mapping"
"Blocked","m150","cave","9","m150cave.wav","None","720.54081806","109","315224.071731","322090.065245","322856.43697","323623.316359","324373.274079","310573.545038","311339.932532","312107.212299","315973.376168","316739.966479","317506.504231","318273.429686","319040.14614","319789.814165","320556.720451","321323.051057","323632.385954","Mapping"
"Blocked","m150","cave","9","m150cling.wav","space","405.031422619","109","315224.071731","322090.065245","322856.43697","323623.316359","324373.274079","325139.798846","311339.932532","312107.212299","315973.376168","316739.966479","317506.504231","318273.429686","319040.14614","319789.814165","320556.720451","321323.051057","324382.742199","Mapping"
"Blocked","m150","cave","9","m150park.wav","None","730.136317434","109","315224.071731","322090.065245","322856.43697","323623.316359","324373.274079","325139.798846","325906.332887","312107.212299","315973.376168","316739.966479","317506.504231","318273.429686","319040.14614","319789.814165","320556.720451","321323.051057","325149.326945","Mapping"
"Blocked","m150","cave","9","m150cling.wav","None","727.819064399","109","315224.071731","322090.065245","322856.43697","323623.316359","324373.274079","325139.798846","325906.332887","326673.521449","315973.376168","316739.966479","317506.504231","318273.429686","319040.14614","319789.814165","320556.720451","321323.051057","325915.21667","Mapping"
"Blocked","m150","ball","1","m150reek.wav","None","723.179920577","109","329790.008017","322090.065245","322856.43697","323623.316359","324373.274079","325139.798846","325906.332887","326673.521449","315973.376168","316739.966479","317506.504231","318273.429686","319040.14614","319789.814165","320556.720451","321323.051057","326683.66604","Mapping"
"Blocked","m150","ball","1","m150ball.wav","None","719.976267777","109","329790.008017","322090.065245","322856.43697","323623.316359","324373.274079","325139.798846","325906.332887","326673.521449","330539.535986","316739.966479","317506.504231","318273.429686","319040.14614","319789.814165","320556.720451","321323.051057","329799.835087","Mapping"
"Blocked","m150","ball","1","m150reek.wav","space","663.357379613","109","329790.008017","322090.065245","322856.43697","323623.316359","324373.274079","325139.798846","325906.332887","326673.521449","330539.535986","331306.298507","317506.504231","318273.429686","319040.14614","319789.814165","320556.720451","321323.051057","330548.339384","Mapping"
"Blocked","m150","ball","1","m150done.wav","None","731.158444192","109","329790.008017","322090.065245","322856.43697","323623.316359","324373.274079","325139.798846","325906.332887","326673.521449","330539.535986","331306.298507","332072.856046","318273.429686","319040.14614","319789.814165","320556.720451","321323.051057","331315.192802","Mapping"
"Blocked","m150","ball","1","m150ball.wav","None","728.916938417","109","329790.008017","322090.065245","322856.43697","323623.316359","324373.274079","325139.798846","325906.332887","326673.521449","330539.535986","331306.298507","332072.856046","332839.541892","319040.14614","319789.814165","320556.720451","321323.051057","332081.635637","Mapping"
"Blocked","m150","ball","1","m150cad.wav","space","611.246546265","109","329790.008017","322090.065245","322856.43697","323623.316359","324373.274079","325139.798846","325906.332887","326673.521449","330539.535986","331306.298507","332072.856046","332839.541892","333606.446323","319789.814165","320556.720451","321323.051057","332848.403723","Mapping"
"Blocked","m150","ball","1","m150ball.wav","None","721.429072786","109","329790.008017","322090.065245","322856.43697","323623.316359","324373.274079","325139.798846","325906.332887","326673.521449","330539.535986","331306.298507","332072.856046","332839.541892","333606.446323","334355.95667","320556.720451","321323.051057","333616.184351","Mapping"
"Blocked","m150","ball","1","m150lash.wav","space","582.878049929","109","329790.008017","322090.065245","322856.43697","323623.316359","324373.274079","325139.798846","325906.332887","326673.521449","330539.535986","331306.298507","332072.856046","332839.541892","333606.446323","334355.95667","335122.824619","321323.051057","334364.697924","Mapping"
"Blocked","m150","ball","1","m150bluff.wav","None","732.722860528","109","329790.008017","322090.065245","322856.43697","323623.316359","324373.274079","325139.798846","325906.332887","326673.521449","330539.535986","331306.298507","332072.856046","332839.541892","333606.446323","334355.95667","335122.824619","335889.467798","335131.525371","Mapping"
"Blocked","m150","ball","1","m150jaw.wav","None","729.385335697","109","329790.008017","336656.111906","322856.43697","323623.316359","324373.274079","325139.798846","325906.332887","326673.521449","330539.535986","331306.298507","332072.856046","332839.541892","333606.446323","334355.95667","335122.824619","335889.467798","335898.4567","Mapping"
"Blocked","m150","ball","1","m150done.wav","None","726.34925507","109","329790.008017","336656.111906","337423.37807","323623.316359","324373.274079","325139.798846","325906.332887","326673.521449","330539.535986","331306.298507","332072.856046","332839.541892","333606.446323","334355.95667","335122.824619","335889.467798","336665.077928","Mapping"
"Blocked","m150","ball","1","m150depth.wav","space","602.465718053","109","329790.008017","336656.111906","337423.37807","338173.184295","324373.274079","325139.798846","325906.332887","326673.521449","330539.535986","331306.298507","332072.856046","332839.541892","333606.446323","334355.95667","335122.824619","335889.467798","337433.068485","Mapping"
"Blocked","m150","ball","1","m150done.wav","None","735.029910924","109","329790.008017","336656.111906","337423.37807","338173.184295","338939.538707","325139.798846","325906.332887","326673.521449","330539.535986","331306.298507","332072.856046","332839.541892","333606.446323","334355.95667","335122.824619","335889.467798","338182.912121","Mapping"
"Blocked","m150","ball","1","m150bluff.wav","None","733.095414238","109","329790.008017","336656.111906","337423.37807","338173.184295","338939.538707","339706.10614","325906.332887","326673.521449","330539.535986","331306.298507","332072.856046","332839.541892","333606.446323","334355.95667","335122.824619","335889.467798","338948.49731","Mapping"
"Blocked","m150","ball","1","m150ball.wav","None","730.253494112","109","329790.008017","336656.111906","337423.37807","338173.184295","338939.538707","339706.10614","340472.710982","326673.521449","330539.535986","331306.298507","332072.856046","332839.541892","333606.446323","334355.95667","335122.824619","335889.467798","339715.092568","Mapping"
"Blocked","m150","ball","1","m150tile.wav","None","727.486084914","109","329790.008017","336656.111906","337423.37807","338173.184295","338939.538707","339706.10614","340472.710982","341239.496381","330539.535986","331306.298507","332072.856046","332839.541892","333606.446323","334355.95667","335122.824619","335889.467798","340481.485936","Mapping"
"Blocked","m150","tile","14","m150knife.wav","space","82.4991583358","109","344373.376416","336656.111906","337423.37807","338173.184295","338939.538707","339706.10614","340472.710982","341239.496381","330539.535986","331306.298507","332072.856046","332839.541892","333606.446323","334355.95667","335122.824619","335889.467798","341248.99511","Mapping"
"Blocked","m150","tile","14","m150reek.wav","None","719.255894423","109","344373.376416","336656.111906","337423.37807","338173.184295","338939.538707","339706.10614","340472.710982","341239.496381","345122.634786","331306.298507","332072.856046","332839.541892","333606.446323","334355.95667","335122.824619","335889.467798","344382.870506","Mapping"
"Blocked","m150","tile","14","m150jaw.wav","None","734.503079671","109","344373.376416","336656.111906","337423.37807","338173.184295","338939.538707","339706.10614","340472.710982","341239.496381","345122.634786","345889.633206","332072.856046","332839.541892","333606.446323","334355.95667","335122.824619","335889.467798","345131.42118","Mapping"
"Blocked","m150","tile","14","m150cling.wav","None","731.435772497","109","344373.376416","336656.111906","337423.37807","338173.184295","338939.538707","339706.10614","340472.710982","341239.496381","345122.634786","345889.633206","346656.2971","332839.541892","333606.446323","334355.95667","335122.824619","335889.467798","345898.567693","Mapping"
"Blocked","m150","tile","14","m150jaw.wav","None","728.354243329","109","344373.376416","336656.111906","337423.37807","338173.184295","338939.538707","339706.10614","340472.710982","341239.496381","345122.634786","345889.633206","346656.2971","347422.564326","333606.446323","334355.95667","335122.824619","335889.467798","346665.33918","Mapping"
"Blocked","m150","tile","14","m150tile.wav","None","726.036990061","109","344373.376416","336656.111906","337423.37807","338173.184295","338939.538707","339706.10614","340472.710982","341239.496381","345122.634786","345889.633206","346656.2971","347422.564326","348189.993424","334355.95667","335122.824619","335889.467798","347431.360612","Mapping"
"Blocked","m150","tile","14","m150gnash.wav","None","721.696507651","109","344373.376416","336656.111906","337423.37807","338173.184295","338939.538707","339706.10614","340472.710982","341239.496381","345122.634786","345889.633206","346656.2971","347422.564326","348189.993424","348939.505317","335122.824619","335889.467798","348199.413004","Mapping"
"Blocked","m150","tile","14","m150tile.wav","space","6.62218080834","109","344373.376416","336656.111906","337423.37807","338173.184295","338939.538707","339706.10614","340472.710982","341239.496381","345122.634786","345889.633206","346656.2971","347422.564326","348189.993424","348939.505317","349705.869931","335889.467798","348948.720224","Mapping"
"Blocked","m150","tile","14","m150cad.wav","None","733.348936308","109","344373.376416","336656.111906","337423.37807","338173.184295","338939.538707","339706.10614","340472.710982","341239.496381","345122.634786","345889.633206","346656.2971","347422.564326","348189.993424","348939.505317","349705.869931","350472.800642","349714.865944","Mapping"
"Blocked","m150","tile","14","m150park.wav","space","0.0340091064572","109","344373.376416","351239.316443","337423.37807","338173.184295","338939.538707","339706.10614","340472.710982","341239.496381","345122.634786","345889.633206","346656.2971","347422.564326","348189.993424","348939.505317","349705.869931","350472.800642","350482.22115","Mapping"
"Blocked","m150","tile","14","m150tile.wav","None","726.937920786","109","344373.376416","351239.316443","352006.33434","338173.184295","338939.538707","339706.10614","340472.710982","341239.496381","345122.634786","345889.633206","346656.2971","347422.564326","348189.993424","348939.505317","349705.869931","350472.800642","351248.200225","Mapping"
"Blocked","m150","tile","14","m150cling.wav","None","723.529595416","109","344373.376416","351239.316443","352006.33434","352772.670202","338939.538707","339706.10614","340472.710982","341239.496381","345122.634786","345889.633206","346656.2971","347422.564326","348189.993424","348939.505317","349705.869931","350472.800642","352015.450621","Mapping"
"Blocked","m150","tile","14","m150priest.wav","space","21.2825555354","109","344373.376416","351239.316443","352006.33434","352772.670202","353522.419849","339706.10614","340472.710982","341239.496381","345122.634786","345889.633206","346656.2971","347422.564326","348189.993424","348939.505317","349705.869931","350472.800642","352781.957456","Mapping"
"Blocked","m150","tile","14","m150cave.wav","None","734.654265456","109","344373.376416","351239.316443","352006.33434","352772.670202","353522.419849","354289.162583","340472.710982","341239.496381","345122.634786","345889.633206","346656.2971","347422.564326","348189.993424","348939.505317","349705.869931","350472.800642","353531.189856","Mapping"
"Blocked","m150","tile","14","m150tile.wav","None","731.947454158","109","344373.376416","351239.316443","352006.33434","352772.670202","353522.419849","354289.162583","355055.87038","341239.496381","345122.634786","345889.633206","346656.2971","347422.564326","348189.993424","348939.505317","349705.869931","350472.800642","354297.778003","Mapping"
"Blocked","m150","tile","14","m150done.wav","space","554.53923461","109","344373.376416","351239.316443","352006.33434","352772.670202","353522.419849","354289.162583","355055.87038","355822.404112","345122.634786","345889.633206","346656.2971","347422.564326","348189.993424","348939.505317","349705.869931","350472.800642","355064.703149","Mapping"
"Blocked","m150","ball","5","m150done.wav","None","725.511086406","109","358939.789756","351239.316443","352006.33434","352772.670202","353522.419849","354289.162583","355055.87038","355822.404112","345122.634786","345889.633206","346656.2971","347422.564326","348189.993424","348939.505317","349705.869931","350472.800642","355831.266562","Mapping"
"Blocked","m150","ball","5","m150depth.wav","None","719.804676715","109","358939.789756","351239.316443","352006.33434","352772.670202","353522.419849","354289.162583","355055.87038","355822.404112","359689.073479","345889.633206","346656.2971","347422.564326","348189.993424","348939.505317","349705.869931","350472.800642","358949.338879","Mapping"
"Blocked","m150","ball","5","m150romp.wav","None","734.811016358","109","358939.789756","351239.316443","352006.33434","352772.670202","353522.419849","354289.162583","355055.87038","355822.404112","359689.073479","360456.030779","346656.2971","347422.564326","348189.993424","348939.505317","349705.869931","350472.800642","359698.24943","Mapping"
"Blocked","m150","ball","5","m150depth.wav","None","731.580465566","109","358939.789756","351239.316443","352006.33434","352772.670202","353522.419849","354289.162583","355055.87038","355822.404112","359689.073479","360456.030779","361222.303569","347422.564326","348189.993424","348939.505317","349705.869931","350472.800642","360465.104394","Mapping"
"Blocked","m150","ball","5","m150priest.wav","None","729.286709568","109","358939.789756","351239.316443","352006.33434","352772.670202","353522.419849","354289.162583","355055.87038","355822.404112","359689.073479","360456.030779","361222.303569","361989.029607","348189.993424","348939.505317","349705.869931","350472.800642","361231.062137","Mapping"
"Blocked","m150","ball","5","m150jaw.wav","None","726.421292406","109","358939.789756","351239.316443","352006.33434","352772.670202","353522.419849","354289.162583","355055.87038","355822.404112","359689.073479","360456.030779","361222.303569","361989.029607","362756.321742","348939.505317","349705.869931","350472.800642","361997.724485","Mapping"
"Blocked","m150","ball","5","m150ball.wav","None","721.466173418","109","358939.789756","351239.316443","352006.33434","352772.670202","353522.419849","354289.162583","355055.87038","355822.404112","359689.073479","360456.030779","361222.303569","361989.029607","362756.321742","363522.511983","349705.869931","350472.800642","362766.425831","Mapping"
"Blocked","m150","ball","5","m150jolt.wav","space","703.518050956","109","358939.789756","351239.316443","352006.33434","352772.670202","353522.419849","354289.162583","355055.87038","355822.404112","359689.073479","360456.030779","361222.303569","361989.029607","362756.321742","363522.511983","364272.295948","350472.800642","363531.60353","Mapping"
"Blocked","m150","ball","5","m150ball.wav","None","733.784870477","109","358939.789756","351239.316443","352006.33434","352772.670202","353522.419849","354289.162583","355055.87038","355822.404112","359689.073479","360456.030779","361222.303569","361989.029607","362756.321742","363522.511983","364272.295948","365038.966953","364280.997628","Mapping"
"Blocked","m150","ball","5","m150cling.wav","None","730.854526861","109","358939.789756","365805.638577","352006.33434","352772.670202","353522.419849","354289.162583","355055.87038","355822.404112","359689.073479","360456.030779","361222.303569","361989.029607","362756.321742","363522.511983","364272.295948","365038.966953","365047.726448","Mapping"
"Blocked","m150","ball","5","m150ball.wav","space","60.4931374546","109","358939.789756","365805.638577","366572.654929","352772.670202","353522.419849","354289.162583","355055.87038","355822.404112","359689.073479","360456.030779","361222.303569","361989.029607","362756.321742","363522.511983","364272.295948","365038.966953","365814.560697","Mapping"
"Blocked","m150","ball","5","m150done.wav","space","693.099532509","109","358939.789756","365805.638577","366572.654929","367339.354378","353522.419849","354289.162583","355055.87038","355822.404112","359689.073479","360456.030779","361222.303569","361989.029607","362756.321742","363522.511983","364272.295948","365038.966953","366581.949294","Mapping"
"Blocked","m150","ball","5","m150jolt.wav","None","719.802512554","109","358939.789756","365805.638577","366572.654929","367339.354378","368088.932434","354289.162583","355055.87038","355822.404112","359689.073479","360456.030779","361222.303569","361989.029607","362756.321742","363522.511983","364272.295948","365038.966953","367348.944003","Mapping"
"Blocked","m150","ball","5","m150ball.wav","None","734.785354929","109","358939.789756","365805.638577","366572.654929","367339.354378","368088.932434","368855.411752","355055.87038","355822.404112","359689.073479","360456.030779","361222.303569","361989.029607","362756.321742","363522.511983","364272.295948","365038.966953","368097.842806","Mapping"
"Blocked","m150","ball","5","m150park.wav","space","626.636569854","109","358939.789756","365805.638577","366572.654929","367339.354378","368088.932434","368855.411752","369622.51189","355822.404112","359689.073479","360456.030779","361222.303569","361989.029607","362756.321742","363522.511983","364272.295948","365038.966953","368864.3011","Mapping"
"Blocked","m150","ball","5","m150gnash.wav","None","727.871624054","109","358939.789756","365805.638577","366572.654929","367339.354378","368088.932434","368855.411752","369622.51189","370388.844042","359689.073479","360456.030779","361222.303569","361989.029607","362756.321742","363522.511983","364272.295948","365038.966953","369631.621987","Mapping"
"Blocked","m150","cave","11","m150done.wav","None","725.646504434","109","373506.180527","365805.638577","366572.654929","367339.354378","368088.932434","368855.411752","369622.51189","370388.844042","359689.073479","360456.030779","361222.303569","361989.029607","362756.321742","363522.511983","364272.295948","365038.966953","370397.61343","Mapping"
"Blocked","m150","cave","11","m150lash.wav","None","719.041328179","109","373506.180527","365805.638577","366572.654929","367339.354378","368088.932434","368855.411752","369622.51189","370388.844042","374255.680671","360456.030779","361222.303569","361989.029607","362756.321742","363522.511983","364272.295948","365038.966953","373515.777881","Mapping"
"Blocked","m150","cave","11","m150bluff.wav","None","731.990429107","109","373506.180527","365805.638577","366572.654929","367339.354378","368088.932434","368855.411752","369622.51189","370388.844042","374255.680671","375022.15968","361222.303569","361989.029607","362756.321742","363522.511983","364272.295948","365038.966953","374266.840278","Mapping"
"Blocked","m150","cave","11","m150reek.wav","None","731.588813243","109","373506.180527","365805.638577","366572.654929","367339.354378","368088.932434","368855.411752","369622.51189","370388.844042","374255.680671","375022.15968","375788.891592","361989.029607","362756.321742","363522.511983","364272.295948","365038.966953","375030.99585","Mapping"
"Blocked","m150","cave","11","m150cave.wav","None","727.850909345","109","373506.180527","365805.638577","366572.654929","367339.354378","368088.932434","368855.411752","369622.51189","370388.844042","374255.680671","375022.15968","375788.891592","376555.735426","362756.321742","363522.511983","364272.295948","365038.966953","375798.484928","Mapping"
"Blocked","m150","cave","11","m150bluff.wav","space","550.228741951","109","373506.180527","365805.638577","366572.654929","367339.354378","368088.932434","368855.411752","369622.51189","370388.844042","374255.680671","375022.15968","375788.891592","376555.735426","377322.798772","363522.511983","364272.295948","365038.966953","376564.607769","Mapping"
"Blocked","m150","cave","11","m150cave.wav","None","720.942434156","109","373506.180527","365805.638577","366572.654929","367339.354378","368088.932434","368855.411752","369622.51189","370388.844042","374255.680671","375022.15968","375788.891592","376555.735426","377322.798772","378072.205855","364272.295948","365038.966953","377332.231028","Mapping"
"Blocked","m150","cave","11","m150cling.wav","space","609.581339173","109","373506.180527","365805.638577","366572.654929","367339.354378","368088.932434","368855.411752","369622.51189","370388.844042","374255.680671","375022.15968","375788.891592","376555.735426","377322.798772","378072.205855","378838.677134","365038.966953","378081.222582","Mapping"
"Blocked","m150","cave","11","m150romp.wav","None","732.907127822","109","373506.180527","365805.638577","366572.654929","367339.354378","368088.932434","368855.411752","369622.51189","370388.844042","374255.680671","375022.15968","375788.891592","376555.735426","377322.798772","378072.205855","378838.677134","379605.366072","378847.486097","Mapping"
"Blocked","m150","cave","11","m150cave.wav","None","729.741503485","109","373506.180527","380372.001831","366572.654929","367339.354378","368088.932434","368855.411752","369622.51189","370388.844042","374255.680671","375022.15968","375788.891592","376555.735426","377322.798772","378072.205855","378838.677134","379605.366072","379614.332095","Mapping"
"Blocked","m150","cave","11","m150gnash.wav","space","414.054024499","109","373506.180527","380372.001831","381139.102279","367339.354378","368088.932434","368855.411752","369622.51189","370388.844042","374255.680671","375022.15968","375788.891592","376555.735426","377322.798772","378072.205855","378838.677134","379605.366072","380380.70784","Mapping"
"Blocked","m150","cave","11","m150cad.wav","None","722.625263967","109","373506.180527","380372.001831","381139.102279","381905.686097","368088.932434","368855.411752","369622.51189","370388.844042","374255.680671","375022.15968","375788.891592","376555.735426","377322.798772","378072.205855","378838.677134","379605.366072","381148.204028","Mapping"
"Blocked","m150","cave","11","m150ball.wav","None","720.146003878","109","373506.180527","380372.001831","381139.102279","381905.686097","382655.44842","368855.411752","369622.51189","370388.844042","374255.680671","375022.15968","375788.891592","376555.735426","377322.798772","378072.205855","378838.677134","379605.366072","381914.885546","Mapping"
"Blocked","m150","cave","11","m150lash.wav","None","734.504007269","109","373506.180527","380372.001831","381139.102279","381905.686097","382655.44842","383421.90826","369622.51189","370388.844042","374255.680671","375022.15968","375788.891592","376555.735426","377322.798772","378072.205855","378838.677134","379605.366072","382664.392492","Mapping"
"Blocked","m150","cave","11","m150cave.wav","None","732.014235575","109","373506.180527","380372.001831","381139.102279","381905.686097","382655.44842","383421.90826","384188.635226","370388.844042","374255.680671","375022.15968","375788.891592","376555.735426","377322.798772","378072.205855","378838.677134","379605.366072","383430.843984","Mapping"
"Blocked","m150","cave","11","m150cad.wav","space","506.544732722","109","373506.180527","380372.001831","381139.102279","381905.686097","382655.44842","383421.90826","384188.635226","384955.990741","374255.680671","375022.15968","375788.891592","376555.735426","377322.798772","378072.205855","378838.677134","379605.366072","384192.161346","Mapping"
"Blocked","m150","tile","15","m150knife.wav","None","723.58648316","109","388072.468652","380372.001831","381139.102279","381905.686097","382655.44842","383421.90826","384188.635226","384955.990741","374255.680671","375022.15968","375788.891592","376555.735426","377322.798772","378072.205855","378838.677134","379605.366072","384965.812864","Mapping"
"Blocked","m150","tile","15","m150cave.wav","None","719.303816091","109","388072.468652","380372.001831","381139.102279","381905.686097","382655.44842","383421.90826","384188.635226","384955.990741","388821.810809","375022.15968","375788.891592","376555.735426","377322.798772","378072.205855","378838.677134","379605.366072","388082.504105","Mapping"
"Blocked","m150","tile","15","m150ball.wav","None","735.11988041","109","388072.468652","380372.001831","381139.102279","381905.686097","382655.44842","383421.90826","384188.635226","384955.990741","388821.810809","389588.638256","375788.891592","376555.735426","377322.798772","378072.205855","378838.677134","379605.366072","388830.559792","Mapping"
"Blocked","m150","tile","15","m150cling.wav","None","732.210869668","109","388072.468652","380372.001831","381139.102279","381905.686097","382655.44842","383421.90826","384188.635226","384955.990741","388821.810809","389588.638256","390355.440351","376555.735426","377322.798772","378072.205855","378838.677134","379605.366072","389597.614172","Mapping"
"Blocked","m150","tile","15","m150knife.wav","None","729.283927009","109","388072.468652","380372.001831","381139.102279","381905.686097","382655.44842","383421.90826","384188.635226","384955.990741","388821.810809","389588.638256","390355.440351","391121.975011","377322.798772","378072.205855","378838.677134","379605.366072","390364.485522","Mapping"
"Blocked","m150","tile","15","m150park.wav","None","726.279381895","109","388072.468652","380372.001831","381139.102279","381905.686097","382655.44842","383421.90826","384188.635226","384955.990741","388821.810809","389588.638256","390355.440351","391121.975011","391888.907267","378072.205855","378838.677134","379605.366072","391131.593389","Mapping"
"Blocked","m150","tile","15","m150bluff.wav","None","723.605961306","109","388072.468652","380372.001831","381139.102279","381905.686097","382655.44842","383421.90826","384188.635226","384955.990741","388821.810809","389588.638256","390355.440351","391121.975011","391888.907267","392655.759448","378838.677134","379605.366072","391898.416817","Mapping"
"Blocked","m150","tile","15","m150tile.wav","None","720.79186677","109","388072.468652","380372.001831","381139.102279","381905.686097","382655.44842","383421.90826","384188.635226","384955.990741","388821.810809","389588.638256","390355.440351","391121.975011","391888.907267","392655.759448","393405.120156","379605.366072","392665.28693","Mapping"
"Blocked","m150","tile","15","m150reek.wav","space","644.063735381","109","388072.468652","380372.001831","381139.102279","381905.686097","382655.44842","383421.90826","384188.635226","384955.990741","388821.810809","389588.638256","390355.440351","391121.975011","391888.907267","392655.759448","393405.120156","394171.996452","393414.457495","Mapping"
"Blocked","m150","tile","15","m150tile.wav","None","731.876035221","109","388072.468652","394938.496794","381139.102279","381905.686097","382655.44842","383421.90826","384188.635226","384955.990741","388821.810809","389588.638256","390355.440351","391121.975011","391888.907267","392655.759448","393405.120156","394171.996452","394181.546503","Mapping"
"Blocked","m150","tile","15","m150greet.wav","None","729.957615491","109","388072.468652","394938.496794","395705.304763","381905.686097","382655.44842","383421.90826","384188.635226","384955.990741","388821.810809","389588.638256","390355.440351","391121.975011","391888.907267","392655.759448","393405.120156","394171.996452","394947.419532","Mapping"
"Blocked","m150","tile","15","m150tile.wav","space","0.173446023837","109","388072.468652","394938.496794","395705.304763","396472.349558","382655.44842","383421.90826","384188.635226","384955.990741","388821.810809","389588.638256","390355.440351","391121.975011","391888.907267","392655.759448","393405.120156","394171.996452","395714.409295","Mapping"
"Blocked","m150","tile","15","m150jolt.wav","None","722.170779249","109","388072.468652","394938.496794","395705.304763","396472.349558","397238.624204","383421.90826","384188.635226","384955.990741","388821.810809","389588.638256","390355.440351","391121.975011","391888.907267","392655.759448","393405.120156","394171.996452","396482.397069","Mapping"
"Blocked","m150","tile","15","m150cling.wav","space","0.0225696712732","109","388072.468652","394938.496794","395705.304763","396472.349558","397238.624204","397988.353755","384188.635226","384955.990741","388821.810809","389588.638256","390355.440351","391121.975011","391888.907267","392655.759448","393405.120156","394171.996452","397248.130352","Mapping"
"Blocked","m150","tile","15","m150tile.wav","None","734.644990414","109","388072.468652","394938.496794","395705.304763","396472.349558","397238.624204","397988.353755","398755.015176","384955.990741","388821.810809","389588.638256","390355.440351","391121.975011","391888.907267","392655.759448","393405.120156","394171.996452","397997.099337","Mapping"
"Blocked","m150","tile","15","m150greet.wav","None","731.706299121","109","388072.468652","394938.496794","395705.304763","396472.349558","397238.624204","397988.353755","398755.015176","399521.646607","388821.810809","389588.638256","390355.440351","391121.975011","391888.907267","392655.759448","393405.120156","394171.996452","398764.04056","Mapping"
"Blocked","m150","done","24","m150knife.wav","space","0.0219512730837","109","402655.634233","394938.496794","395705.304763","396472.349558","397238.624204","397988.353755","398755.015176","399521.646607","388821.810809","389588.638256","390355.440351","391121.975011","391888.907267","392655.759448","393405.120156","394171.996452","399530.436401","Mapping"
"Blocked","m150","done","24","m150greet.wav","None","719.532913528","109","402655.634233","394938.496794","395705.304763","396472.349558","397238.624204","397988.353755","398755.015176","399521.646607","403404.804799","389588.638256","390355.440351","391121.975011","391888.907267","392655.759448","393405.120156","394171.996452","402665.801703","Mapping"
"Blocked","m150","done","24","m150cave.wav","None","735.959285637","109","402655.634233","394938.496794","395705.304763","396472.349558","397238.624204","397988.353755","398755.015176","399521.646607","403404.804799","404171.534238","390355.440351","391121.975011","391888.907267","392655.759448","393405.120156","394171.996452","403413.643442","Mapping"
"Blocked","m150","done","24","m150done.wav","None","733.235778986","109","402655.634233","394938.496794","395705.304763","396472.349558","397238.624204","397988.353755","398755.015176","399521.646607","403404.804799","404171.534238","404938.271716","391121.975011","391888.907267","392655.759448","393405.120156","394171.996452","404180.340727","Mapping"
"Blocked","m150","done","24","m150romp.wav","space","567.326019751","109","402655.634233","394938.496794","395705.304763","396472.349558","397238.624204","397988.353755","398755.015176","399521.646607","403404.804799","404171.534238","404938.271716","405705.35423","391888.907267","392655.759448","393405.120156","394171.996452","404947.02039","Mapping"
"Blocked","m150","done","24","m150done.wav","None","726.518372772","109","402655.634233","394938.496794","395705.304763","396472.349558","397238.624204","397988.353755","398755.015176","399521.646607","403404.804799","404171.534238","404938.271716","405705.35423","406472.140867","392655.759448","393405.120156","394171.996452","405714.375595","Mapping"
"Blocked","m150","done","24","m150ball.wav","None","723.252885509","109","402655.634233","394938.496794","395705.304763","396472.349558","397238.624204","397988.353755","398755.015176","399521.646607","403404.804799","404171.534238","404938.271716","405705.35423","406472.140867","407238.540418","393405.120156","394171.996452","406481.595383","Mapping"
"Blocked","m150","done","24","m150romp.wav","space","0.0216420739889","109","402655.634233","394938.496794","395705.304763","396472.349558","397238.624204","397988.353755","398755.015176","399521.646607","403404.804799","404171.534238","404938.271716","405705.35423","406472.140867","407238.540418","407988.065605","394171.996452","407247.916095","Mapping"
"Blocked","m150","done","24","m150dime.wav","None","735.084325541","109","402655.634233","394938.496794","395705.304763","396472.349558","397238.624204","397988.353755","398755.015176","399521.646607","403404.804799","404171.534238","404938.271716","405705.35423","406472.140867","407238.540418","407988.065605","408755.112256","407996.978759","Mapping"
"Blocked","m150","done","24","m150priest.wav","None","732.074833475","109","402655.634233","409521.440079","395705.304763","396472.349558","397238.624204","397988.353755","398755.015176","399521.646607","403404.804799","404171.534238","404938.271716","405705.35423","406472.140867","407238.540418","407988.065605","408755.112256","408763.949354","Mapping"
"Blocked","m150","done","24","m150park.wav","None","730.161051499","109","402655.634233","409521.440079","410288.171992","396472.349558","397238.624204","397988.353755","398755.015176","399521.646607","403404.804799","404171.534238","404938.271716","405705.35423","406472.140867","407238.540418","407988.065605","408755.112256","409530.206994","Mapping"
"Blocked","m150","done","24","m150priest.wav","None","727.578527527","109","402655.634233","409521.440079","410288.171992","411055.093427","397238.624204","397988.353755","398755.015176","399521.646607","403404.804799","404171.534238","404938.271716","405705.35423","406472.140867","407238.540418","407988.065605","408755.112256","410296.818948","Mapping"
"Blocked","m150","done","24","m150done.wav","None","723.805377958","109","402655.634233","409521.440079","410288.171992","411055.093427","411822.185836","397988.353755","398755.015176","399521.646607","403404.804799","404171.534238","404938.271716","405705.35423","406472.140867","407238.540418","407988.065605","408755.112256","411064.619363","Mapping"
"Blocked","m150","done","24","m150priest.wav","None","720.712409355","109","402655.634233","409521.440079","410288.171992","411055.093427","411822.185836","412571.212945","398755.015176","399521.646607","403404.804799","404171.534238","404938.271716","405705.35423","406472.140867","407238.540418","407988.065605","408755.112256","411831.743616","Mapping"
"Blocked","m150","done","24","m150done.wav","space","6.29631220363","109","402655.634233","409521.440079","410288.171992","411055.093427","411822.185836","412571.212945","413338.066054","399521.646607","403404.804799","404171.534238","404938.271716","405705.35423","406472.140867","407238.540418","407988.065605","408755.112256","412579.917098","Mapping"
"Blocked","m150","done","24","m150reek.wav","None","732.955049491","109","402655.634233","409521.440079","410288.171992","411055.093427","411822.185836","412571.212945","413338.066054","414105.065092","403404.804799","404171.534238","404938.271716","405705.35423","406472.140867","407238.540418","407988.065605","408755.112256","413346.750729","Mapping"
"Blocked","m150","tile","18","m150priest.wav","space","39.748852374","109","417238.455704","409521.440079","410288.171992","411055.093427","411822.185836","412571.212945","413338.066054","414105.065092","403404.804799","404171.534238","404938.271716","405705.35423","406472.140867","407238.540418","407988.065605","408755.112256","414114.452208","Mapping"
"Blocked","m150","tile","18","m150tile.wav","None","720.397052588","109","417238.455704","409521.440079","410288.171992","411055.093427","411822.185836","412571.212945","413338.066054","414105.065092","417988.021703","404171.534238","404938.271716","405705.35423","406472.140867","407238.540418","407988.065605","408755.112256","417248.004828","Mapping"
"Blocked","m150","tile","18","m150bluff.wav","space","613.138995133","109","417238.455704","409521.440079","410288.171992","411055.093427","411822.185836","412571.212945","413338.066054","414105.065092","417988.021703","418754.619434","404938.271716","405705.35423","406472.140867","407238.540418","407988.065605","408755.112256","417996.975668","Mapping"
"Blocked","m150","tile","18","m150ball.wav","None","731.873561861","109","417238.455704","409521.440079","410288.171992","411055.093427","411822.185836","412571.212945","413338.066054","414105.065092","417988.021703","418754.619434","419521.247773","405705.35423","406472.140867","407238.540418","407988.065605","408755.112256","418763.700778","Mapping"
"Blocked","m150","tile","18","m150priest.wav","None","729.782314273","109","417238.455704","409521.440079","410288.171992","411055.093427","411822.185836","412571.212945","413338.066054","414105.065092","417988.021703","418754.619434","419521.247773","420287.929909","406472.140867","407238.540418","407988.065605","408755.112256","419529.999539","Mapping"
"Blocked","m150","tile","18","m150tile.wav","None","727.480519796","109","417238.455704","409521.440079","410288.171992","411055.093427","411822.185836","412571.212945","413338.066054","414105.065092","417988.021703","418754.619434","419521.247773","420287.929909","421055.361481","407238.540418","407988.065605","408755.112256","420296.626642","Mapping"
"Blocked","m150","tile","18","m150lash.wav","space","593.12837827","109","417238.455704","409521.440079","410288.171992","411055.093427","411822.185836","412571.212945","413338.066054","414105.065092","417988.021703","418754.619434","419521.247773","420287.929909","421055.361481","421821.463607","407988.065605","408755.112256","421064.906276","Mapping"
"Blocked","m150","tile","18","m150tile.wav","None","721.13659489","109","417238.455704","409521.440079","410288.171992","411055.093427","411822.185836","412571.212945","413338.066054","414105.065092","417988.021703","418754.619434","419521.247773","420287.929909","421055.361481","421821.463607","422571.382372","408755.112256","421830.420046","Mapping"
"Blocked","m150","tile","18","m150priest.wav","None","735.410503345","109","417238.455704","409521.440079","410288.171992","411055.093427","411822.185836","412571.212945","413338.066054","414105.065092","417988.021703","418754.619434","419521.247773","420287.929909","421055.361481","421821.463607","422571.382372","423338.112739","422580.356124","Mapping"
"Blocked","m150","tile","18","m150reek.wav","space","0.0336999073625","109","417238.455704","424104.795802","410288.171992","411055.093427","411822.185836","412571.212945","413338.066054","414105.065092","417988.021703","418754.619434","419521.247773","420287.929909","421055.361481","421821.463607","422571.382372","423338.112739","423347.04939","Mapping"
"Blocked","m150","tile","18","m150tile.wav","None","729.33432227","109","417238.455704","424104.795802","424871.199991","411055.093427","411822.185836","412571.212945","413338.066054","414105.065092","417988.021703","418754.619434","419521.247773","420287.929909","421055.361481","421821.463607","422571.382372","423338.112739","424113.915484","Mapping"
"Blocked","m150","tile","18","m150greet.wav","space","505.887739826","109","417238.455704","424104.795802","424871.199991","425638.476976","411822.185836","412571.212945","413338.066054","414105.065092","417988.021703","418754.619434","419521.247773","420287.929909","421055.361481","421821.463607","422571.382372","423338.112739","424880.084083","Mapping"
"Blocked","m150","tile","18","m150cave.wav","None","723.200016888","109","417238.455704","424104.795802","424871.199991","425638.476976","426405.125102","412571.212945","413338.066054","414105.065092","417988.021703","418754.619434","419521.247773","420287.929909","421055.361481","421821.463607","422571.382372","423338.112739","425647.940767","Mapping"
"Blocked","m150","tile","18","m150ball.wav","None","720.665414818","109","417238.455704","424104.795802","424871.199991","425638.476976","426405.125102","427154.482099","413338.066054","414105.065092","417988.021703","418754.619434","419521.247773","420287.929909","421055.361481","421821.463607","422571.382372","423338.112739","426414.702051","Mapping"
"Blocked","m150","tile","18","m150done.wav","None","735.419469187","109","417238.455704","424104.795802","424871.199991","425638.476976","426405.125102","427154.482099","427921.347265","414105.065092","417988.021703","418754.619434","419521.247773","420287.929909","421055.361481","421821.463607","422571.382372","423338.112739","427164.228784","Mapping"
"Blocked","m150","tile","18","m150jolt.wav","None","733.493629377","109","417238.455704","424104.795802","424871.199991","425638.476976","426405.125102","427154.482099","427921.347265","428687.808342","417988.021703","418754.619434","419521.247773","420287.929909","421055.361481","421821.463607","422571.382372","423338.112739","427930.457054","Mapping"
"Blocked","m150","cave","10","m150park.wav","None","731.697333045","109","431821.741554","424104.795802","424871.199991","425638.476976","426405.125102","427154.482099","427921.347265","428687.808342","417988.021703","418754.619434","419521.247773","420287.929909","421055.361481","421821.463607","422571.382372","423338.112739","428696.552997","Mapping"
"Blocked","m150","cave","10","m150reek.wav","None","718.909620307","109","431821.741554","424104.795802","424871.199991","425638.476976","426405.125102","427154.482099","427921.347265","428687.808342","432571.017857","418754.619434","419521.247773","420287.929909","421055.361481","421821.463607","422571.382372","423338.112739","431831.758457","Mapping"
"Blocked","m150","cave","10","m150cave.wav","None","734.960656147","109","431821.741554","424104.795802","424871.199991","425638.476976","426405.125102","427154.482099","427921.347265","428687.808342","432571.017857","433338.159115","419521.247773","420287.929909","421055.361481","421821.463607","422571.382372","423338.112739","432579.836404","Mapping"
"Blocked","m150","cave","10","m150ball.wav","space","654.369096505","109","431821.741554","424104.795802","424871.199991","425638.476976","426405.125102","427154.482099","427921.347265","428687.808342","432571.017857","433338.159115","434104.661621","420287.929909","421055.361481","421821.463607","422571.382372","423338.112739","433347.47574","Mapping"
"Blocked","m150","cave","10","m150done.wav","None","728.35888085","109","431821.741554","424104.795802","424871.199991","425638.476976","426405.125102","427154.482099","427921.347265","428687.808342","432571.017857","433338.159115","434104.661621","434871.007685","421055.361481","421821.463607","422571.382372","423338.112739","434113.696898","Mapping"
"Blocked","m150","cave","10","m150cave.wav","None","727.050459944","109","431821.741554","424104.795802","424871.199991","425638.476976","426405.125102","427154.482099","427921.347265","428687.808342","432571.017857","433338.159115","434104.661621","434871.007685","435638.227164","421821.463607","422571.382372","423338.112739","434879.85684","Mapping"
"Blocked","m150","cave","10","m150bluff.wav","space","593.910895754","109","431821.741554","424104.795802","424871.199991","425638.476976","426405.125102","427154.482099","427921.347265","428687.808342","432571.017857","433338.159115","434104.661621","434871.007685","435638.227164","436405.393155","422571.382372","423338.112739","435647.895937","Mapping"
"Blocked","m150","cave","10","m150depth.wav","None","719.423775328","109","431821.741554","424104.795802","424871.199991","425638.476976","426405.125102","427154.482099","427921.347265","428687.808342","432571.017857","433338.159115","434104.661621","434871.007685","435638.227164","436405.393155","437154.507451","423338.112739","436414.681646","Mapping"
"Blocked","m150","cave","10","m150tile.wav","None","734.427023213","109","431821.741554","424104.795802","424871.199991","425638.476976","426405.125102","427154.482099","427921.347265","428687.808342","432571.017857","433338.159115","434104.661621","434871.007685","435638.227164","436405.393155","437154.507451","437920.943485","437163.765952","Mapping"
"Blocked","m150","cave","10","m150park.wav","None","732.624234399","109","431821.741554","438687.731976","424871.199991","425638.476976","426405.125102","427154.482099","427921.347265","428687.808342","432571.017857","433338.159115","434104.661621","434871.007685","435638.227164","436405.393155","437154.507451","437920.943485","437929.669899","Mapping"
"Blocked","m150","cave","10","m150cave.wav","None","729.78076851","109","431821.741554","438687.731976","439454.303119","425638.476976","426405.125102","427154.482099","427921.347265","428687.808342","432571.017857","433338.159115","434104.661621","434871.007685","435638.227164","436405.393155","437154.507451","437920.943485","438696.724588","Mapping"
"Blocked","m150","cave","10","m150tile.wav","space","482.452720404","109","431821.741554","438687.731976","439454.303119","440221.490753","426405.125102","427154.482099","427921.347265","428687.808342","432571.017857","433338.159115","434104.661621","434871.007685","435638.227164","436405.393155","437154.507451","437920.943485","439463.272233","Mapping"
"Blocked","m150","cave","10","m150cave.wav","None","722.085138317","109","431821.741554","438687.731976","439454.303119","440221.490753","440988.058494","427154.482099","427921.347265","428687.808342","432571.017857","433338.159115","434104.661621","434871.007685","435638.227164","436405.393155","437154.507451","437920.943485","440231.61432","Mapping"
"Blocked","m150","cave","10","m150bluff.wav","space","484.128130134","109","431821.741554","438687.731976","439454.303119","440221.490753","440988.058494","441737.413327","427921.347265","428687.808342","432571.017857","433338.159115","434104.661621","434871.007685","435638.227164","436405.393155","437154.507451","437920.943485","440997.555058","Mapping"
"Blocked","m150","cave","10","m150lash.wav","None","734.826784115","109","431821.741554","438687.731976","439454.303119","440221.490753","440988.058494","441737.413327","442504.255305","428687.808342","432571.017857","433338.159115","434104.661621","434871.007685","435638.227164","436405.393155","437154.507451","437920.943485","441746.217961","Mapping"
"Blocked","m150","cave","10","m150bluff.wav","None","732.008361258","109","431821.741554","438687.731976","439454.303119","440221.490753","440988.058494","441737.413327","442504.255305","443271.083989","432571.017857","433338.159115","434104.661621","434871.007685","435638.227164","436405.393155","437154.507451","437920.943485","442513.21669","Mapping"
"Blocked","m150","done","20","m150park.wav","None","728.912610095","109","446404.943618","438687.731976","439454.303119","440221.490753","440988.058494","441737.413327","442504.255305","443271.083989","432571.017857","433338.159115","434104.661621","434871.007685","435638.227164","436405.393155","437154.507451","437920.943485","443280.634967","Mapping"
"Blocked","m150","done","20","m150cling.wav","None","719.02030427","109","446404.943618","438687.731976","439454.303119","440221.490753","440988.058494","441737.413327","442504.255305","443271.083989","447154.463858","433338.159115","434104.661621","434871.007685","435638.227164","436405.393155","437154.507451","437920.943485","446414.663405","Mapping"
"Blocked","m150","done","20","m150jolt.wav","None","734.299334465","109","446404.943618","438687.731976","439454.303119","440221.490753","440988.058494","441737.413327","442504.255305","443271.083989","447154.463858","447921.073338","434104.661621","434871.007685","435638.227164","436405.393155","437154.507451","437920.943485","447163.473784","Mapping"
"Blocked","m150","done","20","m150done.wav","None","731.306538219","109","446404.943618","438687.731976","439454.303119","440221.490753","440988.058494","441737.413327","442504.255305","443271.083989","447154.463858","447921.073338","448687.440426","434871.007685","435638.227164","436405.393155","437154.507451","437920.943485","447930.701919","Mapping"
"Blocked","m150","done","20","m150reek.wav","None","730.028107064","109","446404.943618","438687.731976","439454.303119","440221.490753","440988.058494","441737.413327","442504.255305","443271.083989","447154.463858","447921.073338","448687.440426","449454.431735","435638.227164","436405.393155","437154.507451","437920.943485","448696.235476","Mapping"
"Blocked","m150","done","20","m150priest.wav","space","562.036684714","109","446404.943618","438687.731976","439454.303119","440221.490753","440988.058494","441737.413327","442504.255305","443271.083989","447154.463858","447921.073338","448687.440426","449454.431735","450221.024829","436405.393155","437154.507451","437920.943485","449463.540287","Mapping"
"Blocked","m150","done","20","m150cave.wav","None","723.559275968","109","446404.943618","438687.731976","439454.303119","440221.490753","440988.058494","441737.413327","442504.255305","443271.083989","447154.463858","447921.073338","448687.440426","449454.431735","450221.024829","450987.840218","437154.507451","437920.943485","450230.109883","Mapping"
"Blocked","m150","done","20","m150jolt.wav","None","720.270600636","109","446404.943618","438687.731976","439454.303119","440221.490753","440988.058494","441737.413327","442504.255305","443271.083989","447154.463858","447921.073338","448687.440426","449454.431735","450221.024829","450987.840218","451737.162278","437920.943485","450997.725413","Mapping"
"Blocked","m150","done","20","m150done.wav","None","736.228575464","109","446404.943618","438687.731976","439454.303119","440221.490753","440988.058494","441737.413327","442504.255305","443271.083989","447154.463858","447921.073338","448687.440426","449454.431735","450221.024829","450987.840218","451737.162278","452504.277566","451746.075123","Mapping"
"Blocked","m150","done","20","m150reek.wav","space","463.917477988","109","446404.943618","453270.44029","439454.303119","440221.490753","440988.058494","441737.413327","442504.255305","443271.083989","447154.463858","447921.073338","448687.440426","449454.431735","450221.024829","450987.840218","451737.162278","452504.277566","452513.562346","Mapping"
"Blocked","m150","done","20","m150done.wav","None","734.192979056","109","446404.943618","453270.44029","454037.595152","440221.490753","440988.058494","441737.413327","442504.255305","443271.083989","447154.463858","447921.073338","448687.440426","449454.431735","450221.024829","450987.840218","451737.162278","452504.277566","453279.00377","Mapping"
"Blocked","m150","done","20","m150knife.wav","None","730.2819381","109","446404.943618","453270.44029","454037.595152","454804.339122","440988.058494","441737.413327","442504.255305","443271.083989","447154.463858","447921.073338","448687.440426","449454.431735","450221.024829","450987.840218","451737.162278","452504.277566","454047.223733","Mapping"
"Blocked","m150","done","20","m150gnash.wav","None","728.433082579","109","446404.943618","453270.44029","454037.595152","454804.339122","455570.834208","441737.413327","442504.255305","443271.083989","447154.463858","447921.073338","448687.440426","449454.431735","450221.024829","450987.840218","451737.162278","452504.277566","454813.340391","Mapping"
"Blocked","m150","done","20","m150done.wav","space","149.445049465","109","446404.943618","453270.44029","454037.595152","454804.339122","455570.834208","456337.679896","442504.255305","443271.083989","447154.463858","447921.073338","448687.440426","449454.431735","450221.024829","450987.840218","451737.162278","452504.277566","455579.984498","Mapping"
"Blocked","m150","done","20","m150park.wav","None","722.046800889","109","446404.943618","453270.44029","454037.595152","454804.339122","455570.834208","456337.679896","457104.448909","443271.083989","447154.463858","447921.073338","448687.440426","449454.431735","450221.024829","450987.840218","451737.162278","452504.277566","456347.330738","Mapping"
"Blocked","m150","done","20","m150tile.wav","space","0.0225696712732","109","446404.943618","453270.44029","454037.595152","454804.339122","455570.834208","456337.679896","457104.448909","457853.741289","447154.463858","447921.073338","448687.440426","449454.431735","450221.024829","450987.840218","451737.162278","452504.277566","457113.537674","Mapping"
"Blocked","m150","cave","12","m150reek.wav","None","734.263470629","109","460987.731698","453270.44029","454037.595152","454804.339122","455570.834208","456337.679896","457104.448909","457853.741289","447154.463858","447921.073338","448687.440426","449454.431735","450221.024829","450987.840218","451737.162278","452504.277566","457862.550871","Mapping"
"Blocked","m150","cave","12","m150gnash.wav","None","720.400453545","109","460987.731698","453270.44029","454037.595152","454804.339122","455570.834208","456337.679896","457104.448909","457853.741289","461737.235552","447921.073338","448687.440426","449454.431735","450221.024829","450987.840218","451737.162278","452504.277566","460997.272165","Mapping"
"Blocked","m150","cave","12","m150knife.wav","None","735.327335773","109","460987.731698","453270.44029","454037.595152","454804.339122","455570.834208","456337.679896","457104.448909","457853.741289","461737.235552","462504.199654","448687.440426","449454.431735","450221.024829","450987.840218","451737.162278","452504.277566","461746.558979","Mapping"
"Blocked","m150","cave","12","m150tile.wav","None","732.860751683","109","460987.731698","453270.44029","454037.595152","454804.339122","455570.834208","456337.679896","457104.448909","457853.741289","461737.235552","462504.199654","463270.461933","449454.431735","450221.024829","450987.840218","451737.162278","452504.277566","462513.271105","Mapping"
"Blocked","m150","cave","12","m150cave.wav","None","731.281185988","109","460987.731698","453270.44029","454037.595152","454804.339122","455570.834208","456337.679896","457104.448909","457853.741289","461737.235552","462504.199654","463270.461933","464037.369455","450221.024829","450987.840218","451737.162278","452504.277566","463279.217717","Mapping"
"Blocked","m150","cave","12","m150ball.wav","space","690.969947493","109","460987.731698","453270.44029","454037.595152","454804.339122","455570.834208","456337.679896","457104.448909","457853.741289","461737.235552","462504.199654","463270.461933","464037.369455","464804.187009","450987.840218","451737.162278","452504.277566","464046.32342","Mapping"
"Blocked","m150","cave","12","m150cave.wav","None","724.265427794","109","460987.731698","453270.44029","454037.595152","454804.339122","455570.834208","456337.679896","457104.448909","457853.741289","461737.235552","462504.199654","463270.461933","464037.369455","464804.187009","465571.038881","451737.162278","452504.277566","464813.421394","Mapping"
"Blocked","m150","cave","12","m150dime.wav","space","604.156586342","109","460987.731698","453270.44029","454037.595152","454804.339122","455570.834208","456337.679896","457104.448909","457853.741289","461737.235552","462504.199654","463270.461933","464037.369455","464804.187009","465571.038881","466320.261387","452504.277566","465581.102778","Mapping"
"Blocked","m150","cave","12","m150romp.wav","None","736.339877825","109","460987.731698","453270.44029","454037.595152","454804.339122","455570.834208","456337.679896","457104.448909","457853.741289","461737.235552","462504.199654","463270.461933","464037.369455","464804.187009","465571.038881","466320.261387","467087.155306","466329.065712","Mapping"
"Blocked","m150","cave","12","m150reek.wav","None","733.245363226","109","460987.731698","467853.598451","454037.595152","454804.339122","455570.834208","456337.679896","457104.448909","457853.741289","461737.235552","462504.199654","463270.461933","464037.369455","464804.187009","465571.038881","466320.261387","467087.155306","467096.684025","Mapping"
"Blocked","m150","cave","12","m150lash.wav","None","732.178715756","109","460987.731698","467853.598451","468620.69457","454804.339122","455570.834208","456337.679896","457104.448909","457853.741289","461737.235552","462504.199654","463270.461933","464037.369455","464804.187009","465571.038881","466320.261387","467087.155306","467862.366294","Mapping"
"Blocked","m150","cave","12","m150cave.wav","None","728.738854639","109","460987.731698","467853.598451","468620.69457","469387.249326","455570.834208","456337.679896","457104.448909","457853.741289","461737.235552","462504.199654","463270.461933","464037.369455","464804.187009","465571.038881","466320.261387","467087.155306","468630.155579","Mapping"
"Blocked","m150","cave","12","m150reek.wav","space","452.988514677","109","460987.731698","467853.598451","468620.69457","469387.249326","470154.122531","456337.679896","457104.448909","457853.741289","461737.235552","462504.199654","463270.461933","464037.369455","464804.187009","465571.038881","466320.261387","467087.155306","469396.197417","Mapping"
"Blocked","m150","cave","12","m150cad.wav","None","723.464050796","109","460987.731698","467853.598451","468620.69457","469387.249326","470154.122531","470920.95307","457104.448909","457853.741289","461737.235552","462504.199654","463270.461933","464037.369455","464804.187009","465571.038881","466320.261387","467087.155306","470163.369283","Mapping"
"Blocked","m150","cave","12","m150cave.wav","None","720.444356091","109","460987.731698","467853.598451","468620.69457","469387.249326","470154.122531","470920.95307","471670.313468","457853.741289","461737.235552","462504.199654","463270.461933","464037.369455","464804.187009","465571.038881","466320.261387","467087.155306","470930.912157","Mapping"
"Blocked","m150","cave","12","m150dime.wav","space","553.729509935","109","460987.731698","467853.598451","468620.69457","469387.249326","470154.122531","470920.95307","471670.313468","472437.005188","461737.235552","462504.199654","463270.461933","464037.369455","464804.187009","465571.038881","466320.261387","467087.155306","471679.41429","Mapping"
"Blocked","m150","done","23","m150jaw.wav","None","732.918876456","109","475570.54173","467853.598451","468620.69457","469387.249326","470154.122531","470920.95307","471670.313468","472437.005188","461737.235552","462504.199654","463270.461933","464037.369455","464804.187009","465571.038881","466320.261387","467087.155306","472445.657399","Mapping"
"Blocked","m150","done","23","m150ball.wav","None","720.417148899","109","475570.54173","467853.598451","468620.69457","469387.249326","470154.122531","470920.95307","471670.313468","472437.005188","476320.476572","462504.199654","463270.461933","464037.369455","464804.187009","465571.038881","466320.261387","467087.155306","475579.758801","Mapping"
"Blocked","m150","done","23","m150cave.wav","None","734.818436438","109","475570.54173","467853.598451","468620.69457","469387.249326","470154.122531","470920.95307","471670.313468","472437.005188","476320.476572","477087.112332","463270.461933","464037.369455","464804.187009","465571.038881","466320.261387","467087.155306","476329.575539","Mapping"
"Blocked","m150","done","23","m150tile.wav","None","738.305600826","109","475570.54173","467853.598451","468620.69457","469387.249326","470154.122531","470920.95307","471670.313468","472437.005188","476320.476572","477087.112332","477853.387286","464037.369455","464804.187009","465571.038881","466320.261387","467087.155306","477090.649273","Mapping"
"Blocked","m150","done","23","m150done.wav","None","731.297881342","109","475570.54173","467853.598451","468620.69457","469387.249326","470154.122531","470920.95307","471670.313468","472437.005188","476320.476572","477087.112332","477853.387286","478620.228337","464804.187009","465571.038881","466320.261387","467087.155306","477862.138743","Mapping"
"Blocked","m150","done","23","m150jolt.wav","space","459.972118726","109","475570.54173","467853.598451","468620.69457","469387.249326","470154.122531","470920.95307","471670.313468","472437.005188","476320.476572","477087.112332","477853.387286","478620.228337","479386.944481","465571.038881","466320.261387","467087.155306","478629.031116","Mapping"
"Blocked","m150","done","23","m150lash.wav","None","730.921926675","109","475570.54173","467853.598451","468620.69457","469387.249326","470154.122531","470920.95307","471670.313468","472437.005188","476320.476572","477087.112332","477853.387286","478620.228337","479386.944481","480154.211573","466320.261387","467087.155306","479390.40784","Mapping"
"Blocked","m150","done","23","m150priest.wav","None","721.951266285","109","475570.54173","467853.598451","468620.69457","469387.249326","470154.122531","470920.95307","471670.313468","472437.005188","476320.476572","477087.112332","477853.387286","478620.228337","479386.944481","480154.211573","480920.51157","467087.155306","480163.872617","Mapping"
"Blocked","m150","done","23","m150done.wav","None","720.567406854","109","475570.54173","467853.598451","468620.69457","469387.249326","470154.122531","470920.95307","471670.313468","472437.005188","476320.476572","477087.112332","477853.387286","478620.228337","479386.944481","480154.211573","480920.51157","481669.986362","480929.799442","Mapping"
"Blocked","m150","done","23","m150greet.wav","space","410.172354896","109","475570.54173","482436.912745","468620.69457","469387.249326","470154.122531","470920.95307","471670.313468","472437.005188","476320.476572","477087.112332","477853.387286","478620.228337","479386.944481","480154.211573","480920.51157","481669.986362","481678.786668","Mapping"
"Blocked","m150","done","23","m150done.wav","None","731.664869701","109","475570.54173","482436.912745","483203.482341","469387.249326","470154.122531","470920.95307","471670.313468","472437.005188","476320.476572","477087.112332","477853.387286","478620.228337","479386.944481","480154.211573","480920.51157","481669.986362","482446.35644","Mapping"
"Blocked","m150","done","23","m150romp.wav","None","730.481664184","109","475570.54173","482436.912745","483203.482341","483970.426347","470154.122531","470920.95307","471670.313468","472437.005188","476320.476572","477087.112332","477853.387286","478620.228337","479386.944481","480154.211573","480920.51157","481669.986362","483212.377873","Mapping"
"Blocked","m150","done","23","m150jolt.wav","space","0.0343180727214","109","475570.54173","482436.912745","483203.482341","483970.426347","484737.286566","470920.95307","471670.313468","472437.005188","476320.476572","477087.112332","477853.387286","478620.228337","479386.944481","480154.211573","480920.51157","481669.986362","483979.83727","Mapping"
"Blocked","m150","done","23","m150depth.wav","None","723.734886386","109","475570.54173","482436.912745","483203.482341","483970.426347","484737.286566","485503.686426","471670.313468","472437.005188","476320.476572","477087.112332","477853.387286","478620.228337","479386.944481","480154.211573","480920.51157","481669.986362","484746.786222","Mapping"
"Blocked","m150","done","23","m150done.wav","None","722.195513081","109","475570.54173","482436.912745","483203.482341","483970.426347","484737.286566","485503.686426","486270.765541","472437.005188","476320.476572","477087.112332","477853.387286","478620.228337","479386.944481","480154.211573","480920.51157","481669.986362","485512.832079","Mapping"
"Blocked","m150","done","23","m150reek.wav","space","664.692389546","109","475570.54173","482436.912745","483203.482341","483970.426347","484737.286566","485503.686426","486270.765541","487020.283617","476320.476572","477087.112332","477853.387286","478620.228337","479386.944481","480154.211573","480920.51157","481669.986362","486280.172444","Mapping"
"Blocked","m150","ball","6","m150dime.wav","None","733.013792429","109","490154.057604","482436.912745","483203.482341","483970.426347","484737.286566","485503.686426","486270.765541","487020.283617","476320.476572","477087.112332","477853.387286","478620.228337","479386.944481","480154.211573","480920.51157","481669.986362","487029.477191","Mapping"
"Blocked","m150","ball","6","m150bluff.wav","None","718.675576383","109","490154.057604","482436.912745","483203.482341","483970.426347","484737.286566","485503.686426","486270.765541","487020.283617","490903.326178","477087.112332","477853.387286","478620.228337","479386.944481","480154.211573","480920.51157","481669.986362","490164.149945","Mapping"
"Blocked","m150","ball","6","m150cad.wav","None","735.189753585","109","490154.057604","482436.912745","483203.482341","483970.426347","484737.286566","485503.686426","486270.765541","487020.283617","490903.326178","491670.061182","477853.387286","478620.228337","479386.944481","480154.211573","480920.51157","481669.986362","490912.243351","Mapping"
"Blocked","m150","ball","6","m150ball.wav","None","733.154466376","109","490154.057604","482436.912745","483203.482341","483970.426347","484737.286566","485503.686426","486270.765541","487020.283617","490903.326178","491670.061182","492436.786602","478620.228337","479386.944481","480154.211573","480920.51157","481669.986362","491678.79718","Mapping"
"Blocked","m150","ball","6","m150cad.wav","None","730.952225626","109","490154.057604","482436.912745","483203.482341","483970.426347","484737.286566","485503.686426","486270.765541","487020.283617","490903.326178","491670.061182","492436.786602","493203.642184","479386.944481","480154.211573","480920.51157","481669.986362","492445.691099","Mapping"
"Blocked","m150","ball","6","m150lash.wav","space","259.162888862","109","490154.057604","482436.912745","483203.482341","483970.426347","484737.286566","485503.686426","486270.765541","487020.283617","490903.326178","491670.061182","492436.786602","493203.642184","493970.081309","480154.211573","480920.51157","481669.986362","493213.612401","Mapping"
"Blocked","m150","ball","6","m150priest.wav","None","725.794289261","109","490154.057604","482436.912745","483203.482341","483970.426347","484737.286566","485503.686426","486270.765541","487020.283617","490903.326178","491670.061182","492436.786602","493203.642184","493970.081309","494736.987286","480920.51157","481669.986362","493978.807414","Mapping"
"Blocked","m150","ball","6","m150ball.wav","None","722.463257145","109","490154.057604","482436.912745","483203.482341","483970.426347","484737.286566","485503.686426","486270.765541","487020.283617","490903.326178","491670.061182","492436.786602","493203.642184","493970.081309","494736.987286","495503.773613","481669.986362","494746.69347","Mapping"
"Blocked","m150","ball","6","m150bluff.wav","space","551.819128683","109","490154.057604","482436.912745","483203.482341","483970.426347","484737.286566","485503.686426","486270.765541","487020.283617","490903.326178","491670.061182","492436.786602","493203.642184","493970.081309","494736.987286","495503.773613","496253.44844","495512.909063","Mapping"
"Blocked","m150","ball","6","m150ball.wav","None","734.50122471","109","490154.057604","497020.231367","483203.482341","483970.426347","484737.286566","485503.686426","486270.765541","487020.283617","490903.326178","491670.061182","492436.786602","493203.642184","493970.081309","494736.987286","495503.773613","496253.44844","496262.38571","Mapping"
"Blocked","m150","ball","6","m150priest.wav","None","731.889329618","109","490154.057604","497020.231367","497786.617623","483970.426347","484737.286566","485503.686426","486270.765541","487020.283617","490903.326178","491670.061182","492436.786602","493203.642184","493970.081309","494736.987286","495503.773613","496253.44844","497029.429269","Mapping"
"Blocked","m150","ball","6","m150cling.wav","space","37.3586344067","109","490154.057604","497020.231367","497786.617623","498553.234833","484737.286566","485503.686426","486270.765541","487020.283617","490903.326178","491670.061182","492436.786602","493203.642184","493970.081309","494736.987286","495503.773613","496253.44844","497795.299207","Mapping"
"Blocked","m150","ball","6","m150ball.wav","None","726.458083838","109","490154.057604","497020.231367","497786.617623","498553.234833","499320.569942","485503.686426","486270.765541","487020.283617","490903.326178","491670.061182","492436.786602","493203.642184","493970.081309","494736.987286","495503.773613","496253.44844","498562.391615","Mapping"
"Blocked","m150","ball","6","m150done.wav","space","670.902133221","109","490154.057604","497020.231367","497786.617623","498553.234833","499320.569942","500087.007522","486270.765541","487020.283617","490903.326178","491670.061182","492436.786602","493203.642184","493970.081309","494736.987286","495503.773613","496253.44844","499329.760116","Mapping"
"Blocked","m150","ball","6","m150cad.wav","None","720.019552158","109","490154.057604","497020.231367","497786.617623","498553.234833","499320.569942","500087.007522","500836.545076","487020.283617","490903.326178","491670.061182","492436.786602","493203.642184","493970.081309","494736.987286","495503.773613","496253.44844","500096.463584","Mapping"
"Blocked","m150","ball","6","m150cling.wav","None","735.608374001","109","490154.057604","497020.231367","497786.617623","498553.234833","499320.569942","500087.007522","500836.545076","501603.353354","490903.326178","491670.061182","492436.786602","493203.642184","493970.081309","494736.987286","495503.773613","496253.44844","500845.474307","Mapping"
"Blocked","m150","cave","7","m150knife.wav","None","733.43457724","109","504737.070145","497020.231367","497786.617623","498553.234833","499320.569942","500087.007522","500836.545076","501603.353354","490903.326178","491670.061182","492436.786602","493203.642184","493970.081309","494736.987286","495503.773613","496253.44844","501612.249195","Mapping"
"Blocked","m150","cave","7","m150tile.wav","None","719.722436508","109","504737.070145","497020.231367","497786.617623","498553.234833","499320.569942","500087.007522","500836.545076","501603.353354","505486.461769","491670.061182","492436.786602","493203.642184","493970.081309","494736.987286","495503.773613","496253.44844","504746.889486","Mapping"
"Blocked","m150","cave","7","m150cave.wav","None","735.530771548","109","504737.070145","497020.231367","497786.617623","498553.234833","499320.569942","500087.007522","500836.545076","501603.353354","505486.461769","506253.44504","492436.786602","493203.642184","493970.081309","494736.987286","495503.773613","496253.44844","505495.441396","Mapping"
"Blocked","m150","cave","7","m150cling.wav","space","617.689406266","109","504737.070145","497020.231367","497786.617623","498553.234833","499320.569942","500087.007522","500836.545076","501603.353354","505486.461769","506253.44504","507019.705154","493203.642184","493970.081309","494736.987286","495503.773613","496253.44844","506262.809896","Mapping"
"Blocked","m150","cave","7","m150priest.wav","None","730.414882535","109","504737.070145","497020.231367","497786.617623","498553.234833","499320.569942","500087.007522","500836.545076","501603.353354","505486.461769","506253.44504","507019.705154","507786.443868","493970.081309","494736.987286","495503.773613","496253.44844","507028.448572","Mapping"
"Blocked","m150","cave","7","m150greet.wav","None","728.507284075","109","504737.070145","497020.231367","497786.617623","498553.234833","499320.569942","500087.007522","500836.545076","501603.353354","505486.461769","506253.44504","507019.705154","507786.443868","508553.325111","494736.987286","495503.773613","496253.44844","507795.335999","Mapping"
"Blocked","m150","cave","7","m150cave.wav","None","726.039154455","109","504737.070145","497020.231367","497786.617623","498553.234833","499320.569942","500087.007522","500836.545076","501603.353354","505486.461769","506253.44504","507019.705154","507786.443868","508553.325111","509320.066299","495503.773613","496253.44844","508562.373065","Mapping"
"Blocked","m150","cave","7","m150depth.wav","None","723.819909152","109","504737.070145","497020.231367","497786.617623","498553.234833","499320.569942","500087.007522","500836.545076","501603.353354","505486.461769","506253.44504","507019.705154","507786.443868","508553.325111","509320.066299","510086.489038","496253.44844","509329.119199","Mapping"
"Blocked","m150","cave","7","m150cad.wav","None","722.111108946","109","504737.070145","497020.231367","497786.617623","498553.234833","499320.569942","500087.007522","500836.545076","501603.353354","505486.461769","506253.44504","507019.705154","507786.443868","508553.325111","509320.066299","510086.489038","510852.971757","510095.617995","Mapping"
"Blocked","m150","cave","7","m150jaw.wav","None","720.506190788","109","504737.070145","511602.833325","497786.617623","498553.234833","499320.569942","500087.007522","500836.545076","501603.353354","505486.461769","506253.44504","507019.705154","507786.443868","508553.325111","509320.066299","510086.489038","510852.971757","510862.040735","Mapping"
"Blocked","m150","cave","7","m150jolt.wav","None","735.563234659","109","504737.070145","511602.833325","512369.615014","498553.234833","499320.569942","500087.007522","500836.545076","501603.353354","505486.461769","506253.44504","507019.705154","507786.443868","508553.325111","509320.066299","510086.489038","510852.971757","511611.578598","Mapping"
"Blocked","m150","cave","7","m150cave.wav","None","733.304415364","109","504737.070145","511602.833325","512369.615014","513136.387738","499320.569942","500087.007522","500836.545076","501603.353354","505486.461769","506253.44504","507019.705154","507786.443868","508553.325111","509320.066299","510086.489038","510852.971757","512378.422431","Mapping"
"Blocked","m150","cave","7","m150ball.wav","space","494.952901965","109","504737.070145","511602.833325","512369.615014","513136.387738","513903.256614","500087.007522","500836.545076","501603.353354","505486.461769","506253.44504","507019.705154","507786.443868","508553.325111","509320.066299","510086.489038","510852.971757","513145.454551","Mapping"
"Blocked","m150","cave","7","m150cave.wav","None","727.624285268","109","504737.070145","511602.833325","512369.615014","513136.387738","513903.256614","514669.980179","500836.545076","501603.353354","505486.461769","506253.44504","507019.705154","507786.443868","508553.325111","509320.066299","510086.489038","510852.971757","513912.279525","Mapping"
"Blocked","m150","cave","7","m150done.wav","space","536.672733724","109","504737.070145","511602.833325","512369.615014","513136.387738","513903.256614","514669.980179","515436.602026","501603.353354","505486.461769","506253.44504","507019.705154","507786.443868","508553.325111","509320.066299","510086.489038","510852.971757","514679.686362","Mapping"
"Blocked","m150","cave","7","m150romp.wav","None","721.728352364","109","504737.070145","511602.833325","512369.615014","513136.387738","513903.256614","514669.980179","515436.602026","516203.148434","505486.461769","506253.44504","507019.705154","507786.443868","508553.325111","509320.066299","510086.489038","510852.971757","515445.868256","Mapping"
"Blocked","m150","tile","16","m150reek.wav","None","719.513744814","109","519336.658388","511602.833325","512369.615014","513136.387738","513903.256614","514669.980179","515436.602026","516203.148434","505486.461769","506253.44504","507019.705154","507786.443868","508553.325111","509320.066299","510086.489038","510852.971757","516212.744552","Mapping"
"Blocked","m150","tile","16","m150tile.wav","None","720.235354966","109","519336.658388","511602.833325","512369.615014","513136.387738","513903.256614","514669.980179","515436.602026","516203.148434","520085.92758","506253.44504","507019.705154","507786.443868","508553.325111","509320.066299","510086.489038","510852.971757","519346.159589","Mapping"
"Blocked","m150","tile","16","m150lash.wav","space","689.499519765","109","519336.658388","511602.833325","512369.615014","513136.387738","513903.256614","514669.980179","515436.602026","516203.148434","520085.92758","520852.726583","507019.705154","507786.443868","508553.325111","509320.066299","510086.489038","510852.971757","520094.75602","Mapping"
"Blocked","m150","tile","16","m150done.wav","None","732.179643121","109","519336.658388","511602.833325","512369.615014","513136.387738","513903.256614","514669.980179","515436.602026","516203.148434","520085.92758","520852.726583","521619.445819","507786.443868","508553.325111","509320.066299","510086.489038","510852.971757","520862.360111","Mapping"
"Blocked","m150","tile","16","m150park.wav","None","731.132782763","109","519336.658388","511602.833325","512369.615014","513136.387738","513903.256614","514669.980179","515436.602026","516203.148434","520085.92758","520852.726583","521619.445819","522386.124245","508553.325111","509320.066299","510086.489038","510852.971757","521628.239633","Mapping"
"Blocked","m150","tile","16","m150priest.wav","None","729.156238493","109","519336.658388","511602.833325","512369.615014","513136.387738","513903.256614","514669.980179","515436.602026","516203.148434","520085.92758","520852.726583","521619.445819","522386.124245","523153.108133","509320.066299","510086.489038","510852.971757","522394.997207","Mapping"
"Blocked","m150","tile","16","m150tile.wav","None","726.735412376","109","519336.658388","511602.833325","512369.615014","513136.387738","513903.256614","514669.980179","515436.602026","516203.148434","520085.92758","520852.726583","521619.445819","522386.124245","523153.108133","523919.632282","510086.489038","510852.971757","523162.167836","Mapping"
"Blocked","m150","tile","16","m150gnash.wav","space","591.49903548","109","519336.658388","511602.833325","512369.615014","513136.387738","513903.256614","514669.980179","515436.602026","516203.148434","520085.92758","520852.726583","521619.445819","522386.124245","523153.108133","523919.632282","524686.639358","510852.971757","523928.720737","Mapping"
"Blocked","m150","tile","16","m150tile.wav","None","720.567716053","109","519336.658388","511602.833325","512369.615014","513136.387738","513903.256614","514669.980179","515436.602026","516203.148434","520085.92758","520852.726583","521619.445819","522386.124245","523153.108133","523919.632282","524686.639358","525453.30789","524696.294837","Mapping"
"Blocked","m150","tile","16","m150priest.wav","space","609.261035686","109","519336.658388","526202.741253","512369.615014","513136.387738","513903.256614","514669.980179","515436.602026","516203.148434","520085.92758","520852.726583","521619.445819","522386.124245","523153.108133","523919.632282","524686.639358","525453.30789","525462.908027","Mapping"
"Blocked","m150","tile","16","m150bluff.wav","None","733.266386902","109","519336.658388","526202.741253","526969.318579","513136.387738","513903.256614","514669.980179","515436.602026","516203.148434","520085.92758","520852.726583","521619.445819","522386.124245","523153.108133","523919.632282","524686.639358","525453.30789","526211.790444","Mapping"
"Blocked","m150","tile","16","m150dime.wav","None","731.950545916","109","519336.658388","526202.741253","526969.318579","527736.141698","513903.256614","514669.980179","515436.602026","516203.148434","520085.92758","520852.726583","521619.445819","522386.124245","523153.108133","523919.632282","524686.639358","525453.30789","526978.079311","Mapping"
