"Condition","Talker","Target","Trial","current_stimulus","response_response","response_time_response","subject_nr","time_Audio1","time_Audio10","time_Audio11","time_Audio12","time_Audio13","time_Audio14","time_Audio15","time_Audio16","time_Audio2","time_Audio3","time_Audio4","time_Audio5","time_Audio6","time_Audio7","time_Audio8","time_Audio9","time_response","title"
"Mixed","Both","done","41","m150cad.wav","NA","NA","119","338860.231763","NA","NA","NA","NA","NA","NA","NA","NA","NA","NA","NA","NA","NA","NA","NA","NA","Mapping"
"Mixed","Both","done","41","m160done.wav","None","711.962807691","119","338860.231763","NA","NA","NA","NA","NA","NA","NA","339626.90926","NA","NA","NA","NA","NA","NA","NA","338878.9185","Mapping"
"Mixed","Both","done","41","m160cad.wav","space","0.0389558263123","119","338860.231763","NA","NA","NA","NA","NA","NA","NA","339626.90926","340375.780856","NA","NA","NA","NA","NA","NA","339637.254505","Mapping"
"Mixed","Both","done","41","m150done.wav","None","735.89776014","119","338860.231763","NA","NA","NA","NA","NA","NA","NA","339626.90926","340375.780856","341142.737228","NA","NA","NA","NA","NA","340385.676253","Mapping"
"Mixed","Both","done","41","m150bluff.wav","space","565.034428146","119","338860.231763","NA","NA","NA","NA","NA","NA","NA","339626.90926","340375.780856","341142.737228","341909.505623","NA","NA","NA","NA","341152.784429","Mapping"
"Mixed","Both","done","41","m160cling.wav","None","732.872809516","119","338860.231763","NA","NA","NA","NA","NA","NA","NA","339626.90926","340375.780856","341142.737228","341909.505623","342675.910739","NA","NA","NA","341919.345987","Mapping"
"Mixed","Both","done","41","m150done.wav","None","732.636910398","119","338860.231763","NA","NA","NA","NA","NA","NA","NA","339626.90926","340375.780856","341142.737228","341909.505623","342675.910739","343442.845469","NA","NA","342685.134922","Mapping"
"Mixed","Both","done","41","m160gnash.wav","space","393.502044957","119","338860.231763","NA","NA","NA","NA","NA","NA","NA","339626.90926","340375.780856","341142.737228","341909.505623","342675.910739","343442.845469","344209.329116","NA","343452.237842","Mapping"
"Mixed","Both","done","41","m150tile.wav","None","729.738411726","119","338860.231763","NA","NA","NA","NA","NA","NA","NA","339626.90926","340375.780856","341142.737228","341909.505623","342675.910739","343442.845469","344209.329116","344975.999194","344218.640176","Mapping"
"Mixed","Both","done","41","m160done.wav","None","728.229028173","119","338860.231763","345742.6062","NA","NA","NA","NA","NA","NA","339626.90926","340375.780856","341142.737228","341909.505623","342675.910739","343442.845469","344209.329116","344975.999194","344985.330968","Mapping"
"Mixed","Both","done","41","m150jolt.wav","space","261.550015071","119","338860.231763","345742.6062","346509.67573","NA","NA","NA","NA","NA","339626.90926","340375.780856","341142.737228","341909.505623","342675.910739","343442.845469","344209.329116","344975.999194","345752.128426","Mapping"
"Mixed","Both","done","41","m150cling.wav","None","724.509365391","119","338860.231763","345742.6062","346509.67573","347276.806476","NA","NA","NA","NA","339626.90926","340375.780856","341142.737228","341909.505623","342675.910739","343442.845469","344209.329116","344975.999194","346519.607301","Mapping"
"Mixed","Both","done","41","m160reek.wav","None","722.278989851","119","338860.231763","345742.6062","346509.67573","347276.806476","348043.160579","NA","NA","NA","339626.90926","340375.780856","341142.737228","341909.505623","342675.910739","343442.845469","344209.329116","344975.999194","347287.120494","Mapping"
"Mixed","Both","done","41","m160reek.wav","None","721.192864468","119","338860.231763","345742.6062","346509.67573","347276.806476","348043.160579","348810.00503","NA","NA","339626.90926","340375.780856","341142.737228","341909.505623","342675.910739","343442.845469","344209.329116","344975.999194","348053.814996","Mapping"
"Mixed","Both","done","41","m160lash.wav","None","720.322541893","119","338860.231763","345742.6062","346509.67573","347276.806476","348043.160579","348810.00503","349577.085999","NA","339626.90926","340375.780856","341142.737228","341909.505623","342675.910739","343442.845469","344209.329116","344975.999194","348819.984523","Mapping"
"Mixed","Both","done","41","m150park.wav","None","718.250153819","119","338860.231763","345742.6062","346509.67573","347276.806476","348043.160579","348810.00503","349577.085999","350326.054984","339626.90926","340375.780856","341142.737228","341909.505623","342675.910739","343442.845469","344209.329116","344975.999194","349587.336946","Mapping"
"Mixed","Both","done","42","m150dime.wav","None","735.429671826","119","353543.251939","345742.6062","346509.67573","347276.806476","348043.160579","348810.00503","349577.085999","350326.054984","339626.90926","340375.780856","341142.737228","341909.505623","342675.910739","343442.845469","344209.329116","344975.999194","350335.42355","Mapping"
"Mixed","Both","done","42","m150romp.wav","None","721.521515632","119","353543.251939","345742.6062","346509.67573","347276.806476","348043.160579","348810.00503","349577.085999","350326.054984","354309.922017","340375.780856","341142.737228","341909.505623","342675.910739","343442.845469","344209.329116","344975.999194","353553.247818","Mapping"
"Mixed","Both","done","42","m160greet.wav","None","725.164812524","119","353543.251939","345742.6062","346509.67573","347276.806476","348043.160579","348810.00503","349577.085999","350326.054984","354309.922017","355076.56025","341142.737228","341909.505623","342675.910739","343442.845469","344209.329116","344975.999194","354315.068514","Mapping"
"Mixed","Both","done","42","m160ball.wav","None","718.515733723","119","353543.251939","345742.6062","346509.67573","347276.806476","348043.160579","348810.00503","349577.085999","350326.054984","354309.922017","355076.56025","355826.081727","341909.505623","342675.910739","343442.845469","344209.329116","344975.999194","355087.310512","Mapping"
"Mixed","Both","done","42","m150ball.wav","None","735.307548428","119","353543.251939","345742.6062","346509.67573","347276.806476","348043.160579","348810.00503","349577.085999","350326.054984","354309.922017","355076.56025","355826.081727","356592.531365","342675.910739","343442.845469","344209.329116","344975.999194","355835.796568","Mapping"
"Mixed","Both","done","42","m150greet.wav","None","734.663849929","119","353543.251939","345742.6062","346509.67573","347276.806476","348043.160579","348810.00503","349577.085999","350326.054984","354309.922017","355076.56025","355826.081727","356592.531365","357359.117039","343442.845469","344209.329116","344975.999194","356602.414705","Mapping"
"Mixed","Both","done","42","m160done.wav","None","733.525783289","119","353543.251939","345742.6062","346509.67573","347276.806476","348043.160579","348810.00503","349577.085999","350326.054984","354309.922017","355076.56025","355826.081727","356592.531365","357359.117039","358126.126279","344209.329116","344975.999194","357368.893095","Mapping"
"Mixed","Both","done","42","m150cave.wav","space","366.013146471","119","353543.251939","345742.6062","346509.67573","347276.806476","348043.160579","348810.00503","349577.085999","350326.054984","354309.922017","355076.56025","355826.081727","356592.531365","357359.117039","358126.126279","358892.732358","344975.999194","358135.520816","Mapping"
"Mixed","Both","done","42","m160done.wav","None","730.809696717","119","353543.251939","345742.6062","346509.67573","347276.806476","348043.160579","348810.00503","349577.085999","350326.054984","354309.922017","355076.56025","355826.081727","356592.531365","357359.117039","358126.126279","358892.732358","359659.391615","358902.179764","Mapping"
"Mixed","Both","done","42","m160cad.wav","space","457.016732078","119","353543.251939","360426.036032","346509.67573","347276.806476","348043.160579","348810.00503","349577.085999","350326.054984","354309.922017","355076.56025","355826.081727","356592.531365","357359.117039","358126.126279","358892.732358","359659.391615","359668.478834","Mapping"
"Mixed","Both","done","42","m150cling.wav","None","727.437235415","119","353543.251939","360426.036032","361192.795461","347276.806476","348043.160579","348810.00503","349577.085999","350326.054984","354309.922017","355076.56025","355826.081727","356592.531365","357359.117039","358126.126279","358892.732358","359659.391615","360436.123117","Mapping"
"Mixed","Both","done","42","m160reek.wav","None","726.894945838","119","353543.251939","360426.036032","361192.795461","361959.023112","348043.160579","348810.00503","349577.085999","350326.054984","354309.922017","355076.56025","355826.081727","356592.531365","357359.117039","358126.126279","358892.732358","359659.391615","361202.427752","Mapping"
"Mixed","Both","done","42","m150done.wav","None","725.819950458","119","353543.251939","360426.036032","361192.795461","361959.023112","362726.019677","348810.00503","349577.085999","350326.054984","354309.922017","355076.56025","355826.081727","356592.531365","357359.117039","358126.126279","358892.732358","359659.391615","361968.801642","Mapping"
"Mixed","Both","done","42","m160jaw.wav","space","333.543777233","119","353543.251939","360426.036032","361192.795461","361959.023112","362726.019677","363492.614007","349577.085999","350326.054984","354309.922017","355076.56025","355826.081727","356592.531365","357359.117039","358126.126279","358892.732358","359659.391615","362735.894668","Mapping"
"Mixed","Both","done","42","m150done.wav","None","723.081912613","119","353543.251939","360426.036032","361192.795461","361959.023112","362726.019677","363492.614007","364259.728058","350326.054984","354309.922017","355076.56025","355826.081727","356592.531365","357359.117039","358126.126279","358892.732358","359659.391615","363502.353581","Mapping"
"Mixed","Both","done","42","m160jolt.wav","space","391.373387538","119","353543.251939","360426.036032","361192.795461","361959.023112","362726.019677","363492.614007","364259.728058","365025.805141","354309.922017","355076.56025","355826.081727","356592.531365","357359.117039","358126.126279","358892.732358","359659.391615","364270.009612","Mapping"
"Mixed","Both","cave","17","m150ball.wav","None","720.40941962","119","368142.340249","360426.036032","361192.795461","361959.023112","362726.019677","363492.614007","364259.728058","365025.805141","354309.922017","355076.56025","355826.081727","356592.531365","357359.117039","358126.126279","358892.732358","359659.391615","365035.584599","Mapping"
"Mixed","Both","cave","17","m160cling.wav","None","722.697919467","119","368142.340249","360426.036032","361192.795461","361959.023112","362726.019677","363492.614007","364259.728058","365025.805141","368909.386282","355076.56025","355826.081727","356592.531365","357359.117039","358126.126279","358892.732358","359659.391615","368151.683155","Mapping"
"Mixed","Both","cave","17","m150cave.wav","None","720.907806884","119","368142.340249","360426.036032","361192.795461","361959.023112","362726.019677","363492.614007","364259.728058","365025.805141","368909.386282","369676.571133","355826.081727","356592.531365","357359.117039","358126.126279","358892.732358","359659.391615","368918.913145","Mapping"
"Mixed","Both","cave","17","m150gnash.wav","space","398.492100416","119","368142.340249","360426.036032","361192.795461","361959.023112","362726.019677","363492.614007","364259.728058","365025.805141","368909.386282","369676.571133","370425.597933","356592.531365","357359.117039","358126.126279","358892.732358","359659.391615","369686.811877","Mapping"
"Mixed","Both","cave","17","m160cave.wav","None","735.801298171","119","368142.340249","360426.036032","361192.795461","361959.023112","362726.019677","363492.614007","364259.728058","365025.805141","368909.386282","369676.571133","370425.597933","371192.369729","357359.117039","358126.126279","358892.732358","359659.391615","370434.845304","Mapping"
"Mixed","Both","cave","17","m160reek.wav","space","467.016011709","119","368142.340249","360426.036032","361192.795461","361959.023112","362726.019677","363492.614007","364259.728058","365025.805141","368909.386282","369676.571133","370425.597933","371192.369729","371958.882747","358126.126279","358892.732358","359659.391615","371202.26018","Mapping"
"Mixed","Both","cave","17","m160lash.wav","None","732.587442733","119","368142.340249","360426.036032","361192.795461","361959.023112","362726.019677","363492.614007","364259.728058","365025.805141","368909.386282","369676.571133","370425.597933","371192.369729","371958.882747","372725.797381","358892.732358","359659.391615","371968.617684","Mapping"
"Mixed","Both","cave","17","m160cave.wav","None","730.905849719","119","368142.340249","360426.036032","361192.795461","361959.023112","362726.019677","363492.614007","364259.728058","365025.805141","368909.386282","369676.571133","370425.597933","371192.369729","371958.882747","372725.797381","373492.576906","359659.391615","372735.629089","Mapping"
"Mixed","Both","cave","17","m150dime.wav","space","373.03075986","119","368142.340249","360426.036032","361192.795461","361959.023112","362726.019677","363492.614007","364259.728058","365025.805141","368909.386282","369676.571133","370425.597933","371192.369729","371958.882747","372725.797381","373492.576906","374259.148358","373568.23097","Mapping"
"Mixed","Both","cave","17","m150cave.wav","None","728.423807072","119","368142.340249","375025.878106","361192.795461","361959.023112","362726.019677","363492.614007","364259.728058","365025.805141","368909.386282","369676.571133","370425.597933","371192.369729","371958.882747","372725.797381","373492.576906","374259.148358","374268.726234","Mapping"
"Mixed","Both","cave","17","m160priest.wav","space","393.877999624","119","368142.340249","375025.878106","375792.568589","361959.023112","362726.019677","363492.614007","364259.728058","365025.805141","368909.386282","369676.571133","370425.597933","371192.369729","371958.882747","372725.797381","373492.576906","374259.148358","375035.292739","Mapping"
"Mixed","Both","cave","17","m150lash.wav","None","724.95271964","119","368142.340249","375025.878106","375792.568589","376559.138186","362726.019677","363492.614007","364259.728058","365025.805141","368909.386282","369676.571133","370425.597933","371192.369729","371958.882747","372725.797381","373492.576906","374259.148358","375802.711016","Mapping"
"Mixed","Both","cave","17","m150jaw.wav","None","724.429289578","119","368142.340249","375025.878106","375792.568589","376559.138186","377325.509293","363492.614007","364259.728058","365025.805141","368909.386282","369676.571133","370425.597933","371192.369729","371958.882747","372725.797381","373492.576906","374259.148358","376568.651136","Mapping"
"Mixed","Both","cave","17","m160tile.wav","None","723.805687157","119","368142.340249","375025.878106","375792.568589","376559.138186","377325.509293","378092.798027","364259.728058","365025.805141","368909.386282","369676.571133","370425.597933","371192.369729","371958.882747","372725.797381","373492.576906","374259.148358","377334.6197","Mapping"
"Mixed","Both","cave","17","m160park.wav","None","721.113716019","119","368142.340249","375025.878106","375792.568589","376559.138186","377325.509293","378092.798027","378859.478307","365025.805141","368909.386282","369676.571133","370425.597933","371192.369729","371958.882747","372725.797381","373492.576906","374259.148358","378102.715066","Mapping"
"Mixed","Both","cave","17","m150park.wav","None","719.712543068","119","368142.340249","375025.878106","375792.568589","376559.138186","377325.509293","378092.798027","378859.478307","379626.238046","368909.386282","369676.571133","370425.597933","371192.369729","371958.882747","372725.797381","373492.576906","374259.148358","378869.616715","Mapping"
"Mixed","Both","ball","8","m150cling.wav","None","718.271177728","119","382742.582394","375025.878106","375792.568589","376559.138186","377325.509293","378092.798027","378859.478307","379626.238046","368909.386282","369676.571133","370425.597933","371192.369729","371958.882747","372725.797381","373492.576906","374259.148358","379636.450036","Mapping"
"Mixed","Both","ball","8","m150ball.wav","None","721.651986707","119","382742.582394","375025.878106","375792.568589","376559.138186","377325.509293","378092.798027","378859.478307","379626.238046","383509.419425","369676.571133","370425.597933","371192.369729","371958.882747","372725.797381","373492.576906","374259.148358","382752.348248","Mapping"
"Mixed","Both","ball","8","m160knife.wav","space","413.975494448","119","382742.582394","375025.878106","375792.568589","376559.138186","377325.509293","378092.798027","378859.478307","379626.238046","383509.419425","384275.391699","370425.597933","371192.369729","371958.882747","372725.797381","373492.576906","374259.148358","383519.094382","Mapping"
"Mixed","Both","ball","8","m160ball.wav","None","723.341927165","119","382742.582394","375025.878106","375792.568589","376559.138186","377325.509293","378092.798027","378859.478307","379626.238046","383509.419425","384275.391699","385042.719079","371192.369729","371958.882747","372725.797381","373492.576906","374259.148358","384284.035255","Mapping"
"Mixed","Both","ball","8","m150reek.wav","space","485.961217899","119","382742.582394","375025.878106","375792.568589","376559.138186","377325.509293","378092.798027","378859.478307","379626.238046","383509.419425","384275.391699","385042.719079","385808.903446","371958.882747","372725.797381","373492.576906","374259.148358","385047.030809","Mapping"
"Mixed","Both","ball","8","m160depth.wav","None","720.381593797","119","382742.582394","375025.878106","375792.568589","376559.138186","377325.509293","378092.798027","378859.478307","379626.238046","383509.419425","384275.391699","385042.719079","385808.903446","386558.481811","372725.797381","373492.576906","374259.148358","385817.777335","Mapping"
"Mixed","Both","ball","8","m150ball.wav","None","736.32843839","119","382742.582394","375025.878106","375792.568589","376559.138186","377325.509293","378092.798027","378859.478307","379626.238046","383509.419425","384275.391699","385042.719079","385808.903446","386558.481811","387325.438493","373492.576906","374259.148358","386567.337768","Mapping"
"Mixed","Both","ball","8","m160romp.wav","space","397.94177236","119","382742.582394","375025.878106","375792.568589","376559.138186","377325.509293","378092.798027","378859.478307","379626.238046","383509.419425","384275.391699","385042.719079","385808.903446","386558.481811","387325.438493","388092.154946","374259.148358","387335.063673","Mapping"
"Mixed","Both","ball","8","m160ball.wav","None","733.336260309","119","382742.582394","375025.878106","375792.568589","376559.138186","377325.509293","378092.798027","378859.478307","379626.238046","383509.419425","384275.391699","385042.719079","385808.903446","386558.481811","387325.438493","388092.154946","388858.818841","388101.453949","Mapping"
"Mixed","Both","ball","8","m160cad.wav","space","417.380418628","119","382742.582394","389625.288266","375792.568589","376559.138186","377325.509293","378092.798027","378859.478307","379626.238046","383509.419425","384275.391699","385042.719079","385808.903446","386558.481811","387325.438493","388092.154946","388858.818841","388867.542781","Mapping"
"Mixed","Both","ball","8","m150bluff.wav","None","732.61310393","119","382742.582394","389625.288266","390391.990806","376559.138186","377325.509293","378092.798027","378859.478307","379626.238046","383509.419425","384275.391699","385042.719079","385808.903446","386558.481811","387325.438493","388092.154946","388858.818841","389634.004785","Mapping"
"Mixed","Both","ball","8","m150dime.wav","None","730.476099066","119","382742.582394","389625.288266","390391.990806","391158.840823","377325.509293","378092.798027","378859.478307","379626.238046","383509.419425","384275.391699","385042.719079","385808.903446","386558.481811","387325.438493","388092.154946","388858.818841","390401.653396","Mapping"
"Mixed","Both","ball","8","m160romp.wav","None","729.782932438","119","382742.582394","389625.288266","390391.990806","391158.840823","391925.104647","378092.798027","378859.478307","379626.238046","383509.419425","384275.391699","385042.719079","385808.903446","386558.481811","387325.438493","388092.154946","388858.818841","391167.842401","Mapping"
"Mixed","Both","ball","8","m150cling.wav","None","729.334631236","119","382742.582394","389625.288266","390391.990806","391158.840823","391925.104647","392692.159646","378859.478307","379626.238046","383509.419425","384275.391699","385042.719079","385808.903446","386558.481811","387325.438493","388092.154946","388858.818841","391933.865689","Mapping"
"Mixed","Both","ball","8","m150priest.wav","None","727.290687384","119","382742.582394","389625.288266","390391.990806","391158.840823","391925.104647","392692.159646","393458.854458","379626.238046","383509.419425","384275.391699","385042.719079","385808.903446","386558.481811","387325.438493","388092.154946","388858.818841","392701.555419","Mapping"
"Mixed","Both","ball","8","m160depth.wav","None","726.616998902","119","382742.582394","389625.288266","390391.990806","391158.840823","391925.104647","392692.159646","393458.854458","394225.199285","383509.419425","384275.391699","385042.719079","385808.903446","386558.481811","387325.438493","388092.154946","388858.818841","393467.749062","Mapping"
"Mixed","Both","done","39","m150cave.wav","None","725.925069535","119","397359.163414","389625.288266","390391.990806","391158.840823","391925.104647","392692.159646","393458.854458","394225.199285","383509.419425","384275.391699","385042.719079","385808.903446","386558.481811","387325.438493","388092.154946","388858.818841","394234.020615","Mapping"
"Mixed","Both","done","39","m150done.wav","None","722.025158582","119","397359.163414","389625.288266","390391.990806","391158.840823","391925.104647","392692.159646","393458.854458","394225.199285","398125.797628","384275.391699","385042.719079","385808.903446","386558.481811","387325.438493","388092.154946","388858.818841","397368.666162","Mapping"
"Mixed","Both","done","39","m160bluff.wav","space","509.593799012","119","397359.163414","389625.288266","390391.990806","391158.840823","391925.104647","392692.159646","393458.854458","394225.199285","398125.797628","398892.579627","385042.719079","385808.903446","386558.481811","387325.438493","388092.154946","388858.818841","398135.199894","Mapping"
"Mixed","Both","done","39","m150done.wav","None","719.605878461","119","397359.163414","389625.288266","390391.990806","391158.840823","391925.104647","392692.159646","393458.854458","394225.199285","398125.797628","398892.579627","399642.128311","385808.903446","386558.481811","387325.438493","388092.154946","388858.818841","398901.850494","Mapping"
"Mixed","Both","done","39","m160priest.wav","space","521.288584452","119","397359.163414","389625.288266","390391.990806","391158.840823","391925.104647","392692.159646","393458.854458","394225.199285","398125.797628","398892.579627","399642.128311","400408.3606","386558.481811","387325.438493","388092.154946","388858.818841","399651.477709","Mapping"
"Mixed","Both","done","39","m150tile.wav","None","740.434567677","119","397359.163414","389625.288266","390391.990806","391158.840823","391925.104647","392692.159646","393458.854458","394225.199285","398125.797628","398892.579627","399642.128311","400408.3606","401175.423946","387325.438493","388092.154946","388858.818841","400411.821794","Mapping"
"Mixed","Both","done","39","m150jaw.wav","None","733.431794681","119","397359.163414","389625.288266","390391.990806","391158.840823","391925.104647","392692.159646","393458.854458","394225.199285","398125.797628","398892.579627","399642.128311","400408.3606","401175.423946","401941.683133","388092.154946","388858.818841","401184.466026","Mapping"
"Mixed","Both","done","39","m160done.wav","None","732.923204778","119","397359.163414","389625.288266","390391.990806","391158.840823","391925.104647","392692.159646","393458.854458","394225.199285","398125.797628","398892.579627","399642.128311","400408.3606","401175.423946","401941.683133","402708.617863","388858.818841","401950.491168","Mapping"
"Mixed","Both","done","39","m150tile.wav","space","399.017385906","119","397359.163414","389625.288266","390391.990806","391158.840823","391925.104647","392692.159646","393458.854458","394225.199285","398125.797628","398892.579627","399642.128311","400408.3606","401175.423946","401941.683133","402708.617863","403475.343901","402717.675401","Mapping"
"Mixed","Both","done","39","m150reek.wav","None","729.635457043","119","397359.163414","404242.031293","390391.990806","391158.840823","391925.104647","392692.159646","393458.854458","394225.199285","398125.797628","398892.579627","399642.128311","400408.3606","401175.423946","401941.683133","402708.617863","403475.343901","403484.594672","Mapping"
"Mixed","Both","done","39","m160greet.wav","None","728.670218261","119","397359.163414","404242.031293","405008.651285","391158.840823","391925.104647","392692.159646","393458.854458","394225.199285","398125.797628","398892.579627","399642.128311","400408.3606","401175.423946","401941.683133","402708.617863","403475.343901","404251.137371","Mapping"
"Mixed","Both","done","39","m160romp.wav","None","727.834522957","119","397359.163414","404242.031293","405008.651285","405775.267566","391925.104647","392692.159646","393458.854458","394225.199285","398125.797628","398892.579627","399642.128311","400408.3606","401175.423946","401941.683133","402708.617863","403475.343901","405017.542797","Mapping"
"Mixed","Both","done","39","m150lash.wav","None","726.808686275","119","397359.163414","404242.031293","405008.651285","405775.267566","406541.56138","392692.159646","393458.854458","394225.199285","398125.797628","398892.579627","399642.128311","400408.3606","401175.423946","401941.683133","402708.617863","403475.343901","405784.382301","Mapping"
"Mixed","Both","done","39","m160done.wav","None","726.49858566","119","397359.163414","404242.031293","405008.651285","405775.267566","406541.56138","407308.572785","393458.854458","394225.199285","398125.797628","398892.579627","399642.128311","400408.3606","401175.423946","401941.683133","402708.617863","403475.343901","406550.445472","Mapping"
"Mixed","Both","done","39","m160greet.wav","space","447.024254361","119","397359.163414","404242.031293","405008.651285","405775.267566","406541.56138","407308.572785","408075.892745","394225.199285","398125.797628","398892.579627","399642.128311","400408.3606","401175.423946","401941.683133","402708.617863","403475.343901","407317.618884","Mapping"
"Mixed","Both","done","39","m160cave.wav","None","721.718458692","119","397359.163414","404242.031293","405008.651285","405775.267566","406541.56138","407308.572785","408075.892745","408842.821292","398125.797628","398892.579627","399642.128311","400408.3606","401175.423946","401941.683133","402708.617863","403475.343901","408086.094224","Mapping"
"Mixed","Both","cave","13","m160lash.wav","None","721.089600585","119","411959.018474","404242.031293","405008.651285","405775.267566","406541.56138","407308.572785","408075.892745","408842.821292","398125.797628","398892.579627","399642.128311","400408.3606","401175.423946","401941.683133","402708.617863","403475.343901","408852.388347","Mapping"
"Mixed","Both","cave","13","m150cave.wav","None","722.020211862","119","411959.018474","404242.031293","405008.651285","405775.267566","406541.56138","407308.572785","408075.892745","408842.821292","412725.804801","398892.579627","399642.128311","400408.3606","401175.423946","401941.683133","402708.617863","403475.343901","411968.512874","Mapping"
"Mixed","Both","cave","13","m150dime.wav","None","720.776717411","119","411959.018474","404242.031293","405008.651285","405775.267566","406541.56138","407308.572785","408075.892745","408842.821292","412725.804801","413492.204353","399642.128311","400408.3606","401175.423946","401941.683133","402708.617863","403475.343901","412735.366291","Mapping"
"Mixed","Both","cave","13","m150jaw.wav","space","94.9291577563","119","411959.018474","404242.031293","405008.651285","405775.267566","406541.56138","407308.572785","408075.892745","408842.821292","412725.804801","413492.204353","414241.609271","400408.3606","401175.423946","401941.683133","402708.617863","403475.343901","413501.59487","Mapping"
"Mixed","Both","cave","13","m160park.wav","None","736.429538112","119","411959.018474","404242.031293","405008.651285","405775.267566","406541.56138","407308.572785","408075.892745","408842.821292","412725.804801","413492.204353","414241.609271","415008.378594","401175.423946","401941.683133","402708.617863","403475.343901","414250.450388","Mapping"
"Mixed","Both","cave","13","m160done.wav","None","735.382368322","119","411959.018474","404242.031293","405008.651285","405775.267566","406541.56138","407308.572785","408075.892745","408842.821292","412725.804801","413492.204353","414241.609271","415008.378594","415774.650147","401941.683133","402708.617863","403475.343901","415017.223112","Mapping"
"Mixed","Both","cave","13","m160done.wav","None","737.854826497","119","411959.018474","404242.031293","405008.651285","405775.267566","406541.56138","407308.572785","408075.892745","408842.821292","412725.804801","413492.204353","414241.609271","415008.378594","415774.650147","416541.174914","402708.617863","403475.343901","415782.176042","Mapping"
"Mixed","Both","cave","13","m150jolt.wav","None","735.780892661","119","411959.018474","404242.031293","405008.651285","405775.267566","406541.56138","407308.572785","408075.892745","408842.821292","412725.804801","413492.204353","414241.609271","415008.378594","415774.650147","416541.174914","417308.320191","403475.343901","416550.006137","Mapping"
"Mixed","Both","cave","13","m160gnash.wav","None","734.389613383","119","411959.018474","404242.031293","405008.651285","405775.267566","406541.56138","407308.572785","408075.892745","408842.821292","412725.804801","413492.204353","414241.609271","415008.378594","415774.650147","416541.174914","417308.320191","418074.997689","417317.389787","Mapping"
"Mixed","Both","cave","13","m150cave.wav","None","733.375834301","119","411959.018474","418842.066291","405008.651285","405775.267566","406541.56138","407308.572785","408075.892745","408842.821292","412725.804801","413492.204353","414241.609271","415008.378594","415774.650147","416541.174914","417308.320191","418074.997689","418084.080888","Mapping"
"Mixed","Both","cave","13","m160reek.wav","space","361.00454093","119","411959.018474","418842.066291","419607.985697","405775.267566","406541.56138","407308.572785","408075.892745","408842.821292","412725.804801","413492.204353","414241.609271","415008.378594","415774.650147","416541.174914","417308.320191","418074.997689","418851.399302","Mapping"
"Mixed","Both","cave","13","m160cave.wav","None","731.497297995","119","411959.018474","418842.066291","419607.985697","420375.019671","406541.56138","407308.572785","408075.892745","408842.821292","412725.804801","413492.204353","414241.609271","415008.378594","415774.650147","416541.174914","417308.320191","418074.997689","419616.88401","Mapping"
"Mixed","Both","cave","13","m150dime.wav","space","620.410439791","119","411959.018474","418842.066291","419607.985697","420375.019671","421141.691295","407308.572785","408075.892745","408842.821292","412725.804801","413492.204353","414241.609271","415008.378594","415774.650147","416541.174914","417308.320191","418074.997689","420383.966835","Mapping"
"Mixed","Both","cave","13","m160cave.wav","None","728.512539994","119","411959.018474","418842.066291","419607.985697","420375.019671","421141.691295","421908.329837","408075.892745","408842.821292","412725.804801","413492.204353","414241.609271","415008.378594","415774.650147","416541.174914","417308.320191","418074.997689","421150.775731","Mapping"
"Mixed","Both","cave","13","m150depth.wav","space","623.053252231","119","411959.018474","418842.066291","419607.985697","420375.019671","421141.691295","421908.329837","422674.933134","408842.821292","412725.804801","413492.204353","414241.609271","415008.378594","415774.650147","416541.174914","417308.320191","418074.997689","421917.291532","Mapping"
"Mixed","Both","cave","13","m150romp.wav","None","725.786868948","119","411959.018474","418842.066291","419607.985697","420375.019671","421141.691295","421908.329837","422674.933134","423441.159239","412725.804801","413492.204353","414241.609271","415008.378594","415774.650147","416541.174914","417308.320191","418074.997689","422684.602526","Mapping"
"Mixed","Both","ball","3","m160done.wav","None","726.345544914","119","426575.87806","418842.066291","419607.985697","420375.019671","421141.691295","421908.329837","422674.933134","423441.159239","412725.804801","413492.204353","414241.609271","415008.378594","415774.650147","416541.174914","417308.320191","418074.997689","423449.841441","Mapping"
"Mixed","Both","ball","3","m150priest.wav","None","721.603755374","119","426575.87806","418842.066291","419607.985697","420375.019671","421141.691295","421908.329837","422674.933134","423441.159239","427342.044185","413492.204353","414241.609271","415008.378594","415774.650147","416541.174914","417308.320191","418074.997689","426586.167035","Mapping"
"Mixed","Both","ball","3","m150knife.wav","None","721.688468941","119","426575.87806","418842.066291","419607.985697","420375.019671","421141.691295","421908.329837","422674.933134","423441.159239","427342.044185","428109.027456","414241.609271","415008.378594","415774.650147","416541.174914","417308.320191","418074.997689","427351.853633","Mapping"
"Mixed","Both","ball","3","m150ball.wav","None","720.572972205","119","426575.87806","418842.066291","419607.985697","420375.019671","421141.691295","421908.329837","422674.933134","423441.159239","427342.044185","428109.027456","428875.227281","415008.378594","415774.650147","416541.174914","417308.320191","418074.997689","428118.631612","Mapping"
"Mixed","Both","ball","3","m160done.wav","space","343.392489478","119","426575.87806","418842.066291","419607.985697","420375.019671","421141.691295","421908.329837","422674.933134","423441.159239","427342.044185","428109.027456","428875.227281","429625.149756","415774.650147","416541.174914","417308.320191","418074.997689","428884.81536","Mapping"
"Mixed","Both","ball","3","m160dime.wav","None","736.234140582","119","426575.87806","418842.066291","419607.985697","420375.019671","421141.691295","421908.329837","422674.933134","423441.159239","427342.044185","428109.027456","428875.227281","429625.149756","430391.223439","416541.174914","417308.320191","418074.997689","429634.03663","Mapping"
"Mixed","Both","ball","3","m150ball.wav","None","735.281578032","119","426575.87806","418842.066291","419607.985697","420375.019671","421141.691295","421908.329837","422674.933134","423441.159239","427342.044185","428109.027456","428875.227281","429625.149756","430391.223439","431157.701829","417308.320191","418074.997689","430401.086064","Mapping"
"Mixed","Both","ball","3","m150depth.wav","space","445.626791567","119","426575.87806","418842.066291","419607.985697","420375.019671","421141.691295","421908.329837","422674.933134","423441.159239","427342.044185","428109.027456","428875.227281","429625.149756","430391.223439","431157.701829","431924.792073","418074.997689","431166.562115","Mapping"
"Mixed","Both","ball","3","m160ball.wav","None","732.914238703","119","426575.87806","418842.066291","419607.985697","420375.019671","421141.691295","421908.329837","422674.933134","423441.159239","427342.044185","428109.027456","428875.227281","429625.149756","430391.223439","431157.701829","431924.792073","432691.38022","431934.468267","Mapping"
"Mixed","Both","ball","3","m150priest.wav","space","439.451056998","119","426575.87806","433458.160982","419607.985697","420375.019671","421141.691295","421908.329837","422674.933134","423441.159239","427342.044185","428109.027456","428875.227281","429625.149756","430391.223439","431157.701829","431924.792073","432691.38022","432700.703647","Mapping"
"Mixed","Both","ball","3","m150jaw.wav","None","731.157516595","119","426575.87806","433458.160982","434224.74511","420375.019671","421141.691295","421908.329837","422674.933134","423441.159239","427342.044185","428109.027456","428875.227281","429625.149756","430391.223439","431157.701829","431924.792073","432691.38022","433467.261805","Mapping"
"Mixed","Both","ball","3","m160romp.wav","None","730.617391178","119","426575.87806","433458.160982","434224.74511","434991.40684","421141.691295","421908.329837","422674.933134","423441.159239","427342.044185","428109.027456","428875.227281","429625.149756","430391.223439","431157.701829","431924.792073","432691.38022","434233.612816","Mapping"
"Mixed","Both","ball","3","m160knife.wav","None","729.273105972","119","426575.87806","433458.160982","434224.74511","434991.40684","435758.076609","421908.329837","422674.933134","423441.159239","427342.044185","428109.027456","428875.227281","429625.149756","430391.223439","431157.701829","431924.792073","432691.38022","435000.79272","Mapping"
"Mixed","Both","ball","3","m150tile.wav","None","728.80285373","119","426575.87806","433458.160982","434224.74511","434991.40684","435758.076609","436524.74545","422674.933134","423441.159239","427342.044185","428109.027456","428875.227281","429625.149756","430391.223439","431157.701829","431924.792073","432691.38022","435767.184851","Mapping"
"Mixed","Both","ball","3","m160ball.wav","None","728.220062098","119","426575.87806","433458.160982","434224.74511","434991.40684","435758.076609","436524.74545","437291.276091","423441.159239","427342.044185","428109.027456","428875.227281","429625.149756","430391.223439","431157.701829","431924.792073","432691.38022","436533.865441","Mapping"
"Mixed","Both","ball","3","m160lash.wav","space","303.85511159","119","426575.87806","433458.160982","434224.74511","434991.40684","435758.076609","436524.74545","437291.276091","438057.726656","427342.044185","428109.027456","428875.227281","429625.149756","430391.223439","431157.701829","431924.792073","432691.38022","437300.221708","Mapping"
"Mixed","Both","ball","2","m150dime.wav","None","726.71686206","119","441191.723866","433458.160982","434224.74511","434991.40684","435758.076609","436524.74545","437291.276091","438057.726656","427342.044185","428109.027456","428875.227281","429625.149756","430391.223439","431157.701829","431924.792073","432691.38022","438066.478421","Mapping"
"Mixed","Both","ball","2","m150gnash.wav","None","722.022685222","119","441191.723866","433458.160982","434224.74511","434991.40684","435758.076609","436524.74545","437291.276091","438057.726656","441957.900504","428109.027456","428875.227281","429625.149756","430391.223439","431157.701829","431924.792073","432691.38022","441201.241763","Mapping"
"Mixed","Both","ball","2","m150cad.wav","None","722.541477764","119","441191.723866","433458.160982","434224.74511","434991.40684","435758.076609","436524.74545","437291.276091","438057.726656","441957.900504","442724.572437","428875.227281","429625.149756","430391.223439","431157.701829","431924.792073","432691.38022","441966.73451","Mapping"
"Mixed","Both","ball","2","m160cling.wav","None","721.627562074","119","441191.723866","433458.160982","434224.74511","434991.40684","435758.076609","436524.74545","437291.276091","438057.726656","441957.900504","442724.572437","443491.51706","429625.149756","430391.223439","431157.701829","431924.792073","432691.38022","442733.47848","Mapping"
"Mixed","Both","ball","2","m150greet.wav","None","719.202098204","119","441191.723866","433458.160982","434224.74511","434991.40684","435758.076609","436524.74545","437291.276091","438057.726656","441957.900504","442724.572437","443491.51706","444241.365643","430391.223439","431157.701829","431924.792073","432691.38022","443501.765224","Mapping"
"Mixed","Both","ball","2","m160ball.wav","None","736.731291283","119","441191.723866","433458.160982","434224.74511","434991.40684","435758.076609","436524.74545","437291.276091","438057.726656","441957.900504","442724.572437","443491.51706","444241.365643","445007.529604","431157.701829","431924.792073","432691.38022","444250.118954","Mapping"
"Mixed","Both","ball","2","m160cave.wav","space","411.586822243","119","441191.723866","433458.160982","434224.74511","434991.40684","435758.076609","436524.74545","437291.276091","438057.726656","441957.900504","442724.572437","443491.51706","444241.365643","445007.529604","445774.614283","431924.792073","432691.38022","445016.334548","Mapping"
"Mixed","Both","ball","2","m160cad.wav","None","734.45855896","119","441191.723866","433458.160982","434224.74511","434991.40684","435758.076609","436524.74545","437291.276091","438057.726656","441957.900504","442724.572437","443491.51706","444241.365643","445007.529604","445774.614283","446541.016308","432691.38022","445783.537022","Mapping"
"Mixed","Both","ball","2","m150tile.wav","None","739.65576035","119","441191.723866","433458.160982","434224.74511","434991.40684","435758.076609","436524.74545","437291.276091","438057.726656","441957.900504","442724.572437","443491.51706","444241.365643","445007.529604","445774.614283","446541.016308","447307.483568","446544.632398","Mapping"
"Mixed","Both","ball","2","m160lash.wav","None","733.914723387","119","441191.723866","448074.530219","434224.74511","434991.40684","435758.076609","436524.74545","437291.276091","438057.726656","441957.900504","442724.572437","443491.51706","444241.365643","445007.529604","445774.614283","446541.016308","447307.483568","447316.35282","Mapping"
"Mixed","Both","ball","2","m150ball.wav","None","732.829834335","119","441191.723866","448074.530219","448841.192259","434991.40684","435758.076609","436524.74545","437291.276091","438057.726656","441957.900504","442724.572437","443491.51706","444241.365643","445007.529604","445774.614283","446541.016308","447307.483568","448083.427915","Mapping"
"Mixed","Both","ball","2","m150done.wav","space","409.320891835","119","441191.723866","448074.530219","448841.192259","449607.482053","435758.076609","436524.74545","437291.276091","438057.726656","441957.900504","442724.572437","443491.51706","444241.365643","445007.529604","445774.614283","446541.016308","447307.483568","448850.533617","Mapping"
"Mixed","Both","ball","2","m160ball.wav","None","731.077749748","119","441191.723866","448074.530219","448841.192259","449607.482053","450374.061234","436524.74545","437291.276091","438057.726656","441957.900504","442724.572437","443491.51706","444241.365643","445007.529604","445774.614283","446541.016308","447307.483568","449616.259171","Mapping"
"Mixed","Both","ball","2","m160dime.wav","space","629.000198795","119","441191.723866","448074.530219","448841.192259","449607.482053","450374.061234","451140.702868","437291.276091","438057.726656","441957.900504","442724.572437","443491.51706","444241.365643","445007.529604","445774.614283","446541.016308","447307.483568","450382.858758","Mapping"
"Mixed","Both","ball","2","m150ball.wav","None","728.70577313","119","441191.723866","448074.530219","448841.192259","449607.482053","450374.061234","451140.702868","451907.455805","438057.726656","441957.900504","442724.572437","443491.51706","444241.365643","445007.529604","445774.614283","446541.016308","447307.483568","451149.491426","Mapping"
"Mixed","Both","ball","2","m160tile.wav","space","415.435410105","119","441191.723866","448074.530219","448841.192259","449607.482053","450374.061234","451140.702868","451907.455805","452673.995102","441957.900504","442724.572437","443491.51706","444241.365643","445007.529604","445774.614283","446541.016308","447307.483568","451916.356283","Mapping"
"Mixed","Both","tile","25","m160reek.wav","None","726.33101372","119","455808.237178","448074.530219","448841.192259","449607.482053","450374.061234","451140.702868","451907.455805","452673.995102","441957.900504","442724.572437","443491.51706","444241.365643","445007.529604","445774.614283","446541.016308","447307.483568","452682.994825","Mapping"
"Mixed","Both","tile","25","m160priest.wav","None","722.581052221","119","455808.237178","448074.530219","448841.192259","449607.482053","450374.061234","451140.702868","451907.455805","452673.995102","456575.063079","442724.572437","443491.51706","444241.365643","445007.529604","445774.614283","446541.016308","447307.483568","455817.631096","Mapping"
"Mixed","Both","tile","25","m150bluff.wav","None","722.120693186","119","455808.237178","448074.530219","448841.192259","449607.482053","450374.061234","451140.702868","451907.455805","452673.995102","456575.063079","457342.118696","443491.51706","444241.365643","445007.529604","445774.614283","446541.016308","447307.483568","456584.169157","Mapping"
"Mixed","Both","tile","25","m150cad.wav","None","720.707153203","119","455808.237178","448074.530219","448841.192259","449607.482053","450374.061234","451140.702868","451907.455805","452673.995102","456575.063079","457342.118696","458107.670804","444241.365643","445007.529604","445774.614283","446541.016308","447307.483568","457351.494373","Mapping"
"Mixed","Both","tile","25","m150knife.wav","None","721.7394826","119","455808.237178","448074.530219","448841.192259","449607.482053","450374.061234","451140.702868","451907.455805","452673.995102","456575.063079","457342.118696","458107.670804","458874.56565","445007.529604","445774.614283","446541.016308","447307.483568","458116.599726","Mapping"
"Mixed","Both","tile","25","m160done.wav","None","719.746552175","119","455808.237178","448074.530219","448841.192259","449607.482053","450374.061234","451140.702868","451907.455805","452673.995102","456575.063079","457342.118696","458107.670804","458874.56565","459641.196772","445774.614283","446541.016308","447307.483568","458884.58719","Mapping"
"Mixed","Both","tile","25","m150tile.wav","None","719.629684696","119","455808.237178","448074.530219","448841.192259","449607.482053","450374.061234","451140.702868","451907.455805","452673.995102","456575.063079","457342.118696","458107.670804","458874.56565","459641.196772","460391.213854","446541.016308","447307.483568","459650.739094","Mapping"
"Mixed","Both","tile","25","m160cave.wav","space","467.122985749","119","455808.237178","448074.530219","448841.192259","449607.482053","450374.061234","451140.702868","451907.455805","452673.995102","456575.063079","457342.118696","458107.670804","458874.56565","459641.196772","460391.213854","461157.375342","447307.483568","460400.557996","Mapping"
"Mixed","Both","tile","25","m160tile.wav","None","734.979515662","119","455808.237178","448074.530219","448841.192259","449607.482053","450374.061234","451140.702868","451907.455805","452673.995102","456575.063079","457342.118696","458107.670804","458874.56565","459641.196772","460391.213854","461157.375342","461924.168471","461166.630442","Mapping"
"Mixed","Both","tile","25","m150cave.wav","space","589.987796964","119","455808.237178","462690.367987","448841.192259","449607.482053","450374.061234","451140.702868","451907.455805","452673.995102","456575.063079","457342.118696","458107.670804","458874.56565","459641.196772","460391.213854","461157.375342","461924.168471","461933.651431","Mapping"
"Mixed","Both","tile","25","m150jolt.wav","None","734.081367496","119","455808.237178","462690.367987","463457.546037","449607.482053","450374.061234","451140.702868","451907.455805","452673.995102","456575.063079","457342.118696","458107.670804","458874.56565","459641.196772","460391.213854","461157.375342","461924.168471","462699.231365","Mapping"
"Mixed","Both","tile","25","m160tile.wav","None","732.143160654","119","455808.237178","462690.367987","463457.546037","464224.214878","450374.061234","451140.702868","451907.455805","452673.995102","456575.063079","457342.118696","458107.670804","458874.56565","459641.196772","460391.213854","461157.375342","461924.168471","463467.249438","Mapping"
"Mixed","Both","tile","25","m160priest.wav","space","506.026867777","119","455808.237178","462690.367987","463457.546037","464224.214878","464990.707181","451140.702868","451907.455805","452673.995102","456575.063079","457342.118696","458107.670804","458874.56565","459641.196772","460391.213854","461157.375342","461924.168471","464233.565203","Mapping"
"Mixed","Both","tile","25","m150tile.wav","None","730.631303741","119","455808.237178","462690.367987","463457.546037","464224.214878","464990.707181","465757.533082","451907.455805","452673.995102","456575.063079","457342.118696","458107.670804","458874.56565","459641.196772","460391.213854","461157.375342","461924.168471","465000.112848","Mapping"
"Mixed","Both","tile","25","m160greet.wav","space","541.022491409","119","455808.237178","462690.367987","463457.546037","464224.214878","464990.707181","465757.533082","466524.105152","452673.995102","456575.063079","457342.118696","458107.670804","458874.56565","459641.196772","460391.213854","461157.375342","461924.168471","465766.52724","Mapping"
"Mixed","Both","tile","25","m150jaw.wav","None","728.291171836","119","455808.237178","462690.367987","463457.546037","464224.214878","464990.707181","465757.533082","466524.105152","467290.74926","456575.063079","457342.118696","458107.670804","458874.56565","459641.196772","460391.213854","461157.375342","461924.168471","466533.729405","Mapping"
"Mixed","Both","tile","32","m150lash.wav","None","728.41453203","119","470424.29786","462690.367987","463457.546037","464224.214878","464990.707181","465757.533082","466524.105152","467290.74926","456575.063079","457342.118696","458107.670804","458874.56565","459641.196772","460391.213854","461157.375342","461924.168471","467299.851937","Mapping"
"Mixed","Both","tile","32","m160jolt.wav","None","721.502346685","119","470424.29786","462690.367987","463457.546037","464224.214878","464990.707181","465757.533082","466524.105152","467290.74926","471191.137365","457342.118696","458107.670804","458874.56565","459641.196772","460391.213854","461157.375342","461924.168471","470434.149046","Mapping"
"Mixed","Both","tile","32","m150jaw.wav","None","720.685820328","119","470424.29786","462690.367987","463457.546037","464224.214878","464990.707181","465757.533082","466524.105152","467290.74926","471191.137365","471957.470753","458107.670804","458874.56565","459641.196772","460391.213854","461157.375342","461924.168471","471201.021632","Mapping"
"Mixed","Both","tile","32","m150lash.wav","None","721.605610801","119","470424.29786","462690.367987","463457.546037","464224.214878","464990.707181","465757.533082","466524.105152","467290.74926","471191.137365","471957.470753","472724.437328","458874.56565","459641.196772","460391.213854","461157.375342","461924.168471","471966.402148","Mapping"
"Mixed","Both","tile","32","m150park.wav","None","719.847651664","119","470424.29786","462690.367987","463457.546037","464224.214878","464990.707181","465757.533082","466524.105152","467290.74926","471191.137365","471957.470753","472724.437328","473491.09473","459641.196772","460391.213854","461157.375342","461924.168471","472734.214621","Mapping"
"Mixed","Both","tile","32","m160romp.wav","None","719.245382352","119","470424.29786","462690.367987","463457.546037","464224.214878","464990.707181","465757.533082","466524.105152","467290.74926","471191.137365","471957.470753","472724.437328","473491.09473","474257.829425","460391.213854","461157.375342","461924.168471","473501.004658","Mapping"
"Mixed","Both","tile","32","m150tile.wav","None","718.85056817","119","470424.29786","462690.367987","463457.546037","464224.214878","464990.707181","465757.533082","466524.105152","467290.74926","471191.137365","471957.470753","472724.437328","473491.09473","474257.829425","475007.60226","461157.375342","461924.168471","474267.588786","Mapping"
"Mixed","Both","tile","32","m160romp.wav","space","466.862970963","119","470424.29786","462690.367987","463457.546037","464224.214878","464990.707181","465757.533082","466524.105152","467290.74926","471191.137365","471957.470753","472724.437328","473491.09473","474257.829425","475007.60226","475773.960382","461924.168471","475016.549114","Mapping"
"Mixed","Both","tile","32","m160tile.wav","None","735.04846124","119","470424.29786","462690.367987","463457.546037","464224.214878","464990.707181","465757.533082","466524.105152","467290.74926","471191.137365","471957.470753","472724.437328","473491.09473","474257.829425","475007.60226","475773.960382","476540.37972","475782.951448","Mapping"
"Mixed","Both","tile","32","m160gnash.wav","space","422.006268054","119","470424.29786","477307.32589","463457.546037","464224.214878","464990.707181","465757.533082","466524.105152","467290.74926","471191.137365","471957.470753","472724.437328","473491.09473","474257.829425","475007.60226","475773.960382","476540.37972","476549.37697","Mapping"
"Mixed","Both","tile","32","m160knife.wav","None","738.464206923","119","470424.29786","477307.32589","478074.218882","464224.214878","464990.707181","465757.533082","466524.105152","467290.74926","471191.137365","471957.470753","472724.437328","473491.09473","474257.829425","475007.60226","475773.960382","476540.37972","477311.381933","Mapping"
"Mixed","Both","tile","32","m160tile.wav","None","733.172398526","119","470424.29786","477307.32589","478074.218882","478840.415615","464990.707181","465757.533082","466524.105152","467290.74926","471191.137365","471957.470753","472724.437328","473491.09473","474257.829425","475007.60226","475773.960382","476540.37972","478083.073602","Mapping"
"Mixed","Both","tile","32","m150priest.wav","space","625.524782808","119","470424.29786","477307.32589","478074.218882","478840.415615","479607.041481","465757.533082","466524.105152","467290.74926","471191.137365","471957.470753","472724.437328","473491.09473","474257.829425","475007.60226","475773.960382","476540.37972","478849.773051","Mapping"
"Mixed","Both","tile","32","m160ball.wav","None","733.159413096","119","470424.29786","477307.32589","478074.218882","478840.415615","479607.041481","480373.864291","466524.105152","467290.74926","471191.137365","471957.470753","472724.437328","473491.09473","474257.829425","475007.60226","475773.960382","476540.37972","479616.047697","Mapping"
"Mixed","Both","tile","32","m150tile.wav","None","732.34968842","119","470424.29786","477307.32589","478074.218882","478840.415615","479607.041481","480373.864291","481140.050513","467290.74926","471191.137365","471957.470753","472724.437328","473491.09473","474257.829425","475007.60226","475773.960382","476540.37972","480383.034986","Mapping"
"Mixed","Both","tile","32","m150cad.wav","space","390.35435277","119","470424.29786","477307.32589","478074.218882","478840.415615","479607.041481","480373.864291","481140.050513","481906.837458","471191.137365","471957.470753","472724.437328","473491.09473","474257.829425","475007.60226","475773.960382","476540.37972","481148.981908","Mapping"
"Mixed","Both","ball","11","m160cling.wav","None","731.33652797","119","485041.138586","477307.32589","478074.218882","478840.415615","479607.041481","480373.864291","481140.050513","481906.837458","471191.137365","471957.470753","472724.437328","473491.09473","474257.829425","475007.60226","475773.960382","476540.37972","481915.644257","Mapping"
"Mixed","Both","ball","11","m150ball.wav","None","721.37187561","119","485041.138586","477307.32589","478074.218882","478840.415615","479607.041481","480373.864291","481140.050513","481906.837458","485807.202066","471957.470753","472724.437328","473491.09473","474257.829425","475007.60226","475773.960382","476540.37972","485050.897329","Mapping"
"Mixed","Both","ball","11","m150done.wav","space","442.936984589","119","485041.138586","477307.32589","478074.218882","478840.415615","479607.041481","480373.864291","481140.050513","481906.837458","485807.202066","486574.564692","472724.437328","473491.09473","474257.829425","475007.60226","475773.960382","476540.37972","485816.271971","Mapping"
"Mixed","Both","ball","11","m160ball.wav","None","719.27877306","119","485041.138586","477307.32589","478074.218882","478840.415615","479607.041481","480373.864291","481140.050513","481906.837458","485807.202066","486574.564692","487341.08884","473491.09473","474257.829425","475007.60226","475773.960382","476540.37972","486584.214297","Mapping"
"Mixed","Both","ball","11","m160tile.wav","space","532.644206891","119","485041.138586","477307.32589","478074.218882","478840.415615","479607.041481","480373.864291","481140.050513","481906.837458","485807.202066","486574.564692","487341.08884","488090.09307","474257.829425","475007.60226","475773.960382","476540.37972","487350.555105","Mapping"
"Mixed","Both","ball","11","m150lash.wav","None","735.626924317","119","485041.138586","477307.32589","478074.218882","478840.415615","479607.041481","480373.864291","481140.050513","481906.837458","485807.202066","486574.564692","487341.08884","488090.09307","488857.02038","475007.60226","475773.960382","476540.37972","488099.140097","Mapping"
"Mixed","Both","ball","11","m150jaw.wav","None","734.98044326","119","485041.138586","477307.32589","478074.218882","478840.415615","479607.041481","480373.864291","481140.050513","481906.837458","485807.202066","486574.564692","487341.08884","488090.09307","488857.02038","489623.343566","475773.960382","476540.37972","488866.019794","Mapping"
"Mixed","Both","ball","11","m160cave.wav","None","735.009505646","119","485041.138586","477307.32589","478074.218882","478840.415615","479607.041481","480373.864291","481140.050513","481906.837458","485807.202066","486574.564692","487341.08884","488090.09307","488857.02038","489623.343566","490390.00375","476540.37972","489632.102133","Mapping"
"Mixed","Both","ball","11","m160ball.wav","None","734.949216712","119","485041.138586","477307.32589","478074.218882","478840.415615","479607.041481","480373.864291","481140.050513","481906.837458","485807.202066","486574.564692","487341.08884","488090.09307","488857.02038","489623.343566","490390.00375","491157.028759","490398.733565","Mapping"
"Mixed","Both","ball","11","m150depth.wav","space","396.949944552","119","485041.138586","491923.725117","478074.218882","478840.415615","479607.041481","480373.864291","481140.050513","481906.837458","485807.202066","486574.564692","487341.08884","488090.09307","488857.02038","489623.343566","490390.00375","491157.028759","491166.162354","Mapping"
"Mixed","Both","ball","11","m160romp.wav","None","732.270230772","119","485041.138586","491923.725117","492690.283892","478840.415615","479607.041481","480373.864291","481140.050513","481906.837458","485807.202066","486574.564692","487341.08884","488090.09307","488857.02038","489623.343566","490390.00375","491157.028759","491933.095847","Mapping"
"Mixed","Both","ball","11","m150cave.wav","None","732.1140985","119","485041.138586","491923.725117","492690.283892","493457.070528","479607.041481","480373.864291","481140.050513","481906.837458","485807.202066","486574.564692","487341.08884","488090.09307","488857.02038","489623.343566","490390.00375","491157.028759","492699.556924","Mapping"
"Mixed","Both","ball","11","m160jolt.wav","None","731.822548201","119","485041.138586","491923.725117","492690.283892","493457.070528","494223.660839","480373.864291","481140.050513","481906.837458","485807.202066","486574.564692","487341.08884","488090.09307","488857.02038","489623.343566","490390.00375","491157.028759","493466.080454","Mapping"
"Mixed","Both","ball","11","m150ball.wav","None","730.837213108","119","485041.138586","491923.725117","492690.283892","493457.070528","494223.660839","494989.826656","481140.050513","481906.837458","485807.202066","486574.564692","487341.08884","488090.09307","488857.02038","489623.343566","490390.00375","491157.028759","494233.282619","Mapping"
"Mixed","Both","ball","11","m150park.wav","space","420.326530235","119","485041.138586","491923.725117","492690.283892","493457.070528","494223.660839","494989.826656","495756.736961","481906.837458","485807.202066","486574.564692","487341.08884","488090.09307","488857.02038","489623.343566","490390.00375","491157.028759","494998.715695","Mapping"
"Mixed","Both","ball","11","m160dime.wav","None","729.638857767","119","485041.138586","491923.725117","492690.283892","493457.070528","494223.660839","494989.826656","495756.736961","496523.536892","485807.202066","486574.564692","487341.08884","488090.09307","488857.02038","489623.343566","490390.00375","491157.028759","495765.707931","Mapping"
"Mixed","Both","ball","10","m160depth.wav","None","729.302786756","119","499657.339014","491923.725117","492690.283892","493457.070528","494223.660839","494989.826656","495756.736961","496523.536892","485807.202066","486574.564692","487341.08884","488090.09307","488857.02038","489623.343566","490390.00375","491157.028759","496532.721809","Mapping"
"Mixed","Both","ball","10","m150tile.wav","None","722.2490001","119","499657.339014","491923.725117","492690.283892","493457.070528","494223.660839","494989.826656","495756.736961","496523.536892","500423.869346","486574.564692","487341.08884","488090.09307","488857.02038","489623.343566","490390.00375","491157.028759","499666.863404","Mapping"
"Mixed","Both","ball","10","m150ball.wav","None","721.848311601","119","499657.339014","491923.725117","492690.283892","493457.070528","494223.660839","494989.826656","495756.736961","496523.536892","500423.869346","501189.987859","487341.08884","488090.09307","488857.02038","489623.343566","490390.00375","491157.028759","500433.478758","Mapping"
"Mixed","Both","ball","10","m160tile.wav","space","451.843955321","119","499657.339014","491923.725117","492690.283892","493457.070528","494223.660839","494989.826656","495756.736961","496523.536892","500423.869346","501189.987859","501957.203318","488090.09307","488857.02038","489623.343566","490390.00375","491157.028759","501199.0927","Mapping"
"Mixed","Both","ball","10","m160ball.wav","None","719.661529642","119","499657.339014","491923.725117","492690.283892","493457.070528","494223.660839","494989.826656","495756.736961","496523.536892","500423.869346","501189.987859","501957.203318","502723.792393","488857.02038","489623.343566","490390.00375","491157.028759","501966.9027","Mapping"
"Mixed","Both","ball","10","m150park.wav","space","381.610625423","119","499657.339014","491923.725117","492690.283892","493457.070528","494223.660839","494989.826656","495756.736961","496523.536892","500423.869346","501189.987859","501957.203318","502723.792393","503473.235958","489623.343566","490390.00375","491157.028759","502733.293594","Mapping"
"Mixed","Both","ball","10","m150ball.wav","None","735.915382858","119","499657.339014","491923.725117","492690.283892","493457.070528","494223.660839","494989.826656","495756.736961","496523.536892","500423.869346","501189.987859","501957.203318","502723.792393","503473.235958","504239.471029","490390.00375","491157.028759","503482.46045","Mapping"
"Mixed","Both","ball","10","m150cling.wav","space","634.488641517","119","499657.339014","491923.725117","492690.283892","493457.070528","494223.660839","494989.826656","495756.736961","496523.536892","500423.869346","501189.987859","501957.203318","502723.792393","503473.235958","504239.471029","505006.812941","491157.028759","504248.269171","Mapping"
"Mixed","Both","ball","10","m150tile.wav","None","733.942548744","119","499657.339014","491923.725117","492690.283892","493457.070528","494223.660839","494989.826656","495756.736961","496523.536892","500423.869346","501189.987859","501957.203318","502723.792393","503473.235958","504239.471029","505006.812941","505773.049249","505015.849146","Mapping"
"Mixed","Both","ball","10","m160tile.wav","None","734.31417509","119","499657.339014","506540.039321","492690.283892","493457.070528","494223.660839","494989.826656","495756.736961","496523.536892","500423.869346","501189.987859","501957.203318","502723.792393","503473.235958","504239.471029","505006.812941","505773.049249","505781.812454","Mapping"
"Mixed","Both","ball","10","m160done.wav","None","733.355738223","119","499657.339014","506540.039321","507306.779581","493457.070528","494223.660839","494989.826656","495756.736961","496523.536892","500423.869346","501189.987859","501957.203318","502723.792393","503473.235958","504239.471029","505006.812941","505773.049249","506549.358728","Mapping"
"Mixed","Both","ball","10","m160depth.wav","None","733.009773307","119","499657.339014","506540.039321","507306.779581","508073.985765","494223.660839","494989.826656","495756.736961","496523.536892","500423.869346","501189.987859","501957.203318","502723.792393","503473.235958","504239.471029","505006.812941","505773.049249","507316.107027","Mapping"
"Mixed","Both","ball","10","m150jaw.wav","None","732.309805229","119","499657.339014","506540.039321","507306.779581","508073.985765","508839.998232","494989.826656","495756.736961","496523.536892","500423.869346","501189.987859","501957.203318","502723.792393","503473.235958","504239.471029","505006.812941","505773.049249","508083.07453","Mapping"
"Mixed","Both","ball","10","m160ball.wav","None","732.774183387","119","499657.339014","506540.039321","507306.779581","508073.985765","508839.998232","509606.687787","495756.736961","496523.536892","500423.869346","501189.987859","501957.203318","502723.792393","503473.235958","504239.471029","505006.812941","505773.049249","508849.069373","Mapping"
"Mixed","Both","ball","10","m160depth.wav","space","475.049568107","119","499657.339014","506540.039321","507306.779581","508073.985765","508839.998232","509606.687787","510373.380435","496523.536892","500423.869346","501189.987859","501957.203318","502723.792393","503473.235958","504239.471029","505006.812941","505773.049249","509615.730794","Mapping"
"Mixed","Both","ball","10","m150jolt.wav","None","730.528967455","119","499657.339014","506540.039321","507306.779581","508073.985765","508839.998232","509606.687787","510373.380435","511139.766383","500423.869346","501189.987859","501957.203318","502723.792393","503473.235958","504239.471029","505006.812941","505773.049249","510382.767861","Mapping"
"Mixed","Both","done","37","m160cling.wav","None","733.833410544","119","514273.930547","506540.039321","507306.779581","508073.985765","508839.998232","509606.687787","510373.380435","511139.766383","500423.869346","501189.987859","501957.203318","502723.792393","503473.235958","504239.471029","505006.812941","505773.049249","511148.613374","Mapping"
"Mixed","Both","done","37","m150priest.wav","None","720.879362663","119","514273.930547","506540.039321","507306.779581","508073.985765","508839.998232","509606.687787","510373.380435","511139.766383","515039.699076","501189.987859","501957.203318","502723.792393","503473.235958","504239.471029","505006.812941","505773.049249","514284.068027","Mapping"
"Mixed","Both","done","37","m160jaw.wav","None","722.66421956","119","514273.930547","506540.039321","507306.779581","508073.985765","508839.998232","509606.687787","510373.380435","511139.766383","515039.699076","515806.706461","501957.203318","502723.792393","503473.235958","504239.471029","505006.812941","505773.049249","515048.557815","Mapping"
"Mixed","Both","done","37","m150bluff.wav","None","722.203551559","119","514273.930547","506540.039321","507306.779581","508073.985765","508839.998232","509606.687787","510373.380435","511139.766383","515039.699076","515806.706461","516574.025803","502723.792393","503473.235958","504239.471029","505006.812941","505773.049249","515815.570148","Mapping"
"Mixed","Both","done","37","m150park.wav","None","720.714882715","119","514273.930547","506540.039321","507306.779581","508073.985765","508839.998232","509606.687787","510373.380435","511139.766383","515039.699076","515806.706461","516574.025803","517340.272623","503473.235958","504239.471029","505006.812941","505773.049249","516583.393751","Mapping"
"Mixed","Both","done","37","m150done.wav","None","720.512992702","119","514273.930547","506540.039321","507306.779581","508073.985765","508839.998232","509606.687787","510373.380435","511139.766383","515039.699076","515806.706461","516574.025803","517340.272623","518107.108727","504239.471029","505006.812941","505773.049249","517349.891928","Mapping"
"Mixed","Both","done","37","m150cave.wav","space","389.922746923","119","514273.930547","506540.039321","507306.779581","508073.985765","508839.998232","509606.687787","510373.380435","511139.766383","515039.699076","515806.706461","516574.025803","517340.272623","518107.108727","518856.550746","505006.812941","505773.049249","518116.728342","Mapping"
"Mixed","Both","done","37","m150cave.wav","None","736.287627602","119","514273.930547","506540.039321","507306.779581","508073.985765","508839.998232","509606.687787","510373.380435","511139.766383","515039.699076","515806.706461","516574.025803","517340.272623","518107.108727","518856.550746","519622.663076","505773.049249","518865.54274","Mapping"
"Mixed","Both","done","37","m160done.wav","None","736.760044238","119","514273.930547","506540.039321","507306.779581","508073.985765","508839.998232","509606.687787","510373.380435","511139.766383","515039.699076","515806.706461","516574.025803","517340.272623","518107.108727","518856.550746","519622.663076","520389.560705","519631.325181","Mapping"
"Mixed","Both","done","37","m160tile.wav","space","500.001700362","119","514273.930547","521156.375785","507306.779581","508073.985765","508839.998232","509606.687787","510373.380435","511139.766383","515039.699076","515806.706461","516574.025803","517340.272623","518107.108727","518856.550746","519622.663076","520389.560705","520398.568776","Mapping"
"Mixed","Both","done","37","m160done.wav","None","734.233480645","119","514273.930547","521156.375785","521923.160566","508073.985765","508839.998232","509606.687787","510373.380435","511139.766383","515039.699076","515806.706461","516574.025803","517340.272623","518107.108727","518856.550746","519622.663076","520389.560705","521165.562249","Mapping"
"Mixed","Both","done","37","m160reek.wav","space","542.345443508","119","514273.930547","521156.375785","521923.160566","522689.477568","508839.998232","509606.687787","510373.380435","511139.766383","515039.699076","515806.706461","516574.025803","517340.272623","518107.108727","518856.550746","519622.663076","520389.560705","521932.205119","Mapping"
"Mixed","Both","done","37","m160dime.wav","None","732.981020119","119","514273.930547","521156.375785","521923.160566","522689.477568","523456.092614","509606.687787","510373.380435","511139.766383","515039.699076","515806.706461","516574.025803","517340.272623","518107.108727","518856.550746","519622.663076","520389.560705","522698.470799","Mapping"
"Mixed","Both","done","37","m150cling.wav","None","732.92258638","119","514273.930547","521156.375785","521923.160566","522689.477568","523456.092614","524222.709204","510373.380435","511139.766383","515039.699076","515806.706461","516574.025803","517340.272623","518107.108727","518856.550746","519622.663076","520389.560705","523465.049361","Mapping"
"Mixed","Both","done","37","m150done.wav","None","732.738937484","119","514273.930547","521156.375785","521923.160566","522689.477568","523456.092614","524222.709204","524989.766367","511139.766383","515039.699076","515806.706461","516574.025803","517340.272623","518107.108727","518856.550746","519622.663076","520389.560705","524231.462825","Mapping"
"Mixed","Both","done","37","m160romp.wav","space","403.642307734","119","514273.930547","521156.375785","521923.160566","522689.477568","523456.092614","524222.709204","524989.766367","525756.134383","515039.699076","515806.706461","516574.025803","517340.272623","518107.108727","518856.550746","519622.663076","520389.560705","524998.882957","Mapping"
"Mixed","Both","done","43","m160park.wav","None","730.626357021","119","528889.978244","521156.375785","521923.160566","522689.477568","523456.092614","524222.709204","524989.766367","525756.134383","515039.699076","515806.706461","516574.025803","517340.272623","518107.108727","518856.550746","519622.663076","520389.560705","525765.122975","Mapping"
"Mixed","Both","done","43","m150ball.wav","None","721.68877814","119","528889.978244","521156.375785","521923.160566","522689.477568","523456.092614","524222.709204","524989.766367","525756.134383","529656.793324","515806.706461","516574.025803","517340.272623","518107.108727","518856.550746","519622.663076","520389.560705","528899.850144","Mapping"
"Mixed","Both","done","43","m150depth.wav","None","721.769472584","119","528889.978244","521156.375785","521923.160566","522689.477568","523456.092614","524222.709204","524989.766367","525756.134383","529656.793324","530422.74983","516574.025803","517340.272623","518107.108727","518856.550746","519622.663076","520389.560705","529666.194353","Mapping"
"Mixed","Both","done","43","m160knife.wav","None","722.937837942","119","528889.978244","521156.375785","521923.160566","522689.477568","523456.092614","524222.709204","524989.766367","525756.134383","529656.793324","530422.74983","531189.400739","517340.272623","518107.108727","518856.550746","519622.663076","520389.560705","530431.69792","Mapping"
"Mixed","Both","done","43","m150dime.wav","None","722.702248022","119","528889.978244","521156.375785","521923.160566","522689.477568","523456.092614","524222.709204","524989.766367","525756.134383","529656.793324","530422.74983","531189.400739","531956.695037","518107.108727","518856.550746","519622.663076","520389.560705","531198.26628","Mapping"
"Mixed","Both","done","43","m160cad.wav","space","436.30305538","119","528889.978244","521156.375785","521923.160566","522689.477568","523456.092614","524222.709204","524989.766367","525756.134383","529656.793324","530422.74983","531189.400739","531956.695037","532723.287204","518856.550746","519622.663076","520389.560705","531966.105342","Mapping"
"Mixed","Both","done","43","m160done.wav","None","719.121403992","119","528889.978244","521156.375785","521923.160566","522689.477568","523456.092614","524222.709204","524989.766367","525756.134383","529656.793324","530422.74983","531189.400739","531956.695037","532723.287204","533489.363978","519622.663076","520389.560705","532733.394385","Mapping"
"Mixed","Both","done","43","m160reek.wav","space","416.148981778","119","528889.978244","521156.375785","521923.160566","522689.477568","523456.092614","524222.709204","524989.766367","525756.134383","529656.793324","530422.74983","531189.400739","531956.695037","532723.287204","533489.363978","534239.194938","520389.560705","533498.213752","Mapping"
"Mixed","Both","done","43","m150ball.wav","None","735.965469154","119","528889.978244","521156.375785","521923.160566","522689.477568","523456.092614","524222.709204","524989.766367","525756.134383","529656.793324","530422.74983","531189.400739","531956.695037","532723.287204","533489.363978","534239.194938","535005.977864","534247.94794","Mapping"
"Mixed","Both","done","43","m160done.wav","None","735.731733963","119","528889.978244","535772.480061","521923.160566","522689.477568","523456.092614","524222.709204","524989.766367","525756.134383","529656.793324","530422.74983","531189.400739","531956.695037","532723.287204","533489.363978","534239.194938","535005.977864","535015.032001","Mapping"
"Mixed","Both","done","43","m160cave.wav","space","533.034074353","119","528889.978244","535772.480061","536539.01503","522689.477568","523456.092614","524222.709204","524989.766367","525756.134383","529656.793324","530422.74983","531189.400739","531956.695037","532723.287204","533489.363978","534239.194938","535005.977864","535781.289642","Mapping"
"Mixed","Both","done","43","m150reek.wav","None","734.528122935","119","528889.978244","535772.480061","536539.01503","537305.859481","523456.092614","524222.709204","524989.766367","525756.134383","529656.793324","530422.74983","531189.400739","531956.695037","532723.287204","533489.363978","534239.194938","535005.977864","536547.845016","Mapping"
"Mixed","Both","done","43","m150done.wav","None","733.990161447","119","528889.978244","535772.480061","536539.01503","537305.859481","538072.938905","524222.709204","524989.766367","525756.134383","529656.793324","530422.74983","531189.400739","531956.695037","532723.287204","533489.363978","534239.194938","535005.977864","537314.668135","Mapping"
"Mixed","Both","done","43","m150cad.wav","space","552.379969042","119","528889.978244","535772.480061","536539.01503","537305.859481","538072.938905","538839.30321","524989.766367","525756.134383","529656.793324","530422.74983","531189.400739","531956.695037","532723.287204","533489.363978","534239.194938","535005.977864","538081.878648","Mapping"
"Mixed","Both","done","43","m150done.wav","None","732.044843724","119","528889.978244","535772.480061","536539.01503","537305.859481","538072.938905","538839.30321","539605.83416","525756.134383","529656.793324","530422.74983","531189.400739","531956.695037","532723.287204","533489.363978","534239.194938","535005.977864","538848.231205","Mapping"
"Mixed","Both","done","43","m160cling.wav","space","619.628849905","119","528889.978244","535772.480061","536539.01503","537305.859481","538072.938905","538839.30321","539605.83416","540372.405921","529656.793324","530422.74983","531189.400739","531956.695037","532723.287204","533489.363978","534239.194938","535005.977864","539614.605713","Mapping"
"Mixed","Both","cave","20","m150tile.wav","None","730.67984404","119","543506.498048","535772.480061","536539.01503","537305.859481","538072.938905","538839.30321","539605.83416","540372.405921","529656.793324","530422.74983","531189.400739","531956.695037","532723.287204","533489.363978","534239.194938","535005.977864","540381.196643","Mapping"
"Mixed","Both","cave","20","m160knife.wav","None","721.797297942","119","543506.498048","535772.480061","536539.01503","537305.859481","538072.938905","538839.30321","539605.83416","540372.405921","544273.420411","530422.74983","531189.400739","531956.695037","532723.287204","533489.363978","534239.194938","535005.977864","543516.257718","Mapping"
"Mixed","Both","cave","20","m160cave.wav","None","721.438347828","119","543506.498048","535772.480061","536539.01503","537305.859481","538072.938905","538839.30321","539605.83416","540372.405921","544273.420411","545040.026799","531189.400739","531956.695037","532723.287204","533489.363978","534239.194938","535005.977864","544283.040026","Mapping"
"Mixed","Both","cave","20","m160reek.wav","space","520.548114786","119","543506.498048","535772.480061","536539.01503","537305.859481","538072.938905","538839.30321","539605.83416","540372.405921","544273.420411","545040.026799","545805.991653","531956.695037","532723.287204","533489.363978","534239.194938","535005.977864","545049.620443","Mapping"
"Mixed","Both","cave","20","m150cave.wav","None","721.298601711","119","543506.498048","535772.480061","536539.01503","537305.859481","538072.938905","538839.30321","539605.83416","540372.405921","544273.420411","545040.026799","545805.991653","546573.421988","532723.287204","533489.363978","534239.194938","535005.977864","545814.809891","Mapping"
"Mixed","Both","cave","20","m150cad.wav","space","547.448037891","119","543506.498048","535772.480061","536539.01503","537305.859481","538072.938905","538839.30321","539605.83416","540372.405921","544273.420411","545040.026799","545805.991653","546573.421988","547322.44044","533489.363978","534239.194938","535005.977864","546582.618963","Mapping"
"Mixed","Both","cave","20","m150cave.wav","None","735.896523576","119","543506.498048","535772.480061","536539.01503","537305.859481","538072.938905","538839.30321","539605.83416","540372.405921","544273.420411","545040.026799","545805.991653","546573.421988","547322.44044","548089.249028","534239.194938","535005.977864","547331.744698","Mapping"
"Mixed","Both","cave","20","m150tile.wav","space","495.812094538","119","543506.498048","535772.480061","536539.01503","537305.859481","538072.938905","538839.30321","539605.83416","540372.405921","544273.420411","545040.026799","545805.991653","546573.421988","547322.44044","548089.249028","548855.986814","535005.977864","548098.299764","Mapping"
"Mixed","Both","cave","20","m160cave.wav","None","734.38219307","119","543506.498048","535772.480061","536539.01503","537305.859481","538072.938905","538839.30321","539605.83416","540372.405921","544273.420411","545040.026799","545805.991653","546573.421988","547322.44044","548089.249028","548855.986814","549622.623502","548864.998286","Mapping"
"Mixed","Both","cave","20","m160priest.wav","space","522.052860586","119","543506.498048","550389.13652","536539.01503","537305.859481","538072.938905","538839.30321","539605.83416","540372.405921","544273.420411","545040.026799","545805.991653","546573.421988","547322.44044","548089.249028","548855.986814","549622.623502","549631.972899","Mapping"
"Mixed","Both","cave","20","m160greet.wav","None","733.102525119","119","543506.498048","550389.13652","551155.964894","537305.859481","538072.938905","538839.30321","539605.83416","540372.405921","544273.420411","545040.026799","545805.991653","546573.421988","547322.44044","548089.249028","548855.986814","549622.623502","550398.535076","Mapping"
"Mixed","Both","cave","20","m160greet.wav","None","733.2670053","119","543506.498048","550389.13652","551155.964894","551922.651049","538072.938905","538839.30321","539605.83416","540372.405921","544273.420411","545040.026799","545805.991653","546573.421988","547322.44044","548089.249028","548855.986814","549622.623502","551165.051494","Mapping"
"Mixed","Both","cave","20","m160bluff.wav","None","732.954122126","119","543506.498048","550389.13652","551155.964894","551922.651049","552689.095121","538839.30321","539605.83416","540372.405921","544273.420411","545040.026799","545805.991653","546573.421988","547322.44044","548089.249028","548855.986814","549622.623502","551931.790518","Mapping"
"Mixed","Both","cave","20","m150done.wav","None","732.10946098","119","543506.498048","550389.13652","551155.964894","551922.651049","552689.095121","553455.932771","539605.83416","540372.405921","544273.420411","545040.026799","545805.991653","546573.421988","547322.44044","548089.249028","548855.986814","549622.623502","552699.095019","Mapping"
"Mixed","Both","cave","20","m150tile.wav","None","732.799226185","119","543506.498048","550389.13652","551155.964894","551922.651049","552689.095121","553455.932771","554222.101679","540372.405921","544273.420411","545040.026799","545805.991653","546573.421988","547322.44044","548089.249028","548855.986814","549622.623502","553464.916726","Mapping"
"Mixed","Both","cave","20","m150jaw.wav","None","733.471059706","119","543506.498048","550389.13652","551155.964894","551922.651049","552689.095121","553455.932771","554222.101679","554988.7968","544273.420411","545040.026799","545805.991653","546573.421988","547322.44044","548089.249028","548855.986814","549622.623502","554230.741215","Mapping"
"Mixed","Both","tile","28","m150dime.wav","None","733.640486607","119","558122.836676","550389.13652","551155.964894","551922.651049","552689.095121","553455.932771","554222.101679","554988.7968","544273.420411","545040.026799","545805.991653","546573.421988","547322.44044","548089.249028","548855.986814","549622.623502","554997.530325","Mapping"
"Mixed","Both","tile","28","m160cling.wav","None","721.155145206","119","558122.836676","550389.13652","551155.964894","551922.651049","552689.095121","553455.932771","554222.101679","554988.7968","558889.557459","545040.026799","545805.991653","546573.421988","547322.44044","548089.249028","548855.986814","549622.623502","558132.94293","Mapping"
"Mixed","Both","tile","28","m150romp.wav","None","720.983863343","119","558122.836676","550389.13652","551155.964894","551922.651049","552689.095121","553455.932771","554222.101679","554988.7968","558889.557459","559656.217643","545805.991653","546573.421988","547322.44044","548089.249028","548855.986814","549622.623502","558899.628467","Mapping"
"Mixed","Both","tile","28","m150tile.wav","None","721.493071644","119","558122.836676","550389.13652","551155.964894","551922.651049","552689.095121","553455.932771","554222.101679","554988.7968","558889.557459","559656.217643","560422.935952","546573.421988","547322.44044","548089.249028","548855.986814","549622.623502","559665.769858","Mapping"
"Mixed","Both","tile","28","m160lash.wav","space","512.760041747","119","558122.836676","550389.13652","551155.964894","551922.651049","552689.095121","553455.932771","554222.101679","554988.7968","558889.557459","559656.217643","560422.935952","561189.405067","547322.44044","548089.249028","548855.986814","549622.623502","560433.103422","Mapping"
"Mixed","Both","tile","28","m160reek.wav","None","720.148168039","119","558122.836676","550389.13652","551155.964894","551922.651049","552689.095121","553455.932771","554222.101679","554988.7968","558889.557459","559656.217643","560422.935952","561189.405067","561955.995997","548089.249028","548855.986814","549622.623502","561198.841034","Mapping"
"Mixed","Both","tile","28","m150tile.wav","None","720.011822646","119","558122.836676","550389.13652","551155.964894","551922.651049","552689.095121","553455.932771","554222.101679","554988.7968","558889.557459","559656.217643","560422.935952","561189.405067","561955.995997","562722.825299","548855.986814","549622.623502","561965.641892","Mapping"
"Mixed","Both","tile","28","m150jaw.wav","space","565.10090013","119","558122.836676","550389.13652","551155.964894","551922.651049","552689.095121","553455.932771","554222.101679","554988.7968","558889.557459","559656.217643","560422.935952","561189.405067","561955.995997","562722.825299","563472.048424","549622.623502","562732.732136","Mapping"
"Mixed","Both","tile","28","m160knife.wav","None","736.934727058","119","558122.836676","550389.13652","551155.964894","551922.651049","552689.095121","553455.932771","554222.101679","554988.7968","558889.557459","559656.217643","560422.935952","561189.405067","561955.995997","562722.825299","563472.048424","564239.143924","563480.839764","Mapping"
"Mixed","Both","tile","28","m160cave.wav","None","736.103051109","119","558122.836676","565005.952821","551155.964894","551922.651049","552689.095121","553455.932771","554222.101679","554988.7968","558889.557459","559656.217643","560422.935952","561189.405067","561955.995997","562722.825299","563472.048424","564239.143924","564248.215684","Mapping"
"Mixed","Both","tile","28","m160tile.wav","None","736.034105532","119","558122.836676","565005.952821","565772.690917","551922.651049","552689.095121","553455.932771","554222.101679","554988.7968","558889.557459","559656.217643","560422.935952","561189.405067","561955.995997","562722.825299","563472.048424","564239.143924","565014.920699","Mapping"
"Mixed","Both","tile","28","m150jaw.wav","space","588.189336238","119","558122.836676","565005.952821","565772.690917","566538.45419","552689.095121","553455.932771","554222.101679","554988.7968","558889.557459","559656.217643","560422.935952","561189.405067","561955.995997","562722.825299","563472.048424","564239.143924","565781.597888","Mapping"
"Mixed","Both","tile","28","m160tile.wav","None","735.563543858","119","558122.836676","565005.952821","565772.690917","566538.45419","567305.246391","553455.932771","554222.101679","554988.7968","558889.557459","559656.217643","560422.935952","561189.405067","561955.995997","562722.825299","563472.048424","564239.143924","566547.397952","Mapping"
"Mixed","Both","tile","28","m150bluff.wav","space","639.829608612","119","558122.836676","565005.952821","565772.690917","566538.45419","567305.246391","568072.291496","554222.101679","554988.7968","558889.557459","559656.217643","560422.935952","561189.405067","561955.995997","562722.825299","563472.048424","564239.143924","567313.911897","Mapping"
"Mixed","Both","tile","28","m150gnash.wav","None","733.554845676","119","558122.836676","565005.952821","565772.690917","566538.45419","567305.246391","568072.291496","568838.802968","554988.7968","558889.557459","559656.217643","560422.935952","561189.405067","561955.995997","562722.825299","563472.048424","564239.143924","568081.362638","Mapping"
"Mixed","Both","tile","28","m160jaw.wav","None","733.847323572","119","558122.836676","565005.952821","565772.690917","566538.45419","567305.246391","568072.291496","568838.802968","569605.335773","558889.557459","559656.217643","560422.935952","561189.405067","561955.995997","562722.825299","563472.048424","564239.143924","568847.768991","Mapping"
"Mixed","Both","done","38","m160reek.wav","None","734.36518875","119","572739.063076","565005.952821","565772.690917","566538.45419","567305.246391","568072.291496","568838.802968","569605.335773","558889.557459","559656.217643","560422.935952","561189.405067","561955.995997","562722.825299","563472.048424","564239.143924","569614.147209","Mapping"
"Mixed","Both","done","38","m150done.wav","None","722.182218684","119","572739.063076","565005.952821","565772.690917","566538.45419","567305.246391","568072.291496","568838.802968","569605.335773","573505.538683","559656.217643","560422.935952","561189.405067","561955.995997","562722.825299","563472.048424","564239.143924","572748.971458","Mapping"
"Mixed","Both","done","38","m150lash.wav","None","723.270508461","119","572739.063076","565005.952821","565772.690917","566538.45419","567305.246391","568072.291496","568838.802968","569605.335773","573505.538683","574271.979664","560422.935952","561189.405067","561955.995997","562722.825299","563472.048424","564239.143924","573514.535314","Mapping"
"Mixed","Both","done","38","m150depth.wav","space","328.58804008","119","572739.063076","565005.952821","565772.690917","566538.45419","567305.246391","568072.291496","568838.802968","569605.335773","573505.538683","574271.979664","575038.740329","561189.405067","561955.995997","562722.825299","563472.048424","564239.143924","574280.981551","Mapping"
"Mixed","Both","done","38","m160jolt.wav","None","721.816466656","119","572739.063076","565005.952821","565772.690917","566538.45419","567305.246391","568072.291496","568838.802968","569605.335773","573505.538683","574271.979664","575038.740329","575805.963518","561955.995997","562722.825299","563472.048424","564239.143924","575048.090655","Mapping"
"Mixed","Both","done","38","m160done.wav","None","721.118044341","119","572739.063076","565005.952821","565772.690917","566538.45419","567305.246391","568072.291496","568838.802968","569605.335773","573505.538683","574271.979664","575038.740329","575805.963518","576572.919891","562722.825299","563472.048424","564239.143924","575815.578805","Mapping"
"Mixed","Both","done","38","m150knife.wav","space","435.591647867","119","572739.063076","565005.952821","565772.690917","566538.45419","567305.246391","568072.291496","568838.802968","569605.335773","573505.538683","574271.979664","575038.740329","575805.963518","576572.919891","577339.123735","563472.048424","564239.143924","576582.014838","Mapping"
"Mixed","Both","done","38","m150jaw.wav","space","324.496750953","119","572739.063076","565005.952821","565772.690917","566538.45419","567305.246391","568072.291496","568838.802968","569605.335773","573505.538683","574271.979664","575038.740329","575805.963518","576572.919891","577339.123735","578088.088082","564239.143924","577349.079112","Mapping"
"Mixed","Both","done","38","m150done.wav","None","736.519816564","119","572739.063076","565005.952821","565772.690917","566538.45419","567305.246391","568072.291496","568838.802968","569605.335773","573505.538683","574271.979664","575038.740329","575805.963518","576572.919891","577339.123735","578088.088082","578855.260567","578097.060598","Mapping"
"Mixed","Both","done","38","m160priest.wav","space","417.132770875","119","572739.063076","579621.644659","565772.690917","566538.45419","567305.246391","568072.291496","568838.802968","569605.335773","573505.538683","574271.979664","575038.740329","575805.963518","576572.919891","577339.123735","578088.088082","578855.260567","578864.418277","Mapping"
"Mixed","Both","done","38","m160dime.wav","None","735.315586906","119","572739.063076","579621.644659","580388.45943","566538.45419","567305.246391","568072.291496","568838.802968","569605.335773","573505.538683","574271.979664","575038.740329","575805.963518","576572.919891","577339.123735","578088.088082","578855.260567","579630.310784","Mapping"
"Mixed","Both","done","38","m160ball.wav","None","735.217269743","119","572739.063076","579621.644659","580388.45943","581154.992235","567305.246391","568072.291496","568838.802968","569605.335773","573505.538683","574271.979664","575038.740329","575805.963518","576572.919891","577339.123735","578088.088082","578855.260567","580397.526862","Mapping"
"Mixed","Both","done","38","m160done.wav","None","735.752757872","119","572739.063076","579621.644659","580388.45943","581154.992235","581921.868841","568072.291496","568838.802968","569605.335773","573505.538683","574271.979664","575038.740329","575805.963518","576572.919891","577339.123735","578088.088082","578855.260567","581163.725451","Mapping"
"Mixed","Both","done","38","m150depth.wav","space","374.430077849","119","572739.063076","579621.644659","580388.45943","581154.992235","581921.868841","582688.612193","568838.802968","569605.335773","573505.538683","574271.979664","575038.740329","575805.963518","576572.919891","577339.123735","578088.088082","578855.260567","581931.053449","Mapping"
"Mixed","Both","done","38","m160cling.wav","None","733.543097042","119","572739.063076","579621.644659","580388.45943","581154.992235","581921.868841","582688.612193","583455.266812","569605.335773","573505.538683","574271.979664","575038.740329","575805.963518","576572.919891","577339.123735","578088.088082","578855.260567","582697.958498","Mapping"
"Mixed","Both","done","38","m150ball.wav","None","733.849178534","119","572739.063076","579621.644659","580388.45943","581154.992235","581921.868841","582688.612193","583455.266812","584221.61535","573505.538683","574271.979664","575038.740329","575805.963518","576572.919891","577339.123735","578088.088082","578855.260567","583464.523457","Mapping"
"Mixed","Both","ball","9","m160jolt.wav","None","734.790611081","119","587355.635439","579621.644659","580388.45943","581154.992235","581921.868841","582688.612193","583455.266812","584221.61535","573505.538683","574271.979664","575038.740329","575805.963518","576572.919891","577339.123735","578088.088082","578855.260567","584230.415346","Mapping"
"Mixed","Both","ball","9","m160depth.wav","None","720.440336969","119","587355.635439","579621.644659","580388.45943","581154.992235","581921.868841","582688.612193","583455.266812","584221.61535","588121.729218","574271.979664","575038.740329","575805.963518","576572.919891","577339.123735","578088.088082","578855.260567","587365.879275","Mapping"
"Mixed","Both","ball","9","m150lash.wav","None","722.629283089","119","587355.635439","579621.644659","580388.45943","581154.992235","581921.868841","582688.612193","583455.266812","584221.61535","588121.729218","588888.483391","575038.740329","575805.963518","576572.919891","577339.123735","578088.088082","578855.260567","588130.592905","Mapping"
"Mixed","Both","ball","9","m160cling.wav","None","722.518289927","119","587355.635439","579621.644659","580388.45943","581154.992235","581921.868841","582688.612193","583455.266812","584221.61535","588121.729218","588888.483391","589655.174802","575805.963518","576572.919891","577339.123735","578088.088082","578855.260567","588897.438902","Mapping"
"Mixed","Both","ball","9","m160ball.wav","None","722.803656943","119","587355.635439","579621.644659","580388.45943","581154.992235","581921.868841","582688.612193","583455.266812","584221.61535","588121.729218","588888.483391","589655.174802","590421.671434","576572.919891","577339.123735","578088.088082","578855.260567","589663.973562","Mapping"
"Mixed","Both","ball","9","m150tile.wav","space","514.834903181","119","587355.635439","579621.644659","580388.45943","581154.992235","581921.868841","582688.612193","583455.266812","584221.61535","588121.729218","588888.483391","589655.174802","590421.671434","591188.853193","577339.123735","578088.088082","578855.260567","590430.533883","Mapping"
"Mixed","Both","ball","9","m150ball.wav","None","719.993581763","119","587355.635439","579621.644659","580388.45943","581154.992235","581921.868841","582688.612193","583455.266812","584221.61535","588121.729218","588888.483391","589655.174802","590421.671434","591188.853193","591955.459581","578088.088082","578855.260567","591198.874733","Mapping"
"Mixed","Both","ball","9","m150jolt.wav","space","516.597499605","119","587355.635439","579621.644659","580388.45943","581154.992235","581921.868841","582688.612193","583455.266812","584221.61535","588121.729218","588888.483391","589655.174802","590421.671434","591188.853193","591955.459581","592722.290738","578855.260567","591964.714372","Mapping"
"Mixed","Both","ball","9","m160lash.wav","None","718.650533119","119","587355.635439","579621.644659","580388.45943","581154.992235","581921.868841","582688.612193","583455.266812","584221.61535","588121.729218","588888.483391","589655.174802","590421.671434","591188.853193","591955.459581","592722.290738","593488.704203","592732.362055","Mapping"
"Mixed","Both","ball","9","m160cling.wav","None","719.657510286","119","587355.635439","594255.603687","580388.45943","581154.992235","581921.868841","582688.612193","583455.266812","584221.61535","588121.729218","588888.483391","589655.174802","590421.671434","591188.853193","591955.459581","592722.290738","593488.704203","593498.285789","Mapping"
"Mixed","Both","ball","9","m150ball.wav","None","718.998971162","119","587355.635439","594255.603687","595022.364971","581154.992235","581921.868841","582688.612193","583455.266812","584221.61535","588121.729218","588888.483391","589655.174802","590421.671434","591188.853193","591955.459581","592722.290738","593488.704203","594265.755389","Mapping"
"Mixed","Both","ball","9","m150greet.wav","space","425.204046536","119","587355.635439","594255.603687","595022.364971","595771.735262","581921.868841","582688.612193","583455.266812","584221.61535","588121.729218","588888.483391","589655.174802","590421.671434","591188.853193","591955.459581","592722.290738","593488.704203","595032.05044","Mapping"
"Mixed","Both","ball","9","m160ball.wav","None","735.766670667","119","587355.635439","594255.603687","595022.364971","595771.735262","596538.582187","582688.612193","583455.266812","584221.61535","588121.729218","588888.483391","589655.174802","590421.671434","591188.853193","591955.459581","592722.290738","593488.704203","595781.122688","Mapping"
"Mixed","Both","ball","9","m150done.wav","space","581.113907741","119","587355.635439","594255.603687","595022.364971","595771.735262","596538.582187","597305.058723","583455.266812","584221.61535","588121.729218","588888.483391","589655.174802","590421.671434","591188.853193","591955.459581","592722.290738","593488.704203","596548.117089","Mapping"
