"Condition","Talker","Target","Trial","current_stimulus","response_response","response_time_response","subject_nr","time_Audio1","time_Audio10","time_Audio11","time_Audio12","time_Audio13","time_Audio14","time_Audio15","time_Audio16","time_Audio2","time_Audio3","time_Audio4","time_Audio5","time_Audio6","time_Audio7","time_Audio8","time_Audio9","time_response","title"
"Blocked","m160","ball","6","m160depth.wav","NA","NA","126","289457.165621","NA","NA","NA","NA","NA","NA","NA","NA","NA","NA","NA","NA","NA","NA","NA","NA","Mapping"
"Blocked","m160","ball","6","m160done.wav","None","720.355377125","126","289457.165621","NA","NA","NA","NA","NA","NA","NA","290224.196711","NA","NA","NA","NA","NA","NA","NA","289471.244176","Mapping"
"Blocked","m160","ball","6","m160ball.wav","None","725.213430647","126","289457.165621","NA","NA","NA","NA","NA","NA","NA","290224.196711","290990.059742","NA","NA","NA","NA","NA","NA","290233.829651","Mapping"
"Blocked","m160","ball","6","m160depth.wav","space","415.353526769","126","289457.165621","NA","NA","NA","NA","NA","NA","NA","290224.196711","290990.059742","291756.556888","NA","NA","NA","NA","NA","290998.939223","Mapping"
"Blocked","m160","ball","6","m160ball.wav","None","727.871400886","126","289457.165621","NA","NA","NA","NA","NA","NA","NA","290224.196711","290990.059742","291756.556888","292523.458744","NA","NA","NA","NA","291765.889928","Mapping"
"Blocked","m160","ball","6","m160jaw.wav","space","633.447140339","126","289457.165621","NA","NA","NA","NA","NA","NA","NA","290224.196711","290990.059742","291756.556888","292523.458744","293290.473448","NA","NA","NA","292532.797349","Mapping"
"Blocked","m160","ball","6","m160knife.wav","None","728.942380112","126","289457.165621","NA","NA","NA","NA","NA","NA","NA","290224.196711","290990.059742","291756.556888","292523.458744","293290.473448","294057.199383","NA","NA","293299.584501","Mapping"
"Blocked","m160","ball","6","m160ball.wav","None","729.975949333","126","289457.165621","NA","NA","NA","NA","NA","NA","NA","290224.196711","290990.059742","291756.556888","292523.458744","293290.473448","294057.199383","294823.709824","NA","294066.506762","Mapping"
"Blocked","m160","ball","6","m160cling.wav","space","404.946106311","126","289457.165621","NA","NA","NA","NA","NA","NA","NA","290224.196711","290990.059742","291756.556888","292523.458744","293290.473448","294057.199383","294823.709824","295590.531913","294833.305044","Mapping"
"Blocked","m160","ball","6","m160park.wav","None","731.19842395","126","289457.165621","296356.825004","NA","NA","NA","NA","NA","NA","290224.196711","290990.059742","291756.556888","292523.458744","293290.473448","294057.199383","294823.709824","295590.531913","295599.979656","Mapping"
"Blocked","m160","ball","6","m160tile.wav","None","732.453980192","126","289457.165621","296356.825004","297123.861041","NA","NA","NA","NA","NA","290224.196711","290990.059742","291756.556888","292523.458744","293290.473448","294057.199383","294823.709824","295590.531913","296366.123726","Mapping"
"Blocked","m160","ball","6","m160done.wav","None","732.396164618","126","289457.165621","296356.825004","297123.861041","297890.601508","NA","NA","NA","NA","290224.196711","290990.059742","291756.556888","292523.458744","293290.473448","294057.199383","294823.709824","295590.531913","297133.642384","Mapping"
"Blocked","m160","ball","6","m160done.wav","None","733.175592672","126","289457.165621","296356.825004","297123.861041","297890.601508","298656.71095","NA","NA","NA","290224.196711","290990.059742","291756.556888","292523.458744","293290.473448","294057.199383","294823.709824","295590.531913","297900.104594","Mapping"
"Blocked","m160","ball","6","m160knife.wav","None","733.958112425","126","289457.165621","296356.825004","297123.861041","297890.601508","298656.71095","299424.182922","NA","NA","290224.196711","290990.059742","291756.556888","292523.458744","293290.473448","294057.199383","294823.709824","295590.531913","298667.585532","Mapping"
"Blocked","m160","ball","6","m160ball.wav","None","735.634763958","126","289457.165621","296356.825004","297123.861041","297890.601508","298656.71095","299424.182922","300207.464206","NA","290224.196711","290990.059742","291756.556888","292523.458744","293290.473448","294057.199383","294823.709824","295590.531913","299433.591092","Mapping"
"Blocked","m160","ball","6","m160dime.wav","space","332.561325456","126","289457.165621","296356.825004","297123.861041","297890.601508","298656.71095","299424.182922","300207.464206","300974.086877","290224.196711","290990.059742","291756.556888","292523.458744","293290.473448","294057.199383","294823.709824","295590.531913","300217.612539","Mapping"
"Blocked","m160","tile","13","m160cave.wav","None","720.035691047","126","304206.944175","296356.825004","297123.861041","297890.601508","298656.71095","299424.182922","300207.464206","300974.086877","290224.196711","290990.059742","291756.556888","292523.458744","293290.473448","294057.199383","294823.709824","295590.531913","300984.45967","Mapping"
"Blocked","m160","tile","13","m160jolt.wav","None","726.121165964","126","304206.944175","296356.825004","297123.861041","297890.601508","298656.71095","299424.182922","300207.464206","300974.086877","304973.89488","290990.059742","291756.556888","292523.458744","293290.473448","294057.199383","294823.709824","295590.531913","304216.17086","Mapping"
"Blocked","m160","tile","13","m160dime.wav","None","726.89317388","126","304206.944175","296356.825004","297123.861041","297890.601508","298656.71095","299424.182922","300207.464206","300974.086877","304973.89488","305740.062756","291756.556888","292523.458744","293290.473448","294057.199383","294823.709824","295590.531913","304982.928949","Mapping"
"Blocked","m160","tile","13","m160cad.wav","None","728.712354554","126","304206.944175","296356.825004","297123.861041","297890.601508","298656.71095","299424.182922","300207.464206","300974.086877","304973.89488","305740.062756","306507.285534","292523.458744","293290.473448","294057.199383","294823.709824","295590.531913","305748.756115","Mapping"
"Blocked","m160","tile","13","m160tile.wav","None","728.635988547","126","304206.944175","296356.825004","297123.861041","297890.601508","298656.71095","299424.182922","300207.464206","300974.086877","304973.89488","305740.062756","306507.285534","307273.691165","293290.473448","294057.199383","294823.709824","295590.531913","306516.428433","Mapping"
"Blocked","m160","tile","13","m160cave.wav","space","643.055963912","126","304206.944175","296356.825004","297123.861041","297890.601508","298656.71095","299424.182922","300207.464206","300974.086877","304973.89488","305740.062756","306507.285534","307273.691165","308040.38","294057.199383","294823.709824","295590.531913","307282.972883","Mapping"
"Blocked","m160","tile","13","m160tile.wav","None","730.508038076","126","304206.944175","296356.825004","297123.861041","297890.601508","298656.71095","299424.182922","300207.464206","300974.086877","304973.89488","305740.062756","306507.285534","307273.691165","308040.38","308806.950111","294823.709824","295590.531913","308049.796826","Mapping"
"Blocked","m160","tile","13","m160jaw.wav","None","731.344663305","126","304206.944175","296356.825004","297123.861041","297890.601508","298656.71095","299424.182922","300207.464206","300974.086877","304973.89488","305740.062756","306507.285534","307273.691165","308040.38","308806.950111","309573.641419","295590.531913","308816.594181","Mapping"
"Blocked","m160","tile","13","m160cling.wav","space","0.0340091646649","126","304206.944175","296356.825004","297123.861041","297890.601508","298656.71095","299424.182922","300207.464206","300974.086877","304973.89488","305740.062756","306507.285534","307273.691165","308040.38","308806.950111","309573.641419","310340.509884","309582.908915","Mapping"
"Blocked","m160","tile","13","m160tile.wav","None","732.673184713","126","304206.944175","311106.732484","297123.861041","297890.601508","298656.71095","299424.182922","300207.464206","300974.086877","304973.89488","305740.062756","306507.285534","307273.691165","308040.38","308806.950111","309573.641419","310340.509884","310350.28628","Mapping"
"Blocked","m160","tile","13","m160reek.wav","space","482.011783868","126","304206.944175","311106.732484","311873.370923","297890.601508","298656.71095","299424.182922","300207.464206","300974.086877","304973.89488","305740.062756","306507.285534","307273.691165","308040.38","308806.950111","309573.641419","310340.509884","311115.954221","Mapping"
"Blocked","m160","tile","13","m160done.wav","None","735.533973144","126","304206.944175","311106.732484","311873.370923","312640.344197","298656.71095","299424.182922","300207.464206","300974.086877","304973.89488","305740.062756","306507.285534","307273.691165","308040.38","308806.950111","309573.641419","310340.509884","311882.886067","Mapping"
"Blocked","m160","tile","13","m160priest.wav","None","736.649164348","126","304206.944175","311106.732484","311873.370923","312640.344197","313423.428537","299424.182922","300207.464206","300974.086877","304973.89488","305740.062756","306507.285534","307273.691165","308040.38","308806.950111","309573.641419","310340.509884","312649.210075","Mapping"
"Blocked","m160","tile","13","m160tile.wav","None","720.695777854","126","304206.944175","311106.732484","311873.370923","312640.344197","313423.428537","314190.67945","300207.464206","300974.086877","304973.89488","305740.062756","306507.285534","307273.691165","308040.38","308806.950111","309573.641419","310340.509884","313432.733443","Mapping"
"Blocked","m160","tile","13","m160jolt.wav","space","380.987582612","126","304206.944175","311106.732484","311873.370923","312640.344197","313423.428537","314190.67945","314957.160829","300974.086877","304973.89488","305740.062756","306507.285534","307273.691165","308040.38","308806.950111","309573.641419","310340.509884","314200.979278","Mapping"
"Blocked","m160","tile","13","m160done.wav","None","721.29062895","126","304206.944175","311106.732484","311873.370923","312640.344197","313423.428537","314190.67945","314957.160829","315723.82864","304973.89488","305740.062756","306507.285534","307273.691165","308040.38","308806.950111","309573.641419","310340.509884","314967.005243","Mapping"
"Blocked","m160","done","22","m160knife.wav","None","722.074694582","126","318856.776309","311106.732484","311873.370923","312640.344197","313423.428537","314190.67945","314957.160829","315723.82864","304973.89488","305740.062756","306507.285534","307273.691165","308040.38","308806.950111","309573.641419","310340.509884","315733.858868","Mapping"
"Blocked","m160","done","22","m160done.wav","None","724.777804222","126","318856.776309","311106.732484","311873.370923","312640.344197","313423.428537","314190.67945","314957.160829","315723.82864","319623.492042","305740.062756","306507.285534","307273.691165","308040.38","308806.950111","309573.641419","310340.509884","318866.144904","Mapping"
"Blocked","m160","done","22","m160cling.wav","None","725.566198351","126","318856.776309","311106.732484","311873.370923","312640.344197","313423.428537","314190.67945","314957.160829","315723.82864","319623.492042","320389.983314","306507.285534","307273.691165","308040.38","308806.950111","309573.641419","310340.509884","319632.922781","Mapping"
"Blocked","m160","done","22","m160romp.wav","space","47.1555513795","126","318856.776309","311106.732484","311873.370923","312640.344197","313423.428537","314190.67945","314957.160829","315723.82864","319623.492042","320389.983314","321156.761191","307273.691165","308040.38","308806.950111","309573.641419","310340.509884","320398.708209","Mapping"
"Blocked","m160","done","22","m160romp.wav","None","727.856251353","126","318856.776309","311106.732484","311873.370923","312640.344197","313423.428537","314190.67945","314957.160829","315723.82864","319623.492042","320389.983314","321156.761191","321923.127247","308040.38","308806.950111","309573.641419","310340.509884","321166.110308","Mapping"
"Blocked","m160","done","22","m160gnash.wav","None","729.534757847","126","318856.776309","311106.732484","311873.370923","312640.344197","313423.428537","314190.67945","314957.160829","315723.82864","319623.492042","320389.983314","321156.761191","321923.127247","322689.804024","308806.950111","309573.641419","310340.509884","321932.277875","Mapping"
"Blocked","m160","done","22","m160done.wav","None","730.739300372","126","318856.776309","311106.732484","311873.370923","312640.344197","313423.428537","314190.67945","314957.160829","315723.82864","319623.492042","320389.983314","321156.761191","321923.127247","322689.804024","323456.365788","309573.641419","310340.509884","322698.780277","Mapping"
"Blocked","m160","done","22","m160greet.wav","space","540.432713984","126","318856.776309","311106.732484","311873.370923","312640.344197","313423.428537","314190.67945","314957.160829","315723.82864","319623.492042","320389.983314","321156.761191","321923.127247","322689.804024","323456.365788","324223.386675","310340.509884","323465.369557","Mapping"
"Blocked","m160","done","22","m160greet.wav","None","731.618591642","126","318856.776309","311106.732484","311873.370923","312640.344197","313423.428537","314190.67945","314957.160829","315723.82864","319623.492042","320389.983314","321156.761191","321923.127247","322689.804024","323456.365788","324223.386675","324989.911647","324232.695291","Mapping"
"Blocked","m160","done","22","m160done.wav","None","733.313793549","126","318856.776309","325756.680558","311873.370923","312640.344197","313423.428537","314190.67945","314957.160829","315723.82864","319623.492042","320389.983314","321156.761191","321923.127247","322689.804024","323456.365788","324223.386675","324989.911647","324998.719401","Mapping"
"Blocked","m160","done","22","m160jolt.wav","space","327.765725146","126","318856.776309","325756.680558","326522.983543","312640.344197","313423.428537","314190.67945","314957.160829","315723.82864","319623.492042","320389.983314","321156.761191","321923.127247","322689.804024","323456.365788","324223.386675","324989.911647","325766.047916","Mapping"
"Blocked","m160","done","22","m160tile.wav","None","735.344449407","126","318856.776309","325756.680558","326522.983543","327289.602813","313423.428537","314190.67945","314957.160829","315723.82864","319623.492042","320389.983314","321156.761191","321923.127247","322689.804024","323456.365788","324223.386675","324989.911647","326531.996279","Mapping"
"Blocked","m160","done","22","m160depth.wav","None","736.554556992","126","318856.776309","325756.680558","326522.983543","327289.602813","328073.993414","314190.67945","314957.160829","315723.82864","319623.492042","320389.983314","321156.761191","321923.127247","322689.804024","323456.365788","324223.386675","324989.911647","327298.379958","Mapping"
"Blocked","m160","done","22","m160park.wav","None","719.563582155","126","318856.776309","325756.680558","326522.983543","327289.602813","328073.993414","328840.608047","314957.160829","315723.82864","319623.492042","320389.983314","321156.761191","321923.127247","322689.804024","323456.365788","324223.386675","324989.911647","328083.44425","Mapping"
"Blocked","m160","done","22","m160done.wav","None","720.002300222","126","318856.776309","325756.680558","326522.983543","327289.602813","328073.993414","328840.608047","329606.808386","315723.82864","319623.492042","320389.983314","321156.761191","321923.127247","322689.804024","323456.365788","324223.386675","324989.911647","328850.543667","Mapping"
"Blocked","m160","done","22","m160jaw.wav","space","390.074829396","126","318856.776309","325756.680558","326522.983543","327289.602813","328073.993414","328840.608047","329606.808386","330373.970566","319623.492042","320389.983314","321156.761191","321923.127247","322689.804024","323456.365788","324223.386675","324989.911647","329615.636236","Mapping"
"Blocked","m160","ball","5","m160done.wav","None","721.352463763","126","333506.494358","325756.680558","326522.983543","327289.602813","328073.993414","328840.608047","329606.808386","330373.970566","319623.492042","320389.983314","321156.761191","321923.127247","322689.804024","323456.365788","324223.386675","324989.911647","330384.142396","Mapping"
"Blocked","m160","ball","5","m160park.wav","None","724.9614537","126","333506.494358","325756.680558","326522.983543","327289.602813","328073.993414","328840.608047","329606.808386","330373.970566","334273.340871","320389.983314","321156.761191","321923.127247","322689.804024","323456.365788","324223.386675","324989.911647","333515.727535","Mapping"
"Blocked","m160","ball","5","m160gnash.wav","None","725.52044061","126","333506.494358","325756.680558","326522.983543","327289.602813","328073.993414","328840.608047","329606.808386","330373.970566","334273.340871","335040.113183","321156.761191","321923.127247","322689.804024","323456.365788","324223.386675","324989.911647","334282.651342","Mapping"
"Blocked","m160","ball","5","m160jolt.wav","None","726.535150141","126","333506.494358","325756.680558","326522.983543","327289.602813","328073.993414","328840.608047","329606.808386","330373.970566","334273.340871","335040.113183","335806.429153","321923.127247","322689.804024","323456.365788","324223.386675","324989.911647","335049.572675","Mapping"
"Blocked","m160","ball","5","m160ball.wav","None","727.671674336","126","333506.494358","325756.680558","326522.983543","327289.602813","328073.993414","328840.608047","329606.808386","330373.970566","334273.340871","335040.113183","335806.429153","336573.377075","322689.804024","323456.365788","324223.386675","324989.911647","335815.880607","Mapping"
"Blocked","m160","ball","5","m160cad.wav","space","526.736917207","126","333506.494358","325756.680558","326522.983543","327289.602813","328073.993414","328840.608047","329606.808386","330373.970566","334273.340871","335040.113183","335806.429153","336573.377075","337339.976558","323456.365788","324223.386675","324989.911647","336582.876142","Mapping"
"Blocked","m160","ball","5","m160cling.wav","None","729.131903907","126","333506.494358","325756.680558","326522.983543","327289.602813","328073.993414","328840.608047","329606.808386","330373.970566","334273.340871","335040.113183","335806.429153","336573.377075","337339.976558","338106.538322","324223.386675","324989.911647","337349.50747","Mapping"
"Blocked","m160","ball","5","m160ball.wav","None","730.417140876","126","333506.494358","325756.680558","326522.983543","327289.602813","328073.993414","328840.608047","329606.808386","330373.970566","334273.340871","335040.113183","335806.429153","336573.377075","337339.976558","338106.538322","338873.190983","324989.911647","338115.912792","Mapping"
"Blocked","m160","ball","5","m160depth.wav","space","466.742599849","126","333506.494358","325756.680558","326522.983543","327289.602813","328073.993414","328840.608047","329606.808386","330373.970566","334273.340871","335040.113183","335806.429153","336573.377075","337339.976558","338106.538322","338873.190983","339639.584866","338882.834744","Mapping"
"Blocked","m160","ball","5","m160lash.wav","None","732.647214085","126","333506.494358","340406.44591","326522.983543","327289.602813","328073.993414","328840.608047","329606.808386","330373.970566","334273.340871","335040.113183","335806.429153","336573.377075","337339.976558","338106.538322","338873.190983","339639.584866","339648.362011","Mapping"
"Blocked","m160","ball","5","m160cave.wav","None","732.993489131","126","333506.494358","340406.44591","341172.850304","327289.602813","328073.993414","328840.608047","329606.808386","330373.970566","334273.340871","335040.113183","335806.429153","336573.377075","337339.976558","338106.538322","338873.190983","339639.584866","340415.718971","Mapping"
"Blocked","m160","ball","5","m160ball.wav","None","735.388661269","126","333506.494358","340406.44591","341172.850304","341939.711349","328073.993414","328840.608047","329606.808386","330373.970566","334273.340871","335040.113183","335806.429153","336573.377075","337339.976558","338106.538322","338873.190983","339639.584866","341181.545518","Mapping"
"Blocked","m160","ball","5","m160dime.wav","space","280.69365077","126","333506.494358","340406.44591","341172.850304","341939.711349","342706.295682","328840.608047","329606.808386","330373.970566","334273.340871","335040.113183","335806.429153","336573.377075","337339.976558","338106.538322","338873.190983","339639.584866","341948.881145","Mapping"
"Blocked","m160","ball","5","m160greet.wav","None","736.85012752","126","333506.494358","340406.44591","341172.850304","341939.711349","342706.295682","343489.813175","329606.808386","330373.970566","334273.340871","335040.113183","335806.429153","336573.377075","337339.976558","338106.538322","338873.190983","339639.584866","342715.134972","Mapping"
"Blocked","m160","ball","5","m160ball.wav","None","720.916219056","126","333506.494358","340406.44591","341172.850304","341939.711349","342706.295682","343489.813175","344256.268892","330373.970566","334273.340871","335040.113183","335806.429153","336573.377075","337339.976558","338106.538322","338873.190983","339639.584866","343499.605339","Mapping"
"Blocked","m160","ball","5","m160jolt.wav","space","332.293271495","126","333506.494358","340406.44591","341172.850304","341939.711349","342706.295682","343489.813175","344256.268892","345022.980915","334273.340871","335040.113183","335806.429153","336573.377075","337339.976558","338106.538322","338873.190983","339639.584866","344265.215465","Mapping"
"Blocked","m160","ball","3","m160jolt.wav","None","724.178624747","126","348156.256309","340406.44591","341172.850304","341939.711349","342706.295682","343489.813175","344256.268892","345022.980915","334273.340871","335040.113183","335806.429153","336573.377075","337339.976558","338106.538322","338873.190983","339639.584866","345031.979429","Mapping"
"Blocked","m160","ball","3","m160cad.wav","None","725.019578415","126","348156.256309","340406.44591","341172.850304","341939.711349","342706.295682","343489.813175","344256.268892","345022.980915","348923.131885","335040.113183","335806.429153","336573.377075","337339.976558","338106.538322","338873.190983","339639.584866","348165.506491","Mapping"
"Blocked","m160","ball","3","m160cad.wav","None","725.659568969","126","348156.256309","340406.44591","341172.850304","341939.711349","342706.295682","343489.813175","344256.268892","345022.980915","348923.131885","349689.78671","335806.429153","336573.377075","337339.976558","338106.538322","338873.190983","339639.584866","348932.659086","Mapping"
"Blocked","m160","ball","3","m160ball.wav","None","727.732581669","126","348156.256309","340406.44591","341172.850304","341939.711349","342706.295682","343489.813175","344256.268892","345022.980915","348923.131885","349689.78671","350456.354967","336573.377075","337339.976558","338106.538322","338873.190983","339639.584866","349698.846749","Mapping"
"Blocked","m160","ball","3","m160gnash.wav","space","371.756879089","126","348156.256309","340406.44591","341172.850304","341939.711349","342706.295682","343489.813175","344256.268892","345022.980915","348923.131885","349689.78671","350456.354967","351223.001444","337339.976558","338106.538322","338873.190983","339639.584866","350465.643486","Mapping"
"Blocked","m160","ball","3","m160ball.wav","None","728.997413127","126","348156.256309","340406.44591","341172.850304","341939.711349","342706.295682","343489.813175","344256.268892","345022.980915","348923.131885","349689.78671","350456.354967","351223.001444","351989.734491","338106.538322","338873.190983","339639.584866","351232.742285","Mapping"
"Blocked","m160","ball","3","m160romp.wav","space","518.388905853","126","348156.256309","340406.44591","341172.850304","341939.711349","342706.295682","343489.813175","344256.268892","345022.980915","348923.131885","349689.78671","350456.354967","351223.001444","351989.734491","352756.743629","338873.190983","339639.584866","351998.99302","Mapping"
"Blocked","m160","ball","3","m160lash.wav","None","731.320547697","126","348156.256309","340406.44591","341172.850304","341939.711349","342706.295682","343489.813175","344256.268892","345022.980915","348923.131885","349689.78671","350456.354967","351223.001444","351989.734491","352756.743629","353522.785981","339639.584866","352765.474708","Mapping"
"Blocked","m160","ball","3","m160jaw.wav","space","289.559838013","126","348156.256309","340406.44591","341172.850304","341939.711349","342706.295682","343489.813175","344256.268892","345022.980915","348923.131885","349689.78671","350456.354967","351223.001444","351989.734491","352756.743629","353522.785981","354289.393502","353531.840764","Mapping"
"Blocked","m160","ball","3","m160bluff.wav","None","733.793322637","126","348156.256309","355056.018029","341172.850304","341939.711349","342706.295682","343489.813175","344256.268892","345022.980915","348923.131885","349689.78671","350456.354967","351223.001444","351989.734491","352756.743629","353522.785981","354289.393502","354298.318433","Mapping"
"Blocked","m160","ball","3","m160ball.wav","None","734.321701282","126","348156.256309","355056.018029","355822.723558","341939.711349","342706.295682","343489.813175","344256.268892","345022.980915","348923.131885","349689.78671","350456.354967","351223.001444","351989.734491","352756.743629","353522.785981","354289.393502","355065.603664","Mapping"
"Blocked","m160","ball","3","m160jolt.wav","space","429.446612252","126","348156.256309","355056.018029","355822.723558","356606.682243","342706.295682","343489.813175","344256.268892","345022.980915","348923.131885","349689.78671","350456.354967","351223.001444","351989.734491","352756.743629","353522.785981","354289.393502","355831.895828","Mapping"
"Blocked","m160","ball","3","m160greet.wav","None","719.764545327","126","348156.256309","355056.018029","355822.723558","356606.682243","357373.389937","343489.813175","344256.268892","345022.980915","348923.131885","349689.78671","350456.354967","351223.001444","351989.734491","352756.743629","353522.785981","354289.393502","356615.869662","Mapping"
"Blocked","m160","ball","3","m160ball.wav","None","720.439781668","126","348156.256309","355056.018029","355822.723558","356606.682243","357373.389937","358140.072279","344256.268892","345022.980915","348923.131885","349689.78671","350456.354967","351223.001444","351989.734491","352756.743629","353522.785981","354289.393502","357383.224458","Mapping"
"Blocked","m160","ball","3","m160reek.wav","space","391.157557315","126","348156.256309","355056.018029","355822.723558","356606.682243","357373.389937","358140.072279","358906.364752","345022.980915","348923.131885","349689.78671","350456.354967","351223.001444","351989.734491","352756.743629","353522.785981","354289.393502","358150.114255","Mapping"
"Blocked","m160","ball","3","m160greet.wav","None","721.888571745","126","348156.256309","355056.018029","355822.723558","356606.682243","357373.389937","358140.072279","358906.364752","359673.392441","348923.131885","349689.78671","350456.354967","351223.001444","351989.734491","352756.743629","353522.785981","354289.393502","358916.66829","Mapping"
"Blocked","m160","tile","15","m160cad.wav","None","723.376008624","126","362806.134201","355056.018029","355822.723558","356606.682243","357373.389937","358140.072279","358906.364752","359673.392441","348923.131885","349689.78671","350456.354967","351223.001444","351989.734491","352756.743629","353522.785981","354289.393502","359683.213977","Mapping"
"Blocked","m160","tile","15","m160tile.wav","None","724.839329952","126","362806.134201","355056.018029","355822.723558","356606.682243","357373.389937","358140.072279","358906.364752","359673.392441","363572.482635","349689.78671","350456.354967","351223.001444","351989.734491","352756.743629","353522.785981","354289.393502","362815.535259","Mapping"
"Blocked","m160","tile","15","m160dime.wav","space","416.001555743","126","362806.134201","355056.018029","355822.723558","356606.682243","357373.389937","358140.072279","358906.364752","359673.392441","363572.482635","364339.602458","350456.354967","351223.001444","351989.734491","352756.743629","353522.785981","354289.393502","363581.21464","Mapping"
"Blocked","m160","tile","15","m160tile.wav","None","726.874932589","126","362806.134201","355056.018029","355822.723558","356606.682243","357373.389937","358140.072279","358906.364752","359673.392441","363572.482635","364339.602458","365106.043025","351223.001444","351989.734491","352756.743629","353522.785981","354289.393502","364348.602208","Mapping"
"Blocked","m160","tile","15","m160jolt.wav","None","727.746185323","126","362806.134201","355056.018029","355822.723558","356606.682243","357373.389937","358140.072279","358906.364752","359673.392441","363572.482635","364339.602458","365106.043025","365872.566142","351989.734491","352756.743629","353522.785981","354289.393502","365115.591869","Mapping"
"Blocked","m160","tile","15","m160depth.wav","space","0.0361733837053","126","362806.134201","355056.018029","355822.723558","356606.682243","357373.389937","358140.072279","358906.364752","359673.392441","363572.482635","364339.602458","365106.043025","365872.566142","366639.556113","352756.743629","353522.785981","354289.393502","365881.904129","Mapping"
"Blocked","m160","tile","15","m160cling.wav","None","730.045204342","126","362806.134201","355056.018029","355822.723558","356606.682243","357373.389937","358140.072279","358906.364752","359673.392441","363572.482635","364339.602458","365106.043025","365872.566142","366639.556113","367405.765109","353522.785981","354289.393502","366648.957789","Mapping"
"Blocked","m160","tile","15","m160tile.wav","None","732.155317964","126","362806.134201","355056.018029","355822.723558","356606.682243","357373.389937","358140.072279","358906.364752","359673.392441","363572.482635","364339.602458","365106.043025","365872.566142","366639.556113","367405.765109","368172.861435","354289.393502","367414.837824","Mapping"
"Blocked","m160","tile","15","m160done.wav","space","326.63105597","126","362806.134201","355056.018029","355822.723558","356606.682243","357373.389937","358140.072279","358906.364752","359673.392441","363572.482635","364339.602458","365106.043025","365872.566142","366639.556113","367405.765109","368172.861435","368939.53512","368182.517562","Mapping"
"Blocked","m160","tile","15","m160ball.wav","None","733.480747556","126","362806.134201","369705.671151","355822.723558","356606.682243","357373.389937","358140.072279","358906.364752","359673.392441","363572.482635","364339.602458","365106.043025","365872.566142","366639.556113","367405.765109","368172.861435","368939.53512","368949.048718","Mapping"
"Blocked","m160","tile","15","m160done.wav","None","735.518205271","126","362806.134201","369705.671151","370473.37284","356606.682243","357373.389937","358140.072279","358906.364752","359673.392441","363572.482635","364339.602458","365106.043025","365872.566142","366639.556113","367405.765109","368172.861435","368939.53512","369714.888251","Mapping"
"Blocked","m160","tile","15","m160dime.wav","None","736.463350651","126","362806.134201","369705.671151","370473.37284","371256.336911","357373.389937","358140.072279","358906.364752","359673.392441","363572.482635","364339.602458","365106.043025","365872.566142","366639.556113","367405.765109","368172.861435","368939.53512","370482.037445","Mapping"
"Blocked","m160","tile","15","m160priest.wav","None","720.416284399","126","362806.134201","369705.671151","370473.37284","371256.336911","372022.541579","358140.072279","358906.364752","359673.392441","363572.482635","364339.602458","365106.043025","365872.566142","366639.556113","367405.765109","368172.861435","368939.53512","371266.177615","Mapping"
"Blocked","m160","tile","15","m160cad.wav","None","723.2059628","126","362806.134201","369705.671151","370473.37284","371256.336911","372022.541579","372789.776105","358906.364752","359673.392441","363572.482635","364339.602458","365106.043025","365872.566142","366639.556113","367405.765109","368172.861435","368939.53512","372031.536382","Mapping"
"Blocked","m160","tile","15","m160tile.wav","None","722.449722874","126","362806.134201","369705.671151","370473.37284","371256.336911","372022.541579","372789.776105","373555.676855","359673.392441","363572.482635","364339.602458","365106.043025","365872.566142","366639.556113","367405.765109","368172.861435","368939.53512","372800.273495","Mapping"
"Blocked","m160","tile","15","m160lash.wav","space","352.34908975","126","362806.134201","369705.671151","370473.37284","371256.336911","372022.541579","372789.776105","373555.676855","374322.293961","363572.482635","364339.602458","365106.043025","365872.566142","366639.556113","367405.765109","368172.861435","368939.53512","373564.713706","Mapping"
"Blocked","m160","cave","12","m160lash.wav","None","727.549550589","126","377455.996634","369705.671151","370473.37284","371256.336911","372022.541579","372789.776105","373555.676855","374322.293961","363572.482635","364339.602458","365106.043025","365872.566142","366639.556113","367405.765109","368172.861435","368939.53512","374331.074198","Mapping"
"Blocked","m160","cave","12","m160cave.wav","None","724.684433662","126","377455.996634","369705.671151","370473.37284","371256.336911","372022.541579","372789.776105","373555.676855","374322.293961","378222.934663","364339.602458","365106.043025","365872.566142","366639.556113","367405.765109","368172.861435","368939.53512","377465.571139","Mapping"
"Blocked","m160","cave","12","m160done.wav","space","706.22673654","126","377455.996634","369705.671151","370473.37284","371256.336911","372022.541579","372789.776105","373555.676855","374322.293961","378222.934663","378989.359771","365106.043025","365872.566142","366639.556113","367405.765109","368172.861435","368939.53512","378226.773369","Mapping"
"Blocked","m160","cave","12","m160bluff.wav","None","726.787127089","126","377455.996634","369705.671151","370473.37284","371256.336911","372022.541579","372789.776105","373555.676855","374322.293961","378222.934663","378989.359771","379755.792919","365872.566142","366639.556113","367405.765109","368172.861435","368939.53512","378998.801641","Mapping"
"Blocked","m160","cave","12","m160cave.wav","None","728.276109847","126","377455.996634","369705.671151","370473.37284","371256.336911","372022.541579","372789.776105","373555.676855","374322.293961","378222.934663","378989.359771","379755.792919","380522.571414","366639.556113","367405.765109","368172.861435","368939.53512","379765.094733","Mapping"
"Blocked","m160","cave","12","m160park.wav","space","398.199926247","126","377455.996634","369705.671151","370473.37284","371256.336911","372022.541579","372789.776105","373555.676855","374322.293961","378222.934663","378989.359771","379755.792919","380522.571414","381289.304769","367405.765109","368172.861435","368939.53512","380526.769071","Mapping"
"Blocked","m160","cave","12","m160cave.wav","None","730.342629889","126","377455.996634","369705.671151","370473.37284","371256.336911","372022.541579","372789.776105","373555.676855","374322.293961","378222.934663","378989.359771","379755.792919","380522.571414","381289.304769","382055.780892","368172.861435","368939.53512","381298.53269","Mapping"
"Blocked","m160","cave","12","m160done.wav","None","731.80285946","126","377455.996634","369705.671151","370473.37284","371256.336911","372022.541579","372789.776105","373555.676855","374322.293961","378222.934663","378989.359771","379755.792919","380522.571414","381289.304769","382055.780892","382822.715211","368939.53512","382064.827946","Mapping"
"Blocked","m160","cave","12","m160depth.wav","space","188.743092644","126","377455.996634","369705.671151","370473.37284","371256.336911","372022.541579","372789.776105","373555.676855","374322.293961","378222.934663","378989.359771","379755.792919","380522.571414","381289.304769","382055.780892","382822.715211","383589.250386","382832.178722","Mapping"
"Blocked","m160","cave","12","m160park.wav","None","733.651720919","126","377455.996634","384355.533893","370473.37284","371256.336911","372022.541579","372789.776105","373555.676855","374322.293961","378222.934663","378989.359771","379755.792919","380522.571414","381289.304769","382055.780892","382822.715211","383589.250386","383598.270851","Mapping"
"Blocked","m160","cave","12","m160lash.wav","None","734.975604573","126","377455.996634","384355.533893","385139.714564","371256.336911","372022.541579","372789.776105","373555.676855","374322.293961","378222.934663","378989.359771","379755.792919","380522.571414","381289.304769","382055.780892","382822.715211","383589.250386","384364.840962","Mapping"
"Blocked","m160","cave","12","m160cave.wav","None","718.482090975","126","377455.996634","384355.533893","385139.714564","385905.7328","372022.541579","372789.776105","373555.676855","374322.293961","378222.934663","378989.359771","379755.792919","380522.571414","381289.304769","382055.780892","382822.715211","383589.250386","385149.909891","Mapping"
"Blocked","m160","cave","12","m160park.wav","space","370.215955074","126","377455.996634","384355.533893","385139.714564","385905.7328","386672.597555","372789.776105","373555.676855","374322.293961","378222.934663","378989.359771","379755.792919","380522.571414","381289.304769","382055.780892","382822.715211","383589.250386","385914.65773","Mapping"
"Blocked","m160","cave","12","m160lash.wav","None","721.145007934","126","377455.996634","384355.533893","385139.714564","385905.7328","386672.597555","387439.594945","373555.676855","374322.293961","378222.934663","378989.359771","379755.792919","380522.571414","381289.304769","382055.780892","382822.715211","383589.250386","386682.379516","Mapping"
"Blocked","m160","cave","12","m160cad.wav","None","722.182905534","126","377455.996634","384355.533893","385139.714564","385905.7328","386672.597555","387439.594945","388206.057155","374322.293961","378222.934663","378989.359771","379755.792919","380522.571414","381289.304769","382055.780892","382822.715211","383589.250386","387449.340733","Mapping"
"Blocked","m160","cave","12","m160priest.wav","None","723.806688271","126","377455.996634","384355.533893","385139.714564","385905.7328","386672.597555","387439.594945","388206.057155","388972.488138","378222.934663","378989.359771","379755.792919","380522.571414","381289.304769","382055.780892","382822.715211","383589.250386","388215.795831","Mapping"
"Blocked","m160","done","19","m160tile.wav","None","725.18591414","126","392105.658103","384355.533893","385139.714564","385905.7328","386672.597555","387439.594945","388206.057155","388972.488138","378222.934663","378989.359771","379755.792919","380522.571414","381289.304769","382055.780892","382822.715211","383589.250386","388982.310601","Mapping"
"Blocked","m160","done","19","m160tile.wav","None","724.904874864","126","392105.658103","384355.533893","385139.714564","385905.7328","386672.597555","387439.594945","388206.057155","388972.488138","392872.577273","378989.359771","379755.792919","380522.571414","381289.304769","382055.780892","382822.715211","383589.250386","392114.899937","Mapping"
"Blocked","m160","done","19","m160done.wav","None","725.976472429","126","392105.658103","384355.533893","385139.714564","385905.7328","386672.597555","387439.594945","388206.057155","388972.488138","392872.577273","393639.215093","379755.792919","380522.571414","381289.304769","382055.780892","382822.715211","383589.250386","392881.931646","Mapping"
"Blocked","m160","done","19","m160cave.wav","space","612.111031893","126","392105.658103","384355.533893","385139.714564","385905.7328","386672.597555","387439.594945","388206.057155","388972.488138","392872.577273","393639.215093","394405.852296","380522.571414","381289.304769","382055.780892","382822.715211","383589.250386","393648.670257","Mapping"
"Blocked","m160","done","19","m160priest.wav","None","727.84326598","126","392105.658103","384355.533893","385139.714564","385905.7328","386672.597555","387439.594945","388206.057155","388972.488138","392872.577273","393639.215093","394405.852296","395172.713031","381289.304769","382055.780892","382822.715211","383589.250386","394415.179771","Mapping"
"Blocked","m160","done","19","m160done.wav","None","728.529014275","126","392105.658103","384355.533893","385139.714564","385905.7328","386672.597555","387439.594945","388206.057155","388972.488138","392872.577273","393639.215093","394405.852296","395172.713031","395939.084653","382055.780892","382822.715211","383589.250386","395182.576614","Mapping"
"Blocked","m160","done","19","m160cling.wav","space","456.158640969","126","392105.658103","384355.533893","385139.714564","385905.7328","386672.597555","387439.594945","388206.057155","388972.488138","392872.577273","393639.215093","394405.852296","395172.713031","395939.084653","396705.58891","382822.715211","383589.250386","395948.565169","Mapping"
"Blocked","m160","done","19","m160park.wav","None","731.66805954","126","392105.658103","384355.533893","385139.714564","385905.7328","386672.597555","387439.594945","388206.057155","388972.488138","392872.577273","393639.215093","394405.852296","395172.713031","395939.084653","396705.58891","397472.315155","383589.250386","396714.729953","Mapping"
"Blocked","m160","done","19","m160gnash.wav","None","732.442540757","126","392105.658103","384355.533893","385139.714564","385905.7328","386672.597555","387439.594945","388206.057155","388972.488138","392872.577273","393639.215093","394405.852296","395172.713031","395939.084653","396705.58891","397472.315155","398238.989458","397481.94222","Mapping"
"Blocked","m160","done","19","m160ball.wav","None","735.057226557","126","392105.658103","399005.782793","385139.714564","385905.7328","386672.597555","387439.594945","388206.057155","388972.488138","392872.577273","393639.215093","394405.852296","395172.713031","395939.084653","396705.58891","397472.315155","398238.989458","398248.152453","Mapping"
"Blocked","m160","done","19","m160lash.wav","None","736.641744152","126","392105.658103","399005.782793","399788.87579","385905.7328","386672.597555","387439.594945","388206.057155","388972.488138","392872.577273","393639.215093","394405.852296","395172.713031","395939.084653","396705.58891","397472.315155","398238.989458","399014.807587","Mapping"
"Blocked","m160","done","19","m160done.wav","None","721.760264481","126","392105.658103","399005.782793","399788.87579","400555.385613","386672.597555","387439.594945","388206.057155","388972.488138","392872.577273","393639.215093","394405.852296","395172.713031","395939.084653","396705.58891","397472.315155","398238.989458","399797.741359","Mapping"
"Blocked","m160","done","19","m160jaw.wav","space","304.253030568","126","392105.658103","399005.782793","399788.87579","400555.385613","401322.855421","387439.594945","388206.057155","388972.488138","392872.577273","393639.215093","394405.852296","395172.713031","395939.084653","396705.58891","397472.315155","398238.989458","400564.382581","Mapping"
"Blocked","m160","done","19","m160done.wav","None","722.500427451","126","392105.658103","399005.782793","399788.87579","400555.385613","401322.855421","402088.948786","388206.057155","388972.488138","392872.577273","393639.215093","394405.852296","395172.713031","395939.084653","396705.58891","397472.315155","398238.989458","401332.595335","Mapping"
"Blocked","m160","done","19","m160knife.wav","space","370.25058252","126","392105.658103","399005.782793","399788.87579","400555.385613","401322.855421","402088.948786","402855.344833","388972.488138","392872.577273","393639.215093","394405.852296","395172.713031","395939.084653","396705.58891","397472.315155","398238.989458","402098.38911","Mapping"
"Blocked","m160","done","19","m160gnash.wav","None","726.682626235","126","392105.658103","399005.782793","399788.87579","400555.385613","401322.855421","402088.948786","402855.344833","403622.314707","392872.577273","393639.215093","394405.852296","395172.713031","395939.084653","396705.58891","397472.315155","398238.989458","402864.496697","Mapping"
"Blocked","m160","done","21","m160dime.wav","None","727.467310207","126","406755.416654","399005.782793","399788.87579","400555.385613","401322.855421","402088.948786","402855.344833","403622.314707","392872.577273","393639.215093","394405.852296","395172.713031","395939.084653","396705.58891","397472.315155","398238.989458","403631.957539","Mapping"
"Blocked","m160","done","21","m160done.wav","None","725.16148939","126","406755.416654","399005.782793","399788.87579","400555.385613","401322.855421","402088.948786","402855.344833","403622.314707","407522.140425","393639.215093","394405.852296","395172.713031","395939.084653","396705.58891","397472.315155","398238.989458","406764.45536","Mapping"
"Blocked","m160","done","21","m160bluff.wav","space","393.068871927","126","406755.416654","399005.782793","399788.87579","400555.385613","401322.855421","402088.948786","402855.344833","403622.314707","407522.140425","408288.936543","394405.852296","395172.713031","395939.084653","396705.58891","397472.315155","398238.989458","407531.503455","Mapping"
"Blocked","m160","done","21","m160ball.wav","None","727.001384774","126","406755.416654","399005.782793","399788.87579","400555.385613","401322.855421","402088.948786","402855.344833","403622.314707","407522.140425","408288.936543","409055.029599","395172.713031","395939.084653","396705.58891","397472.315155","398238.989458","408297.965047","Mapping"
"Blocked","m160","done","21","m160cave.wav","None","729.55454496","126","406755.416654","399005.782793","399788.87579","400555.385613","401322.855421","402088.948786","402855.344833","403622.314707","407522.140425","408288.936543","409055.029599","409822.071201","395939.084653","396705.58891","397472.315155","398238.989458","409064.092112","Mapping"
"Blocked","m160","done","21","m160tile.wav","None","729.834038415","126","406755.416654","399005.782793","399788.87579","400555.385613","401322.855421","402088.948786","402855.344833","403622.314707","407522.140425","408288.936543","409055.029599","409822.071201","410588.871338","396705.58891","397472.315155","398238.989458","409831.986725","Mapping"
"Blocked","m160","done","21","m160priest.wav","None","731.815535575","126","406755.416654","399005.782793","399788.87579","400555.385613","401322.855421","402088.948786","402855.344833","403622.314707","407522.140425","408288.936543","409055.029599","409822.071201","410588.871338","411355.200603","397472.315155","398238.989458","410598.034642","Mapping"
"Blocked","m160","done","21","m160done.wav","None","733.922866581","126","406755.416654","399005.782793","399788.87579","400555.385613","401322.855421","402088.948786","402855.344833","403622.314707","407522.140425","408288.936543","409055.029599","409822.071201","410588.871338","411355.200603","412122.003214","398238.989458","411364.081012","Mapping"
"Blocked","m160","done","21","m160reek.wav","space","441.087637562","126","406755.416654","399005.782793","399788.87579","400555.385613","401322.855421","402088.948786","402855.344833","403622.314707","407522.140425","408288.936543","409055.029599","409822.071201","410588.871338","411355.200603","412122.003214","412888.563741","412131.411383","Mapping"
"Blocked","m160","done","21","m160depth.wav","None","735.469355772","126","406755.416654","413672.68536","399788.87579","400555.385613","401322.855421","402088.948786","402855.344833","403622.314707","407522.140425","408288.936543","409055.029599","409822.071201","410588.871338","411355.200603","412122.003214","412888.563741","412898.015813","Mapping"
"Blocked","m160","done","21","m160done.wav","None","719.134139246","126","406755.416654","413672.68536","414439.187762","400555.385613","401322.855421","402088.948786","402855.344833","403622.314707","407522.140425","408288.936543","409055.029599","409822.071201","410588.871338","411355.200603","412122.003214","412888.563741","413682.461138","Mapping"
"Blocked","m160","done","21","m160cad.wav","space","587.232096703","126","406755.416654","413672.68536","414439.187762","415205.828675","401322.855421","402088.948786","402855.344833","403622.314707","407522.140425","408288.936543","409055.029599","409822.071201","410588.871338","411355.200603","412122.003214","412888.563741","414449.240869","Mapping"
"Blocked","m160","done","21","m160priest.wav","None","721.463457274","126","406755.416654","413672.68536","414439.187762","415205.828675","415972.392294","402088.948786","402855.344833","403622.314707","407522.140425","408288.936543","409055.029599","409822.071201","410588.871338","411355.200603","412122.003214","412888.563741","415215.468725","Mapping"
"Blocked","m160","done","21","m160jaw.wav","None","722.746530024","126","406755.416654","413672.68536","414439.187762","415205.828675","415972.392294","416738.802871","402855.344833","403622.314707","407522.140425","408288.936543","409055.029599","409822.071201","410588.871338","411355.200603","412122.003214","412888.563741","415982.405517","Mapping"
"Blocked","m160","done","21","m160done.wav","None","724.907348223","126","406755.416654","413672.68536","414439.187762","415205.828675","415972.392294","416738.802871","417505.33279","403622.314707","407522.140425","408288.936543","409055.029599","409822.071201","410588.871338","411355.200603","412122.003214","412888.563741","416748.343986","Mapping"
"Blocked","m160","done","21","m160cave.wav","space","329.74042045","126","406755.416654","413672.68536","414439.187762","415205.828675","415972.392294","416738.802871","417505.33279","418271.644432","407522.140425","408288.936543","409055.029599","409822.071201","410588.871338","411355.200603","412122.003214","412888.563741","417514.675724","Mapping"
"Blocked","m160","ball","4","m160romp.wav","None","727.5730478","126","421405.211378","413672.68536","414439.187762","415205.828675","415972.392294","416738.802871","417505.33279","418271.644432","407522.140425","408288.936543","409055.029599","409822.071201","410588.871338","411355.200603","412122.003214","412888.563741","418280.76136","Mapping"
"Blocked","m160","ball","4","m160reek.wav","None","724.607449316","126","421405.211378","413672.68536","414439.187762","415205.828675","415972.392294","416738.802871","417505.33279","418271.644432","422171.995129","408288.936543","409055.029599","409822.071201","410588.871338","411355.200603","412122.003214","412888.563741","421414.68231","Mapping"
"Blocked","m160","ball","4","m160ball.wav","None","725.74490105","126","421405.211378","413672.68536","414439.187762","415205.828675","415972.392294","416738.802871","417505.33279","418271.644432","422171.995129","422938.705605","409055.029599","409822.071201","410588.871338","411355.200603","412122.003214","412888.563741","422181.593749","Mapping"
"Blocked","m160","ball","4","m160knife.wav","space","384.069121443","126","421405.211378","413672.68536","414439.187762","415205.828675","415972.392294","416738.802871","417505.33279","418271.644432","422171.995129","422938.705605","423705.242944","409822.071201","410588.871338","411355.200603","412122.003214","412888.563741","422948.238681","Mapping"
"Blocked","m160","ball","4","m160cad.wav","None","728.172536474","126","421405.211378","413672.68536","414439.187762","415205.828675","415972.392294","416738.802871","417505.33279","418271.644432","422171.995129","422938.705605","423705.242944","424471.909209","410588.871338","411355.200603","412122.003214","412888.563741","423714.56269","Mapping"
"Blocked","m160","ball","4","m160depth.wav","None","729.123865371","126","421405.211378","413672.68536","414439.187762","415205.828675","415972.392294","416738.802871","417505.33279","418271.644432","422171.995129","422938.705605","423705.242944","424471.909209","425238.643183","411355.200603","412122.003214","412888.563741","424481.784541","Mapping"
"Blocked","m160","ball","4","m160jolt.wav","None","731.145246013","126","421405.211378","413672.68536","414439.187762","415205.828675","415972.392294","416738.802871","417505.33279","418271.644432","422171.995129","422938.705605","423705.242944","424471.909209","425238.643183","426005.158571","412122.003214","412888.563741","425248.114424","Mapping"
"Blocked","m160","ball","4","m160ball.wav","None","733.201872499","126","421405.211378","413672.68536","414439.187762","415205.828675","415972.392294","416738.802871","417505.33279","418271.644432","422171.995129","422938.705605","423705.242944","424471.909209","425238.643183","426005.158571","426771.735175","412888.563741","426014.554992","Mapping"
"Blocked","m160","ball","4","m160priest.wav","space","335.015240707","126","421405.211378","413672.68536","414439.187762","415205.828675","415972.392294","416738.802871","417505.33279","418271.644432","422171.995129","422938.705605","423705.242944","424471.909209","425238.643183","426005.158571","426771.735175","427538.586017","426781.258357","Mapping"
"Blocked","m160","ball","4","m160jaw.wav","None","735.891687626","126","421405.211378","428321.937174","414439.187762","415205.828675","415972.392294","416738.802871","417505.33279","418271.644432","422171.995129","422938.705605","423705.242944","424471.909209","425238.643183","426005.158571","426771.735175","427538.586017","427547.873299","Mapping"
"Blocked","m160","ball","4","m160ball.wav","None","720.964450215","126","421405.211378","428321.937174","429088.874584","415205.828675","415972.392294","416738.802871","417505.33279","418271.644432","422171.995129","422938.705605","423705.242944","424471.909209","425238.643183","426005.158571","426771.735175","427538.586017","428331.06585","Mapping"
"Blocked","m160","ball","4","m160depth.wav","space","553.123385529","126","421405.211378","428321.937174","429088.874584","429854.989901","415972.392294","416738.802871","417505.33279","418271.644432","422171.995129","422938.705605","423705.242944","424471.909209","425238.643183","426005.158571","426771.735175","427538.586017","429099.136693","Mapping"
"Blocked","m160","ball","4","m160park.wav","None","724.689071241","126","421405.211378","428321.937174","429088.874584","429854.989901","430621.868568","416738.802871","417505.33279","418271.644432","422171.995129","422938.705605","423705.242944","424471.909209","425238.643183","426005.158571","426771.735175","427538.586017","429864.418167","Mapping"
"Blocked","m160","ball","4","m160ball.wav","None","726.235251233","126","421405.211378","428321.937174","429088.874584","429854.989901","430621.868568","431388.595122","417505.33279","418271.644432","422171.995129","422938.705605","423705.242944","424471.909209","425238.643183","426005.158571","426771.735175","427538.586017","430631.140701","Mapping"
"Blocked","m160","ball","4","m160lash.wav","space","302.134878468","126","421405.211378","428321.937174","429088.874584","429854.989901","430621.868568","431388.595122","432155.128133","418271.644432","422171.995129","422938.705605","423705.242944","424471.909209","425238.643183","426005.158571","426771.735175","427538.586017","431398.066054","Mapping"
"Blocked","m160","ball","4","m160lash.wav","None","728.679272928","126","421405.211378","428321.937174","429088.874584","429854.989901","430621.868568","431388.595122","432155.128133","432921.811402","422171.995129","422938.705605","423705.242944","424471.909209","425238.643183","426005.158571","426771.735175","427538.586017","432164.621634","Mapping"
"Blocked","m160","ball","2","m160romp.wav","None","729.759836628","126","436072.184745","428321.937174","429088.874584","429854.989901","430621.868568","431388.595122","432155.128133","432921.811402","422171.995129","422938.705605","423705.242944","424471.909209","425238.643183","426005.158571","426771.735175","427538.586017","432931.599547","Mapping"
"Blocked","m160","ball","2","m160ball.wav","None","723.330560024","126","436072.184745","428321.937174","429088.874584","429854.989901","430621.868568","431388.595122","432155.128133","432921.811402","436838.437335","422938.705605","423705.242944","424471.909209","425238.643183","426005.158571","426771.735175","427538.586017","436082.009063","Mapping"
"Blocked","m160","ball","2","m160cave.wav","space","420.24033342","126","436072.184745","428321.937174","429088.874584","429854.989901","430621.868568","431388.595122","432155.128133","432921.811402","436838.437335","437604.844203","423705.242944","424471.909209","425238.643183","426005.158571","426771.735175","427538.586017","436847.896209","Mapping"
"Blocked","m160","ball","2","m160greet.wav","None","727.309940616","126","436072.184745","428321.937174","429088.874584","429854.989901","430621.868568","431388.595122","432155.128133","432921.811402","436838.437335","437604.844203","438371.71143","424471.909209","425238.643183","426005.158571","426771.735175","427538.586017","437613.974115","Mapping"
"Blocked","m160","ball","2","m160cad.wav","None","728.364533628","126","436072.184745","428321.937174","429088.874584","429854.989901","430621.868568","431388.595122","432155.128133","432921.811402","436838.437335","437604.844203","438371.71143","439138.439839","425238.643183","426005.158571","426771.735175","427538.586017","438381.059929","Mapping"
"Blocked","m160","ball","2","m160ball.wav","None","730.14290334","126","436072.184745","428321.937174","429088.874584","429854.989901","430621.868568","431388.595122","432155.128133","432921.811402","436838.437335","437604.844203","438371.71143","439138.439839","439904.658729","426005.158571","426771.735175","427538.586017","439147.547182","Mapping"
"Blocked","m160","ball","2","m160tile.wav","space","434.221807111","126","436072.184745","428321.937174","429088.874584","429854.989901","430621.868568","431388.595122","432155.128133","432921.811402","436838.437335","437604.844203","438371.71143","439138.439839","439904.658729","440671.670032","426771.735175","427538.586017","439913.868718","Mapping"
"Blocked","m160","ball","2","m160cad.wav","None","732.338658243","126","436072.184745","428321.937174","429088.874584","429854.989901","430621.868568","431388.595122","432155.128133","432921.811402","436838.437335","437604.844203","438371.71143","439138.439839","439904.658729","440671.670032","441438.380509","427538.586017","440681.102008","Mapping"
"Blocked","m160","ball","2","m160lash.wav","None","734.21472701","126","436072.184745","428321.937174","429088.874584","429854.989901","430621.868568","431388.595122","432155.128133","432921.811402","436838.437335","437604.844203","438371.71143","439138.439839","439904.658729","440671.670032","441438.380509","442204.556423","441447.580913","Mapping"
"Blocked","m160","ball","2","m160done.wav","None","736.016284791","126","436072.184745","442988.770486","429088.874584","429854.989901","430621.868568","431388.595122","432155.128133","432921.811402","436838.437335","437604.844203","438371.71143","439138.439839","439904.658729","440671.670032","441438.380509","442204.556423","442213.982834","Mapping"
"Blocked","m160","ball","2","m160ball.wav","None","719.34994281","126","436072.184745","442988.770486","443755.231149","429854.989901","430621.868568","431388.595122","432155.128133","432921.811402","436838.437335","437604.844203","438371.71143","439138.439839","439904.658729","440671.670032","441438.380509","442204.556423","442998.938605","Mapping"
"Blocked","m160","ball","2","m160cling.wav","space","431.011342676","126","436072.184745","442988.770486","443755.231149","444521.402736","430621.868568","431388.595122","432155.128133","432921.811402","436838.437335","437604.844203","438371.71143","439138.439839","439904.658729","440671.670032","441438.380509","442204.556423","443765.025478","Mapping"
"Blocked","m160","ball","2","m160ball.wav","None","723.248010559","126","436072.184745","442988.770486","443755.231149","444521.402736","445288.062817","431388.595122","432155.128133","432921.811402","436838.437335","437604.844203","438371.71143","439138.439839","439904.658729","440671.670032","441438.380509","442204.556423","444530.707641","Mapping"
"Blocked","m160","ball","2","m160cad.wav","space","666.955126158","126","436072.184745","442988.770486","443755.231149","444521.402736","445288.062817","446054.479887","432155.128133","432921.811402","436838.437335","437604.844203","438371.71143","439138.439839","439904.658729","440671.670032","441438.380509","442204.556423","445297.029486","Mapping"
"Blocked","m160","ball","2","m160gnash.wav","None","726.167542103","126","436072.184745","442988.770486","443755.231149","444521.402736","445288.062817","446054.479887","446821.250962","432921.811402","436838.437335","437604.844203","438371.71143","439138.439839","439904.658729","440671.670032","441438.380509","442204.556423","446063.296607","Mapping"
"Blocked","m160","ball","2","m160dime.wav","None","727.86459903","126","436072.184745","442988.770486","443755.231149","444521.402736","445288.062817","446054.479887","446821.250962","447588.300603","436838.437335","437604.844203","438371.71143","439138.439839","439904.658729","440671.670032","441438.380509","442204.556423","446829.949268","Mapping"
"Blocked","m160","cave","9","m160reek.wav","None","728.610327118","126","450721.530857","442988.770486","443755.231149","444521.402736","445288.062817","446054.479887","446821.250962","447588.300603","436838.437335","437604.844203","438371.71143","439138.439839","439904.658729","440671.670032","441438.380509","442204.556423","447597.765969","Mapping"
"Blocked","m160","cave","9","m160cad.wav","None","725.191170117","126","450721.530857","442988.770486","443755.231149","444521.402736","445288.062817","446054.479887","446821.250962","447588.300603","451488.273797","437604.844203","438371.71143","439138.439839","439904.658729","440671.670032","441438.380509","442204.556423","450730.833598","Mapping"
"Blocked","m160","cave","9","m160bluff.wav","None","726.798875723","126","450721.530857","442988.770486","443755.231149","444521.402736","445288.062817","446054.479887","446821.250962","447588.300603","451488.273797","452255.064041","438371.71143","439138.439839","439904.658729","440671.670032","441438.380509","442204.556423","451497.413604","Mapping"
"Blocked","m160","cave","9","m160cave.wav","None","734.16927841","126","450721.530857","442988.770486","443755.231149","444521.402736","445288.062817","446054.479887","446821.250962","447588.300603","451488.273797","452255.064041","453021.389286","439138.439839","439904.658729","440671.670032","441438.380509","442204.556423","452258.327992","Mapping"
"Blocked","m160","cave","9","m160ball.wav","space","492.791759141","126","450721.530857","442988.770486","443755.231149","444521.402736","445288.062817","446054.479887","446821.250962","447588.300603","451488.273797","452255.064041","453021.389286","453788.196225","439904.658729","440671.670032","441438.380509","442204.556423","453031.115596","Mapping"
"Blocked","m160","cave","9","m160cave.wav","None","730.328717036","126","450721.530857","442988.770486","443755.231149","444521.402736","445288.062817","446054.479887","446821.250962","447588.300603","451488.273797","452255.064041","453021.389286","453788.196225","454554.329165","440671.670032","441438.380509","442204.556423","453797.517826","Mapping"
"Blocked","m160","cave","9","m160ball.wav","space","608.412381436","126","450721.530857","442988.770486","443755.231149","444521.402736","445288.062817","446054.479887","446821.250962","447588.300603","451488.273797","452255.064041","453021.389286","453788.196225","454554.329165","455321.426109","441438.380509","442204.556423","454563.474536","Mapping"
"Blocked","m160","cave","9","m160cave.wav","None","733.502698946","126","450721.530857","442988.770486","443755.231149","444521.402736","445288.062817","446054.479887","446821.250962","447588.300603","451488.273797","452255.064041","453021.389286","453788.196225","454554.329165","455321.426109","456087.962212","442204.556423","455330.76657","Mapping"
"Blocked","m160","cave","9","m160reek.wav","space","371.08164269","126","450721.530857","442988.770486","443755.231149","444521.402736","445288.062817","446054.479887","446821.250962","447588.300603","451488.273797","452255.064041","453021.389286","453788.196225","454554.329165","455321.426109","456087.962212","456854.783063","456096.774293","Mapping"
"Blocked","m160","cave","9","m160cling.wav","None","735.760288604","126","450721.530857","457638.611276","443755.231149","444521.402736","445288.062817","446054.479887","446821.250962","447588.300603","451488.273797","452255.064041","453021.389286","453788.196225","454554.329165","455321.426109","456087.962212","456854.783063","456864.22957","Mapping"
"Blocked","m160","cave","9","m160cad.wav","None","719.723734364","126","450721.530857","457638.611276","458405.042878","444521.402736","445288.062817","446054.479887","446821.250962","447588.300603","451488.273797","452255.064041","453021.389286","453788.196225","454554.329165","455321.426109","456087.962212","456854.783063","457648.511651","Mapping"
"Blocked","m160","cave","9","m160cave.wav","None","722.341511922","126","450721.530857","457638.611276","458405.042878","459171.440161","445288.062817","446054.479887","446821.250962","447588.300603","451488.273797","452255.064041","453021.389286","453788.196225","454554.329165","455321.426109","456087.962212","456854.783063","458414.7494","Mapping"
"Blocked","m160","cave","9","m160ball.wav","space","455.211331369","126","450721.530857","457638.611276","458405.042878","459171.440161","459938.166715","446054.479887","446821.250962","447588.300603","451488.273797","452255.064041","453021.389286","453788.196225","454554.329165","455321.426109","456087.962212","456854.783063","459180.592334","Mapping"
"Blocked","m160","cave","9","m160romp.wav","None","724.919096858","126","450721.530857","457638.611276","458405.042878","459171.440161","459938.166715","460704.309857","446821.250962","447588.300603","451488.273797","452255.064041","453021.389286","453788.196225","454554.329165","455321.426109","456087.962212","456854.783063","459947.692989","Mapping"
"Blocked","m160","cave","9","m160lash.wav","None","727.62004222","126","450721.530857","457638.611276","458405.042878","459171.440161","459938.166715","460704.309857","461471.766062","447588.300603","451488.273797","452255.064041","453021.389286","453788.196225","454554.329165","455321.426109","456087.962212","456854.783063","460713.386901","Mapping"
"Blocked","m160","cave","9","m160priest.wav","None","728.225714469","126","450721.530857","457638.611276","458405.042878","459171.440161","459938.166715","460704.309857","461471.766062","462237.675468","451488.273797","452255.064041","453021.389286","453788.196225","454554.329165","455321.426109","456087.962212","456854.783063","461481.130638","Mapping"
"Blocked","m160","cave","7","m160tile.wav","None","731.599731953","126","465370.953026","457638.611276","458405.042878","459171.440161","459938.166715","460704.309857","461471.766062","462237.675468","451488.273797","452255.064041","453021.389286","453788.196225","454554.329165","455321.426109","456087.962212","456854.783063","462246.345639","Mapping"
"Blocked","m160","cave","7","m160depth.wav","None","728.070818179","126","465370.953026","457638.611276","458405.042878","459171.440161","459938.166715","460704.309857","461471.766062","462237.675468","466137.997411","452255.064041","453021.389286","453788.196225","454554.329165","455321.426109","456087.962212","456854.783063","465379.697399","Mapping"
"Blocked","m160","cave","7","m160bluff.wav","None","728.972988378","126","465370.953026","457638.611276","458405.042878","459171.440161","459938.166715","460704.309857","461471.766062","462237.675468","466137.997411","466904.499813","453021.389286","453788.196225","454554.329165","455321.426109","456087.962212","456854.783063","466147.132889","Mapping"
"Blocked","m160","cave","7","m160knife.wav","None","730.931297527","126","465370.953026","457638.611276","458405.042878","459171.440161","459938.166715","460704.309857","461471.766062","462237.675468","466137.997411","466904.499813","467671.298096","453788.196225","454554.329165","455321.426109","456087.962212","456854.783063","466913.694034","Mapping"
"Blocked","m160","cave","7","m160cave.wav","None","731.935804302","126","465370.953026","457638.611276","458405.042878","459171.440161","459938.166715","460704.309857","461471.766062","462237.675468","466137.997411","466904.499813","467671.298096","468437.962196","454554.329165","455321.426109","456087.962212","456854.783063","467680.995652","Mapping"
"Blocked","m160","cave","7","m160dime.wav","space","452.478231862","126","465370.953026","457638.611276","458405.042878","459171.440161","459938.166715","460704.309857","461471.766062","462237.675468","466137.997411","466904.499813","467671.298096","468437.962196","469204.224989","455321.426109","456087.962212","456854.783063","468447.202793","Mapping"
"Blocked","m160","cave","7","m160done.wav","None","735.29559985","126","465370.953026","457638.611276","458405.042878","459171.440161","459938.166715","460704.309857","461471.766062","462237.675468","466137.997411","466904.499813","467671.298096","468437.962196","469204.224989","469988.39453","456087.962212","456854.783063","469213.652018","Mapping"
"Blocked","m160","cave","7","m160greet.wav","None","719.324590522","126","465370.953026","457638.611276","458405.042878","459171.440161","459938.166715","460704.309857","461471.766062","462237.675468","466137.997411","466904.499813","467671.298096","468437.962196","469204.224989","469988.39453","470754.528706","456854.783063","469998.100743","Mapping"
"Blocked","m160","cave","7","m160ball.wav","None","722.320797213","126","465370.953026","457638.611276","458405.042878","459171.440161","459938.166715","460704.309857","461471.766062","462237.675468","466137.997411","466904.499813","467671.298096","468437.962196","469204.224989","469988.39453","470754.528706","471521.719948","470763.495993","Mapping"
"Blocked","m160","cave","7","m160cave.wav","None","722.977483121","126","465370.953026","472287.624408","458405.042878","459171.440161","459938.166715","460704.309857","461471.766062","462237.675468","466137.997411","466904.499813","467671.298096","468437.962196","469204.224989","469988.39453","470754.528706","471521.719948","471531.507474","Mapping"
"Blocked","m160","cave","7","m160bluff.wav","space","683.217995916","126","465370.953026","472287.624408","473054.447424","459171.440161","459938.166715","460704.309857","461471.766062","462237.675468","466137.997411","466904.499813","467671.298096","468437.962196","469204.224989","469988.39453","470754.528706","471521.719948","472296.383312","Mapping"
"Blocked","m160","cave","7","m160cave.wav","None","726.052529295","126","465370.953026","472287.624408","473054.447424","473820.84718","459938.166715","460704.309857","461471.766062","462237.675468","466137.997411","466904.499813","467671.298096","468437.962196","469204.224989","469988.39453","470754.528706","471521.719948","473063.963186","Mapping"
"Blocked","m160","cave","7","m160ball.wav","None","728.716373851","126","465370.953026","472287.624408","473054.447424","473820.84718","474587.559821","460704.309857","461471.766062","462237.675468","466137.997411","466904.499813","467671.298096","468437.962196","469204.224989","469988.39453","470754.528706","471521.719948","473829.811376","Mapping"
"Blocked","m160","cave","7","m160reek.wav","space","95.1390711707","126","465370.953026","472287.624408","473054.447424","473820.84718","474587.559821","475354.410354","461471.766062","462237.675468","466137.997411","466904.499813","467671.298096","468437.962196","469204.224989","469988.39453","470754.528706","471521.719948","474596.426627","Mapping"
"Blocked","m160","cave","7","m160cave.wav","None","731.003025896","126","465370.953026","472287.624408","473054.447424","473820.84718","474587.559821","475354.410354","476120.957587","462237.675468","466137.997411","466904.499813","467671.298096","468437.962196","469204.224989","469988.39453","470754.528706","471521.719948","475363.600246","Mapping"
"Blocked","m160","cave","7","m160ball.wav","space","601.720306848","126","465370.953026","472287.624408","473054.447424","473820.84718","474587.559821","475354.410354","476120.957587","476887.867481","466137.997411","466904.499813","467671.298096","468437.962196","469204.224989","469988.39453","470754.528706","471521.719948","476129.859947","Mapping"
"Blocked","m160","cave","10","m160tile.wav","None","733.781574061","126","480021.491005","472287.624408","473054.447424","473820.84718","474587.559821","475354.410354","476120.957587","476887.867481","466137.997411","466904.499813","467671.298096","468437.962196","469204.224989","469988.39453","470754.528706","471521.719948","476897.108696","Mapping"
"Blocked","m160","cave","10","m160cave.wav","None","722.762607096","126","480021.491005","472287.624408","473054.447424","473820.84718","474587.559821","475354.410354","476120.957587","476887.867481","480787.764309","466904.499813","467671.298096","468437.962196","469204.224989","469988.39453","470754.528706","471521.719948","480031.808765","Mapping"
"Blocked","m160","cave","10","m160romp.wav","space","422.247801209","126","480021.491005","472287.624408","473054.447424","473820.84718","474587.559821","475354.410354","476120.957587","476887.867481","480787.764309","481554.103468","467671.298096","468437.962196","469204.224989","469988.39453","470754.528706","471521.719948","480797.186392","Mapping"
"Blocked","m160","cave","10","m160gnash.wav","None","726.927492185","126","480021.491005","472287.624408","473054.447424","473820.84718","474587.559821","475354.410354","476120.957587","476887.867481","480787.764309","481554.103468","482320.814872","468437.962196","469204.224989","469988.39453","470754.528706","471521.719948","481563.171236","Mapping"
"Blocked","m160","cave","10","m160park.wav","None","728.759658232","126","480021.491005","472287.624408","473054.447424","473820.84718","474587.559821","475354.410354","476120.957587","476887.867481","480787.764309","481554.103468","482320.814872","483087.389312","469204.224989","469988.39453","470754.528706","471521.719948","482329.922833","Mapping"
"Blocked","m160","cave","10","m160knife.wav","None","731.652291608","126","480021.491005","472287.624408","473054.447424","473820.84718","474587.559821","475354.410354","476120.957587","476887.867481","480787.764309","481554.103468","482320.814872","483087.389312","483853.947984","469988.39453","470754.528706","471521.719948","483096.150689","Mapping"
"Blocked","m160","cave","10","m160park.wav","None","733.219804591","126","480021.491005","472287.624408","473054.447424","473820.84718","474587.559821","475354.410354","476120.957587","476887.867481","480787.764309","481554.103468","482320.814872","483087.389312","483853.947984","484621.048948","470754.528706","471521.719948","483863.179615","Mapping"
"Blocked","m160","cave","10","m160cave.wav","None","734.79813867","126","480021.491005","472287.624408","473054.447424","473820.84718","474587.559821","475354.410354","476120.957587","476887.867481","480787.764309","481554.103468","482320.814872","483087.389312","483853.947984","484621.048948","485404.414945","471521.719948","484630.206686","Mapping"
"Blocked","m160","cave","10","m160reek.wav","space","469.900813827","126","480021.491005","472287.624408","473054.447424","473820.84718","474587.559821","475354.410354","476120.957587","476887.867481","480787.764309","481554.103468","482320.814872","483087.389312","483853.947984","484621.048948","485404.414945","486170.818103","485413.531873","Mapping"
"Blocked","m160","cave","10","m160romp.wav","None","721.273006056","126","480021.491005","486938.122194","473054.447424","473820.84718","474587.559821","475354.410354","476120.957587","476887.867481","480787.764309","481554.103468","482320.814872","483087.389312","483853.947984","484621.048948","485404.414945","486170.818103","486179.982334","Mapping"
"Blocked","m160","cave","10","m160lash.wav","None","722.221243195","126","480021.491005","486938.122194","487703.903602","473820.84718","474587.559821","475354.410354","476120.957587","476887.867481","480787.764309","481554.103468","482320.814872","483087.389312","483853.947984","484621.048948","485404.414945","486170.818103","486947.884677","Mapping"
"Blocked","m160","cave","10","m160park.wav","None","725.828687253","126","480021.491005","486938.122194","487703.903602","488470.959117","474587.559821","475354.410354","476120.957587","476887.867481","480787.764309","481554.103468","482320.814872","483087.389312","483853.947984","484621.048948","485404.414945","486170.818103","487713.111427","Mapping"
"Blocked","m160","cave","10","m160cave.wav","None","727.173285675","126","480021.491005","486938.122194","487703.903602","488470.959117","489237.702366","475354.410354","476120.957587","476887.867481","480787.764309","481554.103468","482320.814872","483087.389312","483853.947984","484621.048948","485404.414945","486170.818103","488480.230013","Mapping"
"Blocked","m160","cave","10","m160bluff.wav","space","668.629922555","126","480021.491005","486938.122194","487703.903602","488470.959117","489237.702366","490003.939806","476120.957587","476887.867481","480787.764309","481554.103468","482320.814872","483087.389312","483853.947984","484621.048948","485404.414945","486170.818103","489246.739836","Mapping"
"Blocked","m160","cave","10","m160cave.wav","None","730.214631767","126","480021.491005","486938.122194","487703.903602","488470.959117","489237.702366","490003.939806","490770.942762","476887.867481","480787.764309","481554.103468","482320.814872","483087.389312","483853.947984","484621.048948","485404.414945","486170.818103","490013.044985","Mapping"
"Blocked","m160","cave","10","m160ball.wav","space","495.104691014","126","480021.491005","486938.122194","487703.903602","488470.959117","489237.702366","490003.939806","490770.942762","491537.63407","480787.764309","481554.103468","482320.814872","483087.389312","483853.947984","484621.048948","485404.414945","486170.818103","490780.256324","Mapping"
"Blocked","m160","tile","18","m160reek.wav","None","732.476859062","126","494671.223275","486938.122194","487703.903602","488470.959117","489237.702366","490003.939806","490770.942762","491537.63407","480787.764309","481554.103468","482320.814872","483087.389312","483853.947984","484621.048948","485404.414945","486170.818103","491546.591154","Mapping"
"Blocked","m160","tile","18","m160greet.wav","None","721.100486873","126","494671.223275","486938.122194","487703.903602","488470.959117","489237.702366","490003.939806","490770.942762","491537.63407","495437.575728","481554.103468","482320.814872","483087.389312","483853.947984","484621.048948","485404.414945","486170.818103","494683.360525","Mapping"
"Blocked","m160","tile","18","m160gnash.wav","None","726.517527248","126","494671.223275","486938.122194","487703.903602","488470.959117","489237.702366","490003.939806","490770.942762","491537.63407","495437.575728","496204.060817","482320.814872","483087.389312","483853.947984","484621.048948","485404.414945","486170.818103","495446.563112","Mapping"
"Blocked","m160","tile","18","m160tile.wav","None","729.146435042","126","494671.223275","486938.122194","487703.903602","488470.959117","489237.702366","490003.939806","490770.942762","491537.63407","495437.575728","496204.060817","496970.513752","483087.389312","483853.947984","484621.048948","485404.414945","486170.818103","496213.16816","Mapping"
"Blocked","m160","tile","18","m160park.wav","space","671.879961272","126","494671.223275","486938.122194","487703.903602","488470.959117","489237.702366","490003.939806","490770.942762","491537.63407","495437.575728","496204.060817","496970.513752","497737.533093","483853.947984","484621.048948","485404.414945","486170.818103","496979.352422","Mapping"
"Blocked","m160","tile","18","m160tile.wav","None","734.889963409","126","494671.223275","486938.122194","487703.903602","488470.959117","489237.702366","490003.939806","490770.942762","491537.63407","495437.575728","496204.060817","496970.513752","497737.533093","498521.430252","484621.048948","485404.414945","486170.818103","497746.510274","Mapping"
"Blocked","m160","tile","18","m160knife.wav","None","718.976460397","126","494671.223275","486938.122194","487703.903602","488470.959117","489237.702366","490003.939806","490770.942762","491537.63407","495437.575728","496204.060817","496970.513752","497737.533093","498521.430252","499287.894935","485404.414945","486170.818103","498531.140176","Mapping"
"Blocked","m160","tile","18","m160bluff.wav","space","209.192489681","126","494671.223275","486938.122194","487703.903602","488470.959117","489237.702366","490003.939806","490770.942762","491537.63407","495437.575728","496204.060817","496970.513752","497737.533093","498521.430252","499287.894935","500054.435984","486170.818103","499298.029664","Mapping"
"Blocked","m160","tile","18","m160tile.wav","None","721.990908438","126","494671.223275","486938.122194","487703.903602","488470.959117","489237.702366","490003.939806","490770.942762","491537.63407","495437.575728","496204.060817","496970.513752","497737.533093","498521.430252","499287.894935","500054.435984","500820.812862","500064.105715","Mapping"
"Blocked","m160","tile","18","m160lash.wav","space","420.568985573","126","494671.223275","501587.340617","487703.903602","488470.959117","489237.702366","490003.939806","490770.942762","491537.63407","495437.575728","496204.060817","496970.513752","497737.533093","498521.430252","499287.894935","500054.435984","500820.812862","500830.627596","Mapping"
"Blocked","m160","tile","18","m160tile.wav","None","726.414572215","126","494671.223275","501587.340617","502353.866517","488470.959117","489237.702366","490003.939806","490770.942762","491537.63407","495437.575728","496204.060817","496970.513752","497737.533093","498521.430252","499287.894935","500054.435984","500820.812862","501595.981725","Mapping"
"Blocked","m160","tile","18","m160knife.wav","space","576.189632586","126","494671.223275","501587.340617","502353.866517","503120.742401","489237.702366","490003.939806","490770.942762","491537.63407","495437.575728","496204.060817","496970.513752","497737.533093","498521.430252","499287.894935","500054.435984","500820.812862","502362.96242","Mapping"
"Blocked","m160","tile","18","m160jolt.wav","None","728.196652082","126","494671.223275","501587.340617","502353.866517","503120.742401","503887.502655","490003.939806","490770.942762","491537.63407","495437.575728","496204.060817","496970.513752","497737.533093","498521.430252","499287.894935","500054.435984","500820.812862","503130.138204","Mapping"
"Blocked","m160","tile","18","m160lash.wav","None","730.243385013","126","494671.223275","501587.340617","502353.866517","503120.742401","503887.502655","504653.991763","490770.942762","491537.63407","495437.575728","496204.060817","496970.513752","497737.533093","498521.430252","499287.894935","500054.435984","500820.812862","503897.071286","Mapping"
"Blocked","m160","tile","18","m160greet.wav","None","732.604238845","126","494671.223275","501587.340617","502353.866517","503120.742401","503887.502655","504653.991763","505420.527865","491537.63407","495437.575728","496204.060817","496970.513752","497737.533093","498521.430252","499287.894935","500054.435984","500820.812862","504663.406734","Mapping"
"Blocked","m160","tile","18","m160cad.wav","None","735.293126432","126","494671.223275","501587.340617","502353.866517","503120.742401","503887.502655","504653.991763","505420.527865","506204.333199","495437.575728","496204.060817","496970.513752","497737.533093","498521.430252","499287.894935","500054.435984","500820.812862","505430.026005","Mapping"
"Blocked","m160","done","23","m160jolt.wav","None","720.291996433","126","509337.948994","501587.340617","502353.866517","503120.742401","503887.502655","504653.991763","505420.527865","506204.333199","495437.575728","496204.060817","496970.513752","497737.533093","498521.430252","499287.894935","500054.435984","500820.812862","506213.929656","Mapping"
"Blocked","m160","done","23","m160done.wav","None","722.677893413","126","509337.948994","501587.340617","502353.866517","503120.742401","503887.502655","504653.991763","505420.527865","506204.333199","510103.871695","496204.060817","496970.513752","497737.533093","498521.430252","499287.894935","500054.435984","500820.812862","509348.194098","Mapping"
"Blocked","m160","done","23","m160knife.wav","space","586.133910168","126","509337.948994","501587.340617","502353.866517","503120.742401","503887.502655","504653.991763","505420.527865","506204.333199","510103.871695","510870.631021","496970.513752","497737.533093","498521.430252","499287.894935","500054.435984","500820.812862","510112.915967","Mapping"
"Blocked","m160","done","23","m160done.wav","None","726.231231994","126","509337.948994","501587.340617","502353.866517","503120.742401","503887.502655","504653.991763","505420.527865","506204.333199","510103.871695","510870.631021","511637.300996","497737.533093","498521.430252","499287.894935","500054.435984","500820.812862","510880.415765","Mapping"
"Blocked","m160","done","23","m160ball.wav","space","388.385501865","126","509337.948994","501587.340617","502353.866517","503120.742401","503887.502655","504653.991763","505420.527865","506204.333199","510103.871695","510870.631021","511637.300996","512403.736308","498521.430252","499287.894935","500054.435984","500820.812862","511646.647022","Mapping"
"Blocked","m160","done","23","m160romp.wav","None","729.053064482","126","509337.948994","501587.340617","502353.866517","503120.742401","503887.502655","504653.991763","505420.527865","506204.333199","510103.871695","510870.631021","511637.300996","512403.736308","513170.511711","499287.894935","500054.435984","500820.812862","512413.538365","Mapping"
"Blocked","m160","done","23","m160reek.wav","None","731.738551229","126","509337.948994","501587.340617","502353.866517","503120.742401","503887.502655","504653.991763","505420.527865","506204.333199","510103.871695","510870.631021","511637.300996","512403.736308","513170.511711","513936.967428","500054.435984","500820.812862","513179.898548","Mapping"
"Blocked","m160","done","23","m160jaw.wav","None","733.686966763","126","509337.948994","501587.340617","502353.866517","503120.742401","503887.502655","504653.991763","505420.527865","506204.333199","510103.871695","510870.631021","511637.300996","512403.736308","513170.511711","513936.967428","514703.448188","500820.812862","513946.533895","Mapping"
"Blocked","m160","done","23","m160depth.wav","None","735.972382128","126","509337.948994","501587.340617","502353.866517","503120.742401","503887.502655","504653.991763","505420.527865","506204.333199","510103.871695","510870.631021","511637.300996","512403.736308","513170.511711","513936.967428","514703.448188","515487.818384","514712.969825","Mapping"
"Blocked","m160","done","23","m160dime.wav","None","720.469462394","126","509337.948994","516254.182276","502353.866517","503120.742401","503887.502655","504653.991763","505420.527865","506204.333199","510103.871695","510870.631021","511637.300996","512403.736308","513170.511711","513936.967428","514703.448188","515487.818384","515497.886949","Mapping"
"Blocked","m160","done","23","m160done.wav","None","728.606926161","126","509337.948994","516254.182276","517020.421571","503120.742401","503887.502655","504653.991763","505420.527865","506204.333199","510103.871695","510870.631021","511637.300996","512403.736308","513170.511711","513936.967428","514703.448188","515487.818384","516258.527101","Mapping"
"Blocked","m160","done","23","m160dime.wav","space","461.076055944","126","509337.948994","516254.182276","517020.421571","517786.880999","503887.502655","504653.991763","505420.527865","506204.333199","510103.871695","510870.631021","511637.300996","512403.736308","513170.511711","513936.967428","514703.448188","515487.818384","517029.851692","Mapping"
"Blocked","m160","done","23","m160done.wav","None","727.405475394","126","509337.948994","516254.182276","517020.421571","517786.880999","518553.481718","504653.991763","505420.527865","506204.333199","510103.871695","510870.631021","511637.300996","512403.736308","513170.511711","513936.967428","514703.448188","515487.818384","517795.746258","Mapping"
"Blocked","m160","done","23","m160greet.wav","space","440.332943457","126","509337.948994","516254.182276","517020.421571","517786.880999","518553.481718","519320.529195","505420.527865","506204.333199","510103.871695","510870.631021","511637.300996","512403.736308","513170.511711","513936.967428","514703.448188","515487.818384","518562.587206","Mapping"
"Blocked","m160","done","23","m160reek.wav","None","729.500439484","126","509337.948994","516254.182276","517020.421571","517786.880999","518553.481718","519320.529195","520087.206899","506204.333199","510103.871695","510870.631021","511637.300996","512403.736308","513170.511711","513936.967428","514703.448188","515487.818384","519329.90521","Mapping"
"Blocked","m160","done","23","m160gnash.wav","None","731.690320012","126","509337.948994","516254.182276","517020.421571","517786.880999","518553.481718","519320.529195","520087.206899","520853.754441","510103.871695","510870.631021","511637.300996","512403.736308","513170.511711","513936.967428","514703.448188","515487.818384","520096.390917","Mapping"
"Blocked","m160","tile","17","m160gnash.wav","None","733.872471261","126","523987.605826","516254.182276","517020.421571","517786.880999","518553.481718","519320.529195","520087.206899","520853.754441","510103.871695","510870.631021","511637.300996","512403.736308","513170.511711","513936.967428","514703.448188","515487.818384","520863.115925","Mapping"
"Blocked","m160","tile","17","m160bluff.wav","None","723.633241549","126","523987.605826","516254.182276","517020.421571","517786.880999","518553.481718","519320.529195","520087.206899","520853.754441","524753.607676","510870.631021","511637.300996","512403.736308","513170.511711","513936.967428","514703.448188","515487.818384","523997.259789","Mapping"
"Blocked","m160","tile","17","m160romp.wav","None","726.428794209","126","523987.605826","516254.182276","517020.421571","517786.880999","518553.481718","519320.529195","520087.206899","520853.754441","524753.607676","525520.440586","511637.300996","512403.736308","513170.511711","513936.967428","514703.448188","515487.818384","524763.413134","Mapping"
"Blocked","m160","tile","17","m160dime.wav","None","729.271959804","126","523987.605826","516254.182276","517020.421571","517786.880999","518553.481718","519320.529195","520087.206899","520853.754441","524753.607676","525520.440586","526287.08459","512403.736308","513170.511711","513936.967428","514703.448188","515487.818384","525529.987574","Mapping"
"Blocked","m160","tile","17","m160tile.wav","None","731.925601605","126","523987.605826","516254.182276","517020.421571","517786.880999","518553.481718","519320.529195","520087.206899","520853.754441","524753.607676","525520.440586","526287.08459","527053.662122","513170.511711","513936.967428","514703.448188","515487.818384","526296.338791","Mapping"
"Blocked","m160","tile","17","m160park.wav","space","435.648336657","126","523987.605826","516254.182276","517020.421571","517786.880999","518553.481718","519320.529195","520087.206899","520853.754441","524753.607676","525520.440586","526287.08459","527053.662122","527820.014884","513936.967428","514703.448188","515487.818384","527063.083276","Mapping"
"Blocked","m160","tile","17","m160tile.wav","None","735.314459482","126","523987.605826","516254.182276","517020.421571","517786.880999","518553.481718","519320.529195","520087.206899","520853.754441","524753.607676","525520.440586","526287.08459","527053.662122","527820.014884","528603.571333","514703.448188","515487.818384","527829.329683","Mapping"
"Blocked","m160","tile","17","m160dime.wav","space","462.083654478","126","523987.605826","516254.182276","517020.421571","517786.880999","518553.481718","519320.529195","520087.206899","520853.754441","524753.607676","525520.440586","526287.08459","527053.662122","527820.014884","528603.571333","529370.338697","515487.818384","528612.645903","Mapping"
"Blocked","m160","tile","17","m160tile.wav","None","723.145055526","126","523987.605826","516254.182276","517020.421571","517786.880999","518553.481718","519320.529195","520087.206899","520853.754441","524753.607676","525520.440586","526287.08459","527053.662122","527820.014884","528603.571333","529370.338697","530136.782357","529379.499527","Mapping"
"Blocked","m160","tile","17","m160depth.wav","None","725.987911923","126","523987.605826","530903.503345","517020.421571","517786.880999","518553.481718","519320.529195","520087.206899","520853.754441","524753.607676","525520.440586","526287.08459","527053.662122","527820.014884","528603.571333","529370.338697","530136.782357","530145.625974","Mapping"
"Blocked","m160","tile","17","m160dime.wav","space","121.747835714","126","523987.605826","530903.503345","531670.513412","517786.880999","518553.481718","519320.529195","520087.206899","520853.754441","524753.607676","525520.440586","526287.08459","527053.662122","527820.014884","528603.571333","529370.338697","530136.782357","530912.999938","Mapping"
"Blocked","m160","tile","17","m160priest.wav","None","728.096170526","126","523987.605826","530903.503345","531670.513412","532437.127426","518553.481718","519320.529195","520087.206899","520853.754441","524753.607676","525520.440586","526287.08459","527053.662122","527820.014884","528603.571333","529370.338697","530136.782357","531679.672696","Mapping"
"Blocked","m160","tile","17","m160jolt.wav","None","729.985842947","126","523987.605826","530903.503345","531670.513412","532437.127426","533203.461019","519320.529195","520087.206899","520853.754441","524753.607676","525520.440586","526287.08459","527053.662122","527820.014884","528603.571333","529370.338697","530136.782357","532446.640096","Mapping"
"Blocked","m160","tile","17","m160tile.wav","None","732.578268216","126","523987.605826","530903.503345","531670.513412","532437.127426","533203.461019","533970.22993","520087.206899","520853.754441","524753.607676","525520.440586","526287.08459","527053.662122","527820.014884","528603.571333","529370.338697","530136.782357","533212.97369","Mapping"
"Blocked","m160","tile","17","m160ball.wav","space","655.092113768","126","523987.605826","530903.503345","531670.513412","532437.127426","533203.461019","533970.22993","534736.947827","520853.754441","524753.607676","525520.440586","526287.08459","527053.662122","527820.014884","528603.571333","529370.338697","530136.782357","533979.609346","Mapping"
"Blocked","m160","tile","17","m160greet.wav","None","736.132225138","126","523987.605826","530903.503345","531670.513412","532437.127426","533203.461019","533970.22993","534736.947827","535520.604448","524753.607676","525520.440586","526287.08459","527053.662122","527820.014884","528603.571333","529370.338697","530136.782357","534745.92037","Mapping"
"Blocked","m160","ball","1","m160tile.wav","None","719.75990769","126","538653.577779","530903.503345","531670.513412","532437.127426","533203.461019","533970.22993","534736.947827","535520.604448","524753.607676","525520.440586","526287.08459","527053.662122","527820.014884","528603.571333","529370.338697","530136.782357","535531.080814","Mapping"
"Blocked","m160","ball","1","m160romp.wav","None","724.426582456","126","538653.577779","530903.503345","531670.513412","532437.127426","533203.461019","533970.22993","534736.947827","535520.604448","539420.232295","525520.440586","526287.08459","527053.662122","527820.014884","528603.571333","529370.338697","530136.782357","538663.160323","Mapping"
"Blocked","m160","ball","1","m160park.wav","None","726.752190443","126","538653.577779","530903.503345","531670.513412","532437.127426","533203.461019","533970.22993","534736.947827","535520.604448","539420.232295","540186.657713","526287.08459","527053.662122","527820.014884","528603.571333","529370.338697","530136.782357","539429.606455","Mapping"
"Blocked","m160","ball","1","m160ball.wav","None","729.884433793","126","538653.577779","530903.503345","531670.513412","532437.127426","533203.461019","533970.22993","534736.947827","535520.604448","539420.232295","540186.657713","540953.807217","527053.662122","527820.014884","528603.571333","529370.338697","530136.782357","540195.524519","Mapping"
"Blocked","m160","ball","1","m160jolt.wav","space","495.266079903","126","538653.577779","530903.503345","531670.513412","532437.127426","533203.461019","533970.22993","534736.947827","535520.604448","539420.232295","540186.657713","540953.807217","541719.889452","527820.014884","528603.571333","529370.338697","530136.782357","540963.335655","Mapping"
"Blocked","m160","ball","1","m160ball.wav","None","732.756661717","126","538653.577779","530903.503345","531670.513412","532437.127426","533203.461019","533970.22993","534736.947827","535520.604448","539420.232295","540186.657713","540953.807217","541719.889452","542486.448433","528603.571333","529370.338697","530136.782357","541728.987829","Mapping"
"Blocked","m160","ball","1","m160bluff.wav","space","595.373579767","126","538653.577779","530903.503345","531670.513412","532437.127426","533203.461019","533970.22993","534736.947827","535520.604448","539420.232295","540186.657713","540953.807217","541719.889452","542486.448433","543253.139123","529370.338697","530136.782357","542495.18755","Mapping"
"Blocked","m160","ball","1","m160dime.wav","None","734.995700943","126","538653.577779","530903.503345","531670.513412","532437.127426","533203.461019","533970.22993","534736.947827","535520.604448","539420.232295","540186.657713","540953.807217","541719.889452","542486.448433","543253.139123","544036.854487","530136.782357","543262.754748","Mapping"
"Blocked","m160","ball","1","m160dime.wav","None","721.582489379","126","538653.577779","530903.503345","531670.513412","532437.127426","533203.461019","533970.22993","534736.947827","535520.604448","539420.232295","540186.657713","540953.807217","541719.889452","542486.448433","543253.139123","544036.854487","544803.675339","544045.792093","Mapping"
"Blocked","m160","ball","1","m160gnash.wav","None","722.982429957","126","538653.577779","545570.097974","531670.513412","532437.127426","533203.461019","533970.22993","534736.947827","535520.604448","539420.232295","540186.657713","540953.807217","541719.889452","542486.448433","543253.139123","544036.854487","544803.675339","544813.497492","Mapping"
"Blocked","m160","ball","1","m160ball.wav","None","725.730369799","126","538653.577779","545570.097974","546336.845243","532437.127426","533203.461019","533970.22993","534736.947827","535520.604448","539420.232295","540186.657713","540953.807217","541719.889452","542486.448433","543253.139123","544036.854487","544803.675339","545579.438744","Mapping"
"Blocked","m160","ball","1","m160cling.wav","space","624.094622151","126","538653.577779","545570.097974","546336.845243","547103.351664","533203.461019","533970.22993","534736.947827","535520.604448","539420.232295","540186.657713","540953.807217","541719.889452","542486.448433","543253.139123","544036.854487","544803.675339","546346.417274","Mapping"
