Condition,Talker,Target,Trial,current_stimulus,response_response,response_time_response,subject_nr,time_Audio1,time_Audio10,time_Audio11,time_Audio12,time_Audio13,time_Audio14,time_Audio15,time_Audio16,time_Audio2,time_Audio3,time_Audio4,time_Audio5,time_Audio6,time_Audio7,time_Audio8,time_Audio9,time_response,title
Blocked,m160,tile,16,m160priest.wav,NA,NA,202,110251.7019,NA,NA,NA,NA,NA,NA,NA,NA,NA,NA,NA,NA,NA,NA,NA,NA,Mapping
Blocked,m160,tile,16,m160ball.wav,None,717.2846063,202,110251.7019,NA,NA,NA,NA,NA,NA,NA,111018.4171,NA,NA,NA,NA,NA,NA,NA,110265.7532,Mapping
Blocked,m160,tile,16,m160tile.wav,None,720.2928611,202,110251.7019,NA,NA,NA,NA,NA,NA,NA,111018.4171,111767.3843,NA,NA,NA,NA,NA,NA,111027.6453,Mapping
Blocked,m160,tile,16,m160greet.wav,space,420.5658301,202,110251.7019,NA,NA,NA,NA,NA,NA,NA,111018.4171,111767.3843,112534.0253,NA,NA,NA,NA,NA,111776.7692,Mapping
Blocked,m160,tile,16,m160cad.wav,None,734.2276066,202,110251.7019,NA,NA,NA,NA,NA,NA,NA,111018.4171,111767.3843,112534.0253,113301.2989,NA,NA,NA,NA,112543.0739,Mapping
Blocked,m160,tile,16,m160reek.wav,None,731.6540489,202,110251.7019,NA,NA,NA,NA,NA,NA,NA,111018.4171,111767.3843,112534.0253,113301.2989,114067.6347,NA,NA,NA,113310.4223,Mapping
Blocked,m160,tile,16,m160tile.wav,None,730.2692621,202,110251.7019,NA,NA,NA,NA,NA,NA,NA,111018.4171,111767.3843,112534.0253,113301.2989,114067.6347,114834.3806,NA,NA,114076.9483,Mapping
Blocked,m160,tile,16,m160greet.wav,space,353.775762,202,110251.7019,NA,NA,NA,NA,NA,NA,NA,111018.4171,111767.3843,112534.0253,113301.2989,114067.6347,114834.3806,115601.1907,NA,114843.4863,Mapping
Blocked,m160,tile,16,m160cave.wav,None,726.5230105,202,110251.7019,NA,NA,NA,NA,NA,NA,NA,111018.4171,111767.3843,112534.0253,113301.2989,114067.6347,114834.3806,115601.1907,116367.3797,115610.3867,Mapping
Blocked,m160,tile,16,m160priest.wav,None,724.8819191,202,110251.7019,117134.107,NA,NA,NA,NA,NA,NA,111018.4171,111767.3843,112534.0253,113301.2989,114067.6347,114834.3806,115601.1907,116367.3797,116376.6997,Mapping
Blocked,m160,tile,16,m160ball.wav,None,723.055942,202,110251.7019,117134.107,117901.067,NA,NA,NA,NA,NA,111018.4171,111767.3843,112534.0253,113301.2989,114067.6347,114834.3806,115601.1907,116367.3797,117143.2999,Mapping
Blocked,m160,tile,16,m160tile.wav,None,721.0466256,202,110251.7019,117134.107,117901.067,118650.8087,NA,NA,NA,NA,111018.4171,111767.3843,112534.0253,113301.2989,114067.6347,114834.3806,115601.1907,116367.3797,117910.1255,Mapping
Blocked,m160,tile,16,m160done.wav,space,344.9374284,202,110251.7019,117134.107,117901.067,118650.8087,119417.5025,NA,NA,NA,111018.4171,111767.3843,112534.0253,113301.2989,114067.6347,114834.3806,115601.1907,116367.3797,118660.278,Mapping
Blocked,m160,tile,16,m160tile.wav,None,734.0080934,202,110251.7019,117134.107,117901.067,118650.8087,119417.5025,120183.8443,NA,NA,111018.4171,111767.3843,112534.0253,113301.2989,114067.6347,114834.3806,115601.1907,116367.3797,119426.7168,Mapping
Blocked,m160,tile,16,m160bluff.wav,space,443.1215608,202,110251.7019,117134.107,117901.067,118650.8087,119417.5025,120183.8443,120951.09,NA,111018.4171,111767.3843,112534.0253,113301.2989,114067.6347,114834.3806,115601.1907,116367.3797,120194.0906,Mapping
Blocked,m160,tile,16,m160lash.wav,None,730.341299,202,110251.7019,117134.107,117901.067,118650.8087,119417.5025,120183.8443,120951.09,121717.68,111018.4171,111767.3843,112534.0253,113301.2989,114067.6347,114834.3806,115601.1907,116367.3797,120960.1593,Mapping
Blocked,m160,done,24,m160bluff.wav,None,728.1752322,202,124884.4561,117134.107,117901.067,118650.8087,119417.5025,120183.8443,120951.09,121717.68,111018.4171,111767.3843,112534.0253,113301.2989,114067.6347,114834.3806,115601.1907,116367.3797,121727.2347,Mapping
Blocked,m160,done,24,m160depth.wav,None,721.4086675,202,124884.4561,117134.107,117901.067,118650.8087,119417.5025,120183.8443,120951.09,121717.68,125650.702,111767.3843,112534.0253,113301.2989,114067.6347,114834.3806,115601.1907,116367.3797,124894.8514,Mapping
Blocked,m160,done,24,m160knife.wav,None,721.3854794,202,124884.4561,117134.107,117901.067,118650.8087,119417.5025,120183.8443,120951.09,121717.68,125650.702,126400.3929,112534.0253,113301.2989,114067.6347,114834.3806,115601.1907,116367.3797,125659.7515,Mapping
Blocked,m160,done,24,m160tile.wav,None,736.4749867,202,124884.4561,117134.107,117901.067,118650.8087,119417.5025,120183.8443,120951.09,121717.68,125650.702,126400.3929,127167.5428,113301.2989,114067.6347,114834.3806,115601.1907,116367.3797,126409.4167,Mapping
Blocked,m160,done,24,m160done.wav,None,733.6086417,202,124884.4561,117134.107,117901.067,118650.8087,119417.5025,120183.8443,120951.09,121717.68,125650.702,126400.3929,127167.5428,127933.9727,114067.6347,114834.3806,115601.1907,116367.3797,127177.0443,Mapping
Blocked,m160,done,24,m160cling.wav,space,357.6503205,202,124884.4561,117134.107,117901.067,118650.8087,119417.5025,120183.8443,120951.09,121717.68,125650.702,126400.3929,127167.5428,127933.9727,128700.674,114834.3806,115601.1907,116367.3797,127943.4454,Mapping
Blocked,m160,done,24,m160done.wav,None,732.057211,202,124884.4561,117134.107,117901.067,118650.8087,119417.5025,120183.8443,120951.09,121717.68,125650.702,126400.3929,127167.5428,127933.9727,128700.674,129467.3691,115601.1907,116367.3797,128710.4998,Mapping
Blocked,m160,done,24,m160park.wav,space,392.4165382,202,124884.4561,117134.107,117901.067,118650.8087,119417.5025,120183.8443,120951.09,121717.68,125650.702,126400.3929,127167.5428,127933.9727,128700.674,129467.3691,130233.6811,116367.3797,129476.6174,Mapping
Blocked,m160,done,24,m160done.wav,None,729.1008965,202,124884.4561,117134.107,117901.067,118650.8087,119417.5025,120183.8443,120951.09,121717.68,125650.702,126400.3929,127167.5428,127933.9727,128700.674,129467.3691,130233.6811,131000.8796,130242.8147,Mapping
Blocked,m160,done,24,m160bluff.wav,space,346.7089902,202,124884.4561,131767.793,117901.067,118650.8087,119417.5025,120183.8443,120951.09,121717.68,125650.702,126400.3929,127167.5428,127933.9727,128700.674,129467.3691,130233.6811,131000.8796,131010.263,Mapping
Blocked,m160,done,24,m160cling.wav,None,723.3904675,202,124884.4561,131767.793,132534.157,118650.8087,119417.5025,120183.8443,120951.09,121717.68,125650.702,126400.3929,127167.5428,127933.9727,128700.674,129467.3691,130233.6811,131000.8796,131777.5561,Mapping
Blocked,m160,done,24,m160gnash.wav,None,719.5613575,202,124884.4561,131767.793,132534.157,133300.4842,119417.5025,120183.8443,120951.09,121717.68,125650.702,126400.3929,127167.5428,127933.9727,128700.674,129467.3691,130233.6811,131000.8796,132546.0394,Mapping
Blocked,m160,done,24,m160depth.wav,None,721.4114498,202,124884.4561,131767.793,132534.157,133300.4842,134050.0505,120183.8443,120951.09,121717.68,125650.702,126400.3929,127167.5428,127933.9727,128700.674,129467.3691,130233.6811,131000.8796,133309.4598,Mapping
Blocked,m160,done,24,m160cave.wav,None,736.8095121,202,124884.4561,131767.793,132534.157,133300.4842,134050.0505,134817.253,120951.09,121717.68,125650.702,126400.3929,127167.5428,127933.9727,128700.674,129467.3691,130233.6811,131000.8796,134058.8759,Mapping
Blocked,m160,done,24,m160done.wav,None,734.1441298,202,124884.4561,131767.793,132534.157,133300.4842,134050.0505,134817.253,135583.8968,121717.68,125650.702,126400.3929,127167.5428,127933.9727,128700.674,129467.3691,130233.6811,131000.8796,134826.8024,Mapping
Blocked,m160,done,24,m160greet.wav,space,387.4914087,202,124884.4561,131767.793,132534.157,133300.4842,134050.0505,134817.253,135583.8968,136350.7972,125650.702,126400.3929,127167.5428,127933.9727,128700.674,129467.3691,130233.6811,131000.8796,135593.4141,Mapping
Blocked,m160,ball,3,m160park.wav,None,730.5784351,202,139484.3838,131767.793,132534.157,133300.4842,134050.0505,134817.253,135583.8968,136350.7972,125650.702,126400.3929,127167.5428,127933.9727,128700.674,129467.3691,130233.6811,131000.8796,136359.7317,Mapping
Blocked,m160,ball,3,m160greet.wav,None,720.9857181,202,139484.3838,131767.793,132534.157,133300.4842,134050.0505,134817.253,135583.8968,136350.7972,140250.63,126400.3929,127167.5428,127933.9727,128700.674,129467.3691,130233.6811,131000.8796,139494.2563,Mapping
Blocked,m160,ball,3,m160tile.wav,None,720.3797391,202,139484.3838,131767.793,132534.157,133300.4842,134050.0505,134817.253,135583.8968,136350.7972,140250.63,141000.5475,127167.5428,127933.9727,128700.674,129467.3691,130233.6811,131000.8796,140259.7809,Mapping
Blocked,m160,ball,3,m160depth.wav,None,735.1251366,202,139484.3838,131767.793,132534.157,133300.4842,134050.0505,134817.253,135583.8968,136350.7972,140250.63,141000.5475,141767.2767,127933.9727,128700.674,129467.3691,130233.6811,131000.8796,141009.7825,Mapping
Blocked,m160,ball,3,m160park.wav,None,732.9547405,202,139484.3838,131767.793,132534.157,133300.4842,134050.0505,134817.253,135583.8968,136350.7972,140250.63,141000.5475,141767.2767,142533.7025,128700.674,129467.3691,130233.6811,131000.8796,141776.8026,Mapping
Blocked,m160,ball,3,m160done.wav,None,731.9230298,202,139484.3838,131767.793,132534.157,133300.4842,134050.0505,134817.253,135583.8968,136350.7972,140250.63,141000.5475,141767.2767,142533.7025,143300.6567,129467.3691,130233.6811,131000.8796,142542.7628,Mapping
Blocked,m160,ball,3,m160jolt.wav,None,729.6428769,202,139484.3838,131767.793,132534.157,133300.4842,134050.0505,134817.253,135583.8968,136350.7972,140250.63,141000.5475,141767.2767,142533.7025,143300.6567,144066.8525,130233.6811,131000.8796,143310.0346,Mapping
Blocked,m160,ball,3,m160ball.wav,None,728.8186215,202,139484.3838,131767.793,132534.157,133300.4842,134050.0505,134817.253,135583.8968,136350.7972,140250.63,141000.5475,141767.2767,142533.7025,143300.6567,144066.8525,144833.774,131000.8796,144075.7784,Mapping
Blocked,m160,ball,3,m160lash.wav,space,392.914616,202,139484.3838,131767.793,132534.157,133300.4842,134050.0505,134817.253,135583.8968,136350.7972,140250.63,141000.5475,141767.2767,142533.7025,143300.6567,144066.8525,144833.774,145600.9699,144843.8465,Mapping
Blocked,m160,ball,3,m160ball.wav,None,723.2504124,202,139484.3838,146367.6273,132534.157,133300.4842,134050.0505,134817.253,135583.8968,136350.7972,140250.63,141000.5475,141767.2767,142533.7025,143300.6567,144066.8525,144833.774,145600.9699,145610.7352,Mapping
Blocked,m160,ball,3,m160knife.wav,space,419.4039572,202,139484.3838,146367.6273,147134.0195,133300.4842,134050.0505,134817.253,135583.8968,136350.7972,140250.63,141000.5475,141767.2767,142533.7025,143300.6567,144066.8525,144833.774,145600.9699,146377.3341,Mapping
Blocked,m160,ball,3,m160ball.wav,None,719.5347683,202,139484.3838,146367.6273,147134.0195,147883.5144,134050.0505,134817.253,135583.8968,136350.7972,140250.63,141000.5475,141767.2767,142533.7025,143300.6567,144066.8525,144833.774,145600.9699,147143.7306,Mapping
Blocked,m160,ball,3,m160tile.wav,space,327.556638,202,139484.3838,146367.6273,147134.0195,147883.5144,148650.5415,134817.253,135583.8968,136350.7972,140250.63,141000.5475,141767.2767,142533.7025,143300.6567,144066.8525,144833.774,145600.9699,147893.1624,Mapping
Blocked,m160,ball,3,m160ball.wav,None,733.0264687,202,139484.3838,146367.6273,147134.0195,147883.5144,148650.5415,149417.1198,135583.8968,136350.7972,140250.63,141000.5475,141767.2767,142533.7025,143300.6567,144066.8525,144833.774,145600.9699,148659.8031,Mapping
Blocked,m160,ball,3,m160romp.wav,space,345.7780699,202,139484.3838,146367.6273,147134.0195,147883.5144,148650.5415,149417.1198,150183.3304,136350.7972,140250.63,141000.5475,141767.2767,142533.7025,143300.6567,144066.8525,144833.774,145600.9699,149426.9048,Mapping
Blocked,m160,ball,3,m160dime.wav,None,730.3490285,202,139484.3838,146367.6273,147134.0195,147883.5144,148650.5415,149417.1198,150183.3304,150949.9949,140250.63,141000.5475,141767.2767,142533.7025,143300.6567,144066.8525,144833.774,145600.9699,150192.4563,Mapping
Blocked,m160,ball,5,m160cad.wav,None,728.9865026,202,154083.9857,146367.6273,147134.0195,147883.5144,148650.5415,149417.1198,150183.3304,150949.9949,140250.63,141000.5475,141767.2767,142533.7025,143300.6567,144066.8525,144833.774,145600.9699,150958.7056,Mapping
Blocked,m160,ball,5,m160ball.wav,None,720.5584408,202,154083.9857,146367.6273,147134.0195,147883.5144,148650.5415,149417.1198,150183.3304,150949.9949,154850.9689,141000.5475,141767.2767,142533.7025,143300.6567,144066.8525,144833.774,145600.9699,154094.3816,Mapping
Blocked,m160,ball,5,m160reek.wav,space,424.0103289,202,154083.9857,146367.6273,147134.0195,147883.5144,148650.5415,149417.1198,150183.3304,150949.9949,154850.9689,155599.916,141767.2767,142533.7025,143300.6567,144066.8525,144833.774,145600.9699,154860.5351,Mapping
Blocked,m160,ball,5,m160reek.wav,None,735.6003355,202,154083.9857,146367.6273,147134.0195,147883.5144,148650.5415,149417.1198,150183.3304,150949.9949,154850.9689,155599.916,156366.7344,142533.7025,143300.6567,144066.8525,144833.774,145600.9699,155608.9219,Mapping
Blocked,m160,ball,5,m160ball.wav,None,733.5814345,202,154083.9857,146367.6273,147134.0195,147883.5144,148650.5415,149417.1198,150183.3304,150949.9949,154850.9689,155599.916,156366.7344,157133.3217,143300.6567,144066.8525,144833.774,145600.9699,156375.8334,Mapping
Blocked,m160,ball,5,m160romp.wav,space,454.0378484,202,154083.9857,146367.6273,147134.0195,147883.5144,148650.5415,149417.1198,150183.3304,150949.9949,154850.9689,155599.916,156366.7344,157133.3217,157899.9175,144066.8525,144833.774,145600.9699,157142.4682,Mapping
Blocked,m160,ball,5,m160cling.wav,None,729.5513619,202,154083.9857,146367.6273,147134.0195,147883.5144,148650.5415,149417.1198,150183.3304,150949.9949,154850.9689,155599.916,156366.7344,157133.3217,157899.9175,158666.659,144833.774,145600.9699,157909.288,Mapping
Blocked,m160,ball,5,m160romp.wav,None,727.8026785,202,154083.9857,146367.6273,147134.0195,147883.5144,148650.5415,149417.1198,150183.3304,150949.9949,154850.9689,155599.916,156366.7344,157133.3217,157899.9175,158666.659,159433.1594,145600.9699,158676.0743,Mapping
Blocked,m160,ball,5,m160jolt.wav,None,726.4166549,202,154083.9857,146367.6273,147134.0195,147883.5144,148650.5415,149417.1198,150183.3304,150949.9949,154850.9689,155599.916,156366.7344,157133.3217,157899.9175,158666.659,159433.1594,160200.1578,159442.3873,Mapping
Blocked,m160,ball,5,m160jolt.wav,None,724.4512411,202,154083.9857,160966.5422,147134.0195,147883.5144,148650.5415,149417.1198,150183.3304,150949.9949,154850.9689,155599.916,156366.7344,157133.3217,157899.9175,158666.659,159433.1594,160200.1578,160209.254,Mapping
Blocked,m160,ball,5,m160ball.wav,None,727.903469,202,154083.9857,160966.5422,161733.4448,147883.5144,148650.5415,149417.1198,150183.3304,150949.9949,154850.9689,155599.916,156366.7344,157133.3217,157899.9175,158666.659,159433.1594,160200.1578,160975.5221,Mapping
Blocked,m160,ball,5,m160jaw.wav,space,413.7120787,202,154083.9857,160966.5422,161733.4448,162500.0345,148650.5415,149417.1198,150183.3304,150949.9949,154850.9689,155599.916,156366.7344,157133.3217,157899.9175,158666.659,159433.1594,160200.1578,161742.7231,Mapping
Blocked,m160,ball,5,m160ball.wav,None,723.5666965,202,154083.9857,160966.5422,161733.4448,162500.0345,163267.2298,149417.1198,150183.3304,150949.9949,154850.9689,155599.916,156366.7344,157133.3217,157899.9175,158666.659,159433.1594,160200.1578,162509.2803,Mapping
Blocked,m160,ball,5,m160park.wav,space,567.9437481,202,154083.9857,160966.5422,161733.4448,162500.0345,163267.2298,164017.0648,150183.3304,150949.9949,154850.9689,155599.916,156366.7344,157133.3217,157899.9175,158666.659,159433.1594,160200.1578,163276.4503,Mapping
Blocked,m160,ball,5,m160jaw.wav,None,734.9541639,202,154083.9857,160966.5422,161733.4448,162500.0345,163267.2298,164017.0648,164783.3855,150949.9949,154850.9689,155599.916,156366.7344,157133.3217,157899.9175,158666.659,159433.1594,160200.1578,164027.1553,Mapping
Blocked,m160,ball,5,m160depth.wav,None,734.2220414,202,154083.9857,160966.5422,161733.4448,162500.0345,163267.2298,164017.0648,164783.3855,165549.8435,154850.9689,155599.916,156366.7344,157133.3217,157899.9175,158666.659,159433.1594,160200.1578,164792.8979,Mapping
Blocked,m160,ball,1,m160greet.wav,None,733.2620583,202,168683.6614,160966.5422,161733.4448,162500.0345,163267.2298,164017.0648,164783.3855,165549.8435,154850.9689,155599.916,156366.7344,157133.3217,157899.9175,158666.659,159433.1594,160200.1578,165558.9666,Mapping
Blocked,m160,ball,1,m160ball.wav,None,721.0793975,202,168683.6614,160966.5422,161733.4448,162500.0345,163267.2298,164017.0648,164783.3855,165549.8435,169450.4165,155599.916,156366.7344,157133.3217,157899.9175,158666.659,159433.1594,160200.1578,168693.5627,Mapping
Blocked,m160,ball,1,m160romp.wav,space,496.0056371,202,168683.6614,160966.5422,161733.4448,162500.0345,163267.2298,164017.0648,164783.3855,165549.8435,169450.4165,170199.9216,156366.7344,157133.3217,157899.9175,158666.659,159433.1594,160200.1578,169460.323,Mapping
Blocked,m160,ball,1,m160lash.wav,None,734.8199822,202,168683.6614,160966.5422,161733.4448,162500.0345,163267.2298,164017.0648,164783.3855,165549.8435,169450.4165,170199.9216,170966.5546,157133.3217,157899.9175,158666.659,159433.1594,160200.1578,170209.2589,Mapping
Blocked,m160,ball,1,m160dime.wav,None,733.2871016,202,168683.6614,160966.5422,161733.4448,162500.0345,163267.2298,164017.0648,164783.3855,165549.8435,169450.4165,170199.9216,170966.5546,171732.9439,157899.9175,158666.659,159433.1594,160200.1578,170975.8196,Mapping
Blocked,m160,ball,1,m160ball.wav,None,732.0559742,202,168683.6614,160966.5422,161733.4448,162500.0345,163267.2298,164017.0648,164783.3855,165549.8435,169450.4165,170199.9216,170966.5546,171732.9439,172499.67,158666.659,159433.1594,160200.1578,171741.9121,Mapping
Blocked,m160,ball,1,m160jaw.wav,space,367.6397065,202,168683.6614,160966.5422,161733.4448,162500.0345,163267.2298,164017.0648,164783.3855,165549.8435,169450.4165,170199.9216,170966.5546,171732.9439,172499.67,173266.6894,159433.1594,160200.1578,172508.679,Mapping
Blocked,m160,ball,1,m160jaw.wav,None,726.9682195,202,168683.6614,160966.5422,161733.4448,162500.0345,163267.2298,164017.0648,164783.3855,165549.8435,169450.4165,170199.9216,170966.5546,171732.9439,172499.67,173266.6894,174033.2219,160200.1578,173276.475,Mapping
Blocked,m160,ball,1,m160greet.wav,None,726.0141112,202,168683.6614,160966.5422,161733.4448,162500.0345,163267.2298,164017.0648,164783.3855,165549.8435,169450.4165,170199.9216,170966.5546,171732.9439,172499.67,173266.6894,174033.2219,174800.0738,174043.0997,Mapping
Blocked,m160,ball,1,m160done.wav,None,724.6698262,202,168683.6614,175566.8919,161733.4448,162500.0345,163267.2298,164017.0648,164783.3855,165549.8435,169450.4165,170199.9216,170966.5546,171732.9439,172499.67,173266.6894,174033.2219,174800.0738,174809.5206,Mapping
Blocked,m160,ball,1,m160cling.wav,None,722.5250914,202,168683.6614,175566.8919,176333.6681,162500.0345,163267.2298,164017.0648,164783.3855,165549.8435,169450.4165,170199.9216,170966.5546,171732.9439,172499.67,173266.6894,174033.2219,174800.0738,175576.7972,Mapping
Blocked,m160,ball,1,m160greet.wav,None,721.0438428,202,168683.6614,175566.8919,176333.6681,177100.2438,163267.2298,164017.0648,164783.3855,165549.8435,169450.4165,170199.9216,170966.5546,171732.9439,172499.67,173266.6894,174033.2219,174800.0738,176343.2818,Mapping
Blocked,m160,ball,1,m160ball.wav,None,718.9828944,202,168683.6614,175566.8919,176333.6681,177100.2438,177849.4141,164017.0648,164783.3855,165549.8435,169450.4165,170199.9216,170966.5546,171732.9439,172499.67,173266.6894,174033.2219,174800.0738,177110.4348,Mapping
Blocked,m160,ball,1,m160done.wav,space,402.0210034,202,168683.6614,175566.8919,176333.6681,177100.2438,177849.4141,178616.1933,164783.3855,165549.8435,169450.4165,170199.9216,170966.5546,171732.9439,172499.67,173266.6894,174033.2219,174800.0738,177858.1108,Mapping
Blocked,m160,ball,1,m160ball.wav,None,733.5956567,202,168683.6614,175566.8919,176333.6681,177100.2438,177849.4141,178616.1933,179383.125,165549.8435,169450.4165,170199.9216,170966.5546,171732.9439,172499.67,173266.6894,174033.2219,174800.0738,178625.4092,Mapping
Blocked,m160,ball,1,m160dime.wav,space,418.9816266,202,168683.6614,175566.8919,176333.6681,177100.2438,177849.4141,178616.1933,179383.125,180149.9669,169450.4165,170199.9216,170966.5546,171732.9439,172499.67,173266.6894,174033.2219,174800.0738,179393.1193,Mapping
Blocked,m160,cave,8,m160jolt.wav,None,730.7166355,202,183283.48,175566.8919,176333.6681,177100.2438,177849.4141,178616.1933,179383.125,180149.9669,169450.4165,170199.9216,170966.5546,171732.9439,172499.67,173266.6894,174033.2219,174800.0738,180159.0875,Mapping
Blocked,m160,cave,8,m160cave.wav,None,721.3276639,202,183283.48,175566.8919,176333.6681,177100.2438,177849.4141,178616.1933,179383.125,180149.9669,184050.1365,170199.9216,170966.5546,171732.9439,172499.67,173266.6894,174033.2219,174800.0738,183293.1064,Mapping
Blocked,m160,cave,8,m160greet.wav,space,424.02115,202,183283.48,175566.8919,176333.6681,177100.2438,177849.4141,178616.1933,179383.125,180149.9669,184050.1365,184799.6604,170966.5546,171732.9439,172499.67,173266.6894,174033.2219,174800.0738,184060.0093,Mapping
Blocked,m160,cave,8,m160jolt.wav,None,735.0153797,202,183283.48,175566.8919,176333.6681,177100.2438,177849.4141,178616.1933,179383.125,180149.9669,184050.1365,184799.6604,185566.3367,171732.9439,172499.67,173266.6894,174033.2219,174800.0738,184809.0151,Mapping
Blocked,m160,cave,8,m160cad.wav,None,732.627017,202,183283.48,175566.8919,176333.6681,177100.2438,177849.4141,178616.1933,179383.125,180149.9669,184050.1365,184799.6604,185566.3367,186333.016,172499.67,173266.6894,174033.2219,174800.0738,185576.4902,Mapping
Blocked,m160,cave,8,m160cave.wav,None,731.7195935,202,183283.48,175566.8919,176333.6681,177100.2438,177849.4141,178616.1933,179383.125,180149.9669,184050.1365,184799.6604,185566.3367,186333.016,187099.6966,173266.6894,174033.2219,174800.0738,186342.4087,Mapping
Blocked,m160,cave,8,m160romp.wav,space,495.0373066,202,183283.48,175566.8919,176333.6681,177100.2438,177849.4141,178616.1933,179383.125,180149.9669,184050.1365,184799.6604,185566.3367,186333.016,187099.6966,187866.0955,174033.2219,174800.0738,187108.9347,Mapping
Blocked,m160,cave,8,m160cave.wav,None,728.3205432,202,183283.48,175566.8919,176333.6681,177100.2438,177849.4141,178616.1933,179383.125,180149.9669,184050.1365,184799.6604,185566.3367,186333.016,187099.6966,187866.0955,188632.6416,174800.0738,187875.4091,Mapping
Blocked,m160,cave,8,m160tile.wav,space,642.1681945,202,183283.48,175566.8919,176333.6681,177100.2438,177849.4141,178616.1933,179383.125,180149.9669,184050.1365,184799.6604,185566.3367,186333.016,187099.6966,187866.0955,188632.6416,189399.3247,188641.791,Mapping
Blocked,m160,cave,8,m160dime.wav,None,724.927986,202,183283.48,190166.3296,176333.6681,177100.2438,177849.4141,178616.1933,179383.125,180149.9669,184050.1365,184799.6604,185566.3367,186333.016,187099.6966,187866.0955,188632.6416,189399.3247,189408.3723,Mapping
Blocked,m160,cave,8,m160romp.wav,None,723.0645986,202,183283.48,190166.3296,190933.0331,177100.2438,177849.4141,178616.1933,179383.125,180149.9669,184050.1365,184799.6604,185566.3367,186333.016,187099.6966,187866.0955,188632.6416,189399.3247,190175.4487,Mapping
Blocked,m160,cave,8,m160cave.wav,None,721.2602641,202,183283.48,190166.3296,190933.0331,191699.7474,177849.4141,178616.1933,179383.125,180149.9669,184050.1365,184799.6604,185566.3367,186333.016,187099.6966,187866.0955,188632.6416,189399.3247,190942.3506,Mapping
Blocked,m160,cave,8,m160gnash.wav,space,399.2492659,202,183283.48,190166.3296,190933.0331,191699.7474,192449.1885,178616.1933,179383.125,180149.9669,184050.1365,184799.6604,185566.3367,186333.016,187099.6966,187866.0955,188632.6416,189399.3247,191708.6547,Mapping
Blocked,m160,cave,8,m160jolt.wav,None,734.8880004,202,183283.48,190166.3296,190933.0331,191699.7474,192449.1885,193216.0753,179383.125,180149.9669,184050.1365,184799.6604,185566.3367,186333.016,187099.6966,187866.0955,188632.6416,189399.3247,192458.451,Mapping
Blocked,m160,cave,8,m160ball.wav,None,733.20919,202,183283.48,190166.3296,190933.0331,191699.7474,192449.1885,193216.0753,193982.8681,180149.9669,184050.1365,184799.6604,185566.3367,186333.016,187099.6966,187866.0955,188632.6416,189399.3247,193225.2559,Mapping
Blocked,m160,cave,8,m160lash.wav,None,730.9822156,202,183283.48,190166.3296,190933.0331,191699.7474,192449.1885,193216.0753,193982.8681,194749.3963,184050.1365,184799.6604,185566.3367,186333.016,187099.6966,187866.0955,188632.6416,189399.3247,193992.7134,Mapping
Blocked,m160,tile,13,m160cad.wav,None,730.3678882,202,197883.2553,190166.3296,190933.0331,191699.7474,192449.1885,193216.0753,193982.8681,194749.3963,184050.1365,184799.6604,185566.3367,186333.016,187099.6966,187866.0955,188632.6416,189399.3247,194758.4374,Mapping
Blocked,m160,tile,13,m160lash.wav,None,721.1041315,202,197883.2553,190166.3296,190933.0331,191699.7474,192449.1885,193216.0753,193982.8681,194749.3963,198650.122,184799.6604,185566.3367,186333.016,187099.6966,187866.0955,188632.6416,189399.3247,197893.1111,Mapping
Blocked,m160,tile,13,m160tile.wav,None,719.2540392,202,197883.2553,190166.3296,190933.0331,191699.7474,192449.1885,193216.0753,193982.8681,194749.3963,198650.122,199399.3,185566.3367,186333.016,187099.6966,187866.0955,188632.6416,189399.3247,198660.2904,Mapping
Blocked,m160,tile,13,m160dime.wav,space,419.0477896,202,197883.2553,190166.3296,190933.0331,191699.7474,192449.1885,193216.0753,193982.8681,194749.3963,198650.122,199399.3,200165.7663,186333.016,187099.6966,187866.0955,188632.6416,189399.3247,199408.7143,Mapping
Blocked,m160,tile,13,m160cad.wav,None,734.5884116,202,197883.2553,190166.3296,190933.0331,191699.7474,192449.1885,193216.0753,193982.8681,194749.3963,198650.122,199399.3,200165.7663,200932.7032,187099.6966,187866.0955,188632.6416,189399.3247,200174.8761,Mapping
Blocked,m160,tile,13,m160bluff.wav,None,732.3175347,202,197883.2553,190166.3296,190933.0331,191699.7474,192449.1885,193216.0753,193982.8681,194749.3963,198650.122,199399.3,200165.7663,200932.7032,201699.671,187866.0955,188632.6416,189399.3247,200942.5365,Mapping
Blocked,m160,tile,13,m160tile.wav,None,731.236665,202,197883.2553,190166.3296,190933.0331,191699.7474,192449.1885,193216.0753,193982.8681,194749.3963,198650.122,199399.3,200165.7663,200932.7032,201699.671,202466.0137,188632.6416,189399.3247,201709.0281,Mapping
Blocked,m160,tile,13,m160bluff.wav,space,512.44283,202,197883.2553,190166.3296,190933.0331,191699.7474,192449.1885,193216.0753,193982.8681,194749.3963,198650.122,199399.3,200165.7663,200932.7032,201699.671,202466.0137,203232.403,189399.3247,202475.2694,Mapping
Blocked,m160,tile,13,m160tile.wav,None,729.1271761,202,197883.2553,190166.3296,190933.0331,191699.7474,192449.1885,193216.0753,193982.8681,194749.3963,198650.122,199399.3,200165.7663,200932.7032,201699.671,202466.0137,203232.403,203999.4098,203241.4213,Mapping
Blocked,m160,tile,13,m160gnash.wav,space,595.0474162,202,197883.2553,204765.7203,190933.0331,191699.7474,192449.1885,193216.0753,193982.8681,194749.3963,198650.122,199399.3,200165.7663,200932.7032,201699.671,202466.0137,203232.403,203999.4098,204008.6108,Mapping
Blocked,m160,tile,13,m160tile.wav,None,725.8449937,202,197883.2553,204765.7203,205532.5168,191699.7474,192449.1885,193216.0753,193982.8681,194749.3963,198650.122,199399.3,200165.7663,200932.7032,201699.671,202466.0137,203232.403,203999.4098,204774.8143,Mapping
Blocked,m160,tile,13,m160ball.wav,space,453.9277824,202,197883.2553,204765.7203,205532.5168,206299.3069,192449.1885,193216.0753,193982.8681,194749.3963,198650.122,199399.3,200165.7663,200932.7032,201699.671,202466.0137,203232.403,203999.4098,205541.6866,Mapping
Blocked,m160,tile,13,m160depth.wav,None,722.5872353,202,197883.2553,204765.7203,205532.5168,206299.3069,207066.2614,193216.0753,193982.8681,194749.3963,198650.122,199399.3,200165.7663,200932.7032,201699.671,202466.0137,203232.403,203999.4098,206308.139,Mapping
Blocked,m160,tile,13,m160depth.wav,None,719.7734504,202,197883.2553,204765.7203,205532.5168,206299.3069,207066.2614,207815.7575,193982.8681,194749.3963,198650.122,199399.3,200165.7663,200932.7032,201699.671,202466.0137,203232.403,203999.4098,207076.3494,Mapping
Blocked,m160,tile,13,m160cad.wav,None,736.6546164,202,197883.2553,204765.7203,205532.5168,206299.3069,207066.2614,207815.7575,208582.1818,194749.3963,198650.122,199399.3,200165.7663,200932.7032,201699.671,202466.0137,203232.403,203999.4098,207824.8021,Mapping
Blocked,m160,tile,13,m160cad.wav,None,735.3313547,202,197883.2553,204765.7203,205532.5168,206299.3069,207066.2614,207815.7575,208582.1818,209349.294,198650.122,199399.3,200165.7663,200932.7032,201699.671,202466.0137,203232.403,203999.4098,208591.4251,Mapping
Blocked,m160,tile,15,m160lash.wav,None,738.745864,202,212482.8506,204765.7203,205532.5168,206299.3069,207066.2614,207815.7575,208582.1818,209349.294,198650.122,199399.3,200165.7663,200932.7032,201699.671,202466.0137,203232.403,203999.4098,209353.3132,Mapping
Blocked,m160,tile,15,m160priest.wav,None,721.4287636,202,212482.8506,204765.7203,205532.5168,206299.3069,207066.2614,207815.7575,208582.1818,209349.294,213249.5003,199399.3,200165.7663,200932.7032,201699.671,202466.0137,203232.403,203999.4098,212492.6035,Mapping
Blocked,m160,tile,15,m160greet.wav,None,719.6930652,202,212482.8506,204765.7203,205532.5168,206299.3069,207066.2614,207815.7575,208582.1818,209349.294,213249.5003,214016.4761,200165.7663,200932.7032,201699.671,202466.0137,203232.403,203999.4098,213259.7426,Mapping
Blocked,m160,tile,15,m160tile.wav,None,718.523772,202,212482.8506,204765.7203,205532.5168,206299.3069,207066.2614,207815.7575,208582.1818,209349.294,213249.5003,214016.4761,214765.3873,200932.7032,201699.671,202466.0137,203232.403,203999.4098,214026.6758,Mapping
Blocked,m160,tile,15,m160priest.wav,space,381.3036168,202,212482.8506,204765.7203,205532.5168,206299.3069,207066.2614,207815.7575,208582.1818,209349.294,213249.5003,214016.4761,214765.3873,215532.4321,201699.671,202466.0137,203232.403,203999.4098,214774.1861,Mapping
Blocked,m160,tile,15,m160ball.wav,None,733.806822,202,212482.8506,204765.7203,205532.5168,206299.3069,207066.2614,207815.7575,208582.1818,209349.294,213249.5003,214016.4761,214765.3873,215532.4321,216299.3307,202466.0137,203232.403,203999.4098,215541.788,Mapping
Blocked,m160,tile,15,m160tile.wav,None,732.5747665,202,212482.8506,204765.7203,205532.5168,206299.3069,207066.2614,207815.7575,208582.1818,209349.294,213249.5003,214016.4761,214765.3873,215532.4321,216299.3307,217065.5905,203232.403,203999.4098,216308.4432,Mapping
Blocked,m160,tile,15,m160lash.wav,space,488.6606094,202,212482.8506,204765.7203,205532.5168,206299.3069,207066.2614,207815.7575,208582.1818,209349.294,213249.5003,214016.4761,214765.3873,215532.4321,216299.3307,217065.5905,217832.0803,203999.4098,217074.8212,Mapping
Blocked,m160,tile,15,m160knife.wav,None,730.342227,202,212482.8506,204765.7203,205532.5168,206299.3069,207066.2614,207815.7575,208582.1818,209349.294,213249.5003,214016.4761,214765.3873,215532.4321,216299.3307,217065.5905,217832.0803,218598.8255,217841.1539,Mapping
Blocked,m160,tile,15,m160priest.wav,None,729.1720062,202,212482.8506,219365.866,205532.5168,206299.3069,207066.2614,207815.7575,208582.1818,209349.294,213249.5003,214016.4761,214765.3873,215532.4321,216299.3307,217065.5905,217832.0803,218598.8255,218607.8011,Mapping
Blocked,m160,tile,15,m160tile.wav,None,732.4127601,202,212482.8506,219365.866,220132.3472,206299.3069,207066.2614,207815.7575,208582.1818,209349.294,213249.5003,214016.4761,214765.3873,215532.4321,216299.3307,217065.5905,217832.0803,218598.8255,219370.0036,Mapping
Blocked,m160,tile,15,m160cling.wav,space,389.7839282,202,212482.8506,219365.866,220132.3472,220899.8662,207066.2614,207815.7575,208582.1818,209349.294,213249.5003,214016.4761,214765.3873,215532.4321,216299.3307,217065.5905,217832.0803,218598.8255,220141.6316,Mapping
Blocked,m160,tile,15,m160tile.wav,None,722.3334042,202,212482.8506,219365.866,220132.3472,220899.8662,221666.092,207815.7575,208582.1818,209349.294,213249.5003,214016.4761,214765.3873,215532.4321,216299.3307,217065.5905,217832.0803,218598.8255,220910.1036,Mapping
Blocked,m160,tile,15,m160greet.wav,space,527.528936,202,212482.8506,219365.866,220132.3472,220899.8662,221666.092,222432.7695,208582.1818,209349.294,213249.5003,214016.4761,214765.3873,215532.4321,216299.3307,217065.5905,217832.0803,218598.8255,221675.8161,Mapping
Blocked,m160,tile,15,m160gnash.wav,None,720.0931353,202,212482.8506,219365.866,220132.3472,220899.8662,221666.092,222432.7695,223199.6764,209349.294,213249.5003,214016.4761,214765.3873,215532.4321,216299.3307,217065.5905,217832.0803,218598.8255,222442.4473,Mapping
Blocked,m160,tile,15,m160bluff.wav,None,718.0195106,202,212482.8506,219365.866,220132.3472,220899.8662,221666.092,222432.7695,223199.6764,223948.6575,213249.5003,214016.4761,214765.3873,215532.4321,216299.3307,217065.5905,217832.0803,218598.8255,223209.9892,Mapping
Blocked,m160,cave,11,m160knife.wav,None,735.8213943,202,227099.423,219365.866,220132.3472,220899.8662,221666.092,222432.7695,223199.6764,223948.6575,213249.5003,214016.4761,214765.3873,215532.4321,216299.3307,217065.5905,217832.0803,218598.8255,223957.6226,Mapping
Blocked,m160,cave,11,m160cave.wav,None,720.3769567,202,227099.423,219365.866,220132.3472,220899.8662,221666.092,222432.7695,223199.6764,223948.6575,227849.1414,214016.4761,214765.3873,215532.4321,216299.3307,217065.5905,217832.0803,218598.8255,227109.1282,Mapping
Blocked,m160,cave,11,m160tile.wav,space,448.8032367,202,227099.423,219365.866,220132.3472,220899.8662,221666.092,222432.7695,223199.6764,223948.6575,227849.1414,228615.3443,214765.3873,215532.4321,216299.3307,217065.5905,217832.0803,218598.8255,227858.4543,Mapping
Blocked,m160,cave,11,m160park.wav,None,734.8994398,202,227099.423,219365.866,220132.3472,220899.8662,221666.092,222432.7695,223199.6764,223948.6575,227849.1414,228615.3443,229381.8954,215532.4321,216299.3307,217065.5905,217832.0803,218598.8255,228624.2884,Mapping
Blocked,m160,cave,11,m160cave.wav,None,733.3925297,202,227099.423,219365.866,220132.3472,220899.8662,221666.092,222432.7695,223199.6764,223948.6575,227849.1414,228615.3443,229381.8954,230148.5849,216299.3307,217065.5905,217832.0803,218598.8255,229390.9767,Mapping
Blocked,m160,cave,11,m160done.wav,space,541.4593532,202,227099.423,219365.866,220132.3472,220899.8662,221666.092,222432.7695,223199.6764,223948.6575,227849.1414,228615.3443,229381.8954,230148.5849,230915.5908,217065.5905,217832.0803,218598.8255,230157.7139,Mapping
Blocked,m160,cave,11,m160jaw.wav,None,729.8416756,202,227099.423,219365.866,220132.3472,220899.8662,221666.092,222432.7695,223199.6764,223948.6575,227849.1414,228615.3443,229381.8954,230148.5849,230915.5908,231682.1718,217832.0803,218598.8255,230925.0366,Mapping
Blocked,m160,cave,11,m160jaw.wav,None,728.783994,202,227099.423,219365.866,220132.3472,220899.8662,221666.092,222432.7695,223199.6764,223948.6575,227849.1414,228615.3443,229381.8954,230148.5849,230915.5908,231682.1718,232448.5627,218598.8255,231691.5518,Mapping
Blocked,m160,cave,11,m160ball.wav,None,728.4160783,202,227099.423,219365.866,220132.3472,220899.8662,221666.092,222432.7695,223199.6764,223948.6575,227849.1414,228615.3443,229381.8954,230148.5849,230915.5908,231682.1718,232448.5627,233215.4767,232457.291,Mapping
Blocked,m160,cave,11,m160reek.wav,None,726.0623425,202,227099.423,233981.8314,220132.3472,220899.8662,221666.092,222432.7695,223199.6764,223948.6575,227849.1414,228615.3443,229381.8954,230148.5849,230915.5908,231682.1718,232448.5627,233215.4767,233224.8886,Mapping
Blocked,m160,cave,11,m160jolt.wav,None,725.4038034,202,227099.423,233981.8314,234748.7025,220899.8662,221666.092,222432.7695,223199.6764,223948.6575,227849.1414,228615.3443,229381.8954,230148.5849,230915.5908,231682.1718,232448.5627,233215.4767,233990.9864,Mapping
Blocked,m160,cave,11,m160cave.wav,None,723.7330312,202,227099.423,233981.8314,234748.7025,235515.3973,221666.092,222432.7695,223199.6764,223948.6575,227849.1414,228615.3443,229381.8954,230148.5849,230915.5908,231682.1718,232448.5627,233215.4767,234757.8716,Mapping
Blocked,m160,cave,11,m160knife.wav,space,390.5791217,202,227099.423,233981.8314,234748.7025,235515.3973,236282.0513,222432.7695,223199.6764,223948.6575,227849.1414,228615.3443,229381.8954,230148.5849,230915.5908,231682.1718,232448.5627,233215.4767,235524.5386,Mapping
Blocked,m160,cave,11,m160cave.wav,None,720.7074626,202,227099.423,233981.8314,234748.7025,235515.3973,236282.0513,237031.885,223199.6764,223948.6575,227849.1414,228615.3443,229381.8954,230148.5849,230915.5908,231682.1718,232448.5627,233215.4767,236291.0266,Mapping
Blocked,m160,cave,11,m160dime.wav,space,401.634228,202,227099.423,233981.8314,234748.7025,235515.3973,236282.0513,237031.885,237798.5879,223948.6575,227849.1414,228615.3443,229381.8954,230148.5849,230915.5908,231682.1718,232448.5627,233215.4767,237041.4842,Mapping
Blocked,m160,cave,11,m160knife.wav,None,733.8327924,202,227099.423,233981.8314,234748.7025,235515.3973,236282.0513,237031.885,237798.5879,238565.4957,227849.1414,228615.3443,229381.8954,230148.5849,230915.5908,231682.1718,232448.5627,233215.4767,237807.6297,Mapping
Blocked,m160,cave,10,m160depth.wav,None,732.2931099,202,241699.3207,233981.8314,234748.7025,235515.3973,236282.0513,237031.885,237798.5879,238565.4957,227849.1414,228615.3443,229381.8954,230148.5849,230915.5908,231682.1718,232448.5627,233215.4767,238574.6479,Mapping
Blocked,m160,cave,10,m160cave.wav,None,720.9885009,202,241699.3207,233981.8314,234748.7025,235515.3973,236282.0513,237031.885,237798.5879,238565.4957,242465.8245,228615.3443,229381.8954,230148.5849,230915.5908,231682.1718,232448.5627,233215.4767,241709.2857,Mapping
Blocked,m160,cave,10,m160done.wav,space,502.9873862,202,241699.3207,233981.8314,234748.7025,235515.3973,236282.0513,237031.885,237798.5879,238565.4957,242465.8245,243232.4043,229381.8954,230148.5849,230915.5908,231682.1718,232448.5627,233215.4767,242475.9527,Mapping
Blocked,m160,cave,10,m160knife.wav,None,719.2123006,202,241699.3207,233981.8314,234748.7025,235515.3973,236282.0513,237031.885,237798.5879,238565.4957,242465.8245,243232.4043,243981.4768,230148.5849,230915.5908,231682.1718,232448.5627,233215.4767,243241.9373,Mapping
Blocked,m160,cave,10,m160reek.wav,None,736.2585654,202,241699.3207,233981.8314,234748.7025,235515.3973,236282.0513,237031.885,237798.5879,238565.4957,242465.8245,243232.4043,243981.4768,244748.2928,230915.5908,231682.1718,232448.5627,233215.4767,243990.5464,Mapping
Blocked,m160,cave,10,m160gnash.wav,None,735.5088205,202,241699.3207,233981.8314,234748.7025,235515.3973,236282.0513,237031.885,237798.5879,238565.4957,242465.8245,243232.4043,243981.4768,244748.2928,245514.9978,231682.1718,232448.5627,233215.4767,244757.3698,Mapping
Blocked,m160,cave,10,m160greet.wav,None,538.4470788,202,241699.3207,233981.8314,234748.7025,235515.3973,236282.0513,237031.885,237798.5879,238565.4957,242465.8245,243232.4043,243981.4768,244748.2928,245514.9978,246282.1648,232448.5627,233215.4767,245719.8149,Mapping
Blocked,m160,cave,10,m160cave.wav,None,731.8611951,202,241699.3207,233981.8314,234748.7025,235515.3973,236282.0513,237031.885,237798.5879,238565.4957,242465.8245,243232.4043,243981.4768,244748.2928,245514.9978,246282.1648,247048.7192,233215.4767,246291.8827,Mapping
Blocked,m160,cave,10,m160ball.wav,space,377.0534121,202,241699.3207,233981.8314,234748.7025,235515.3973,236282.0513,237031.885,237798.5879,238565.4957,242465.8245,243232.4043,243981.4768,244748.2928,245514.9978,246282.1648,247048.7192,247815.0028,247057.8822,Mapping
Blocked,m160,cave,10,m160bluff.wav,None,729.4372767,202,241699.3207,248581.6584,234748.7025,235515.3973,236282.0513,237031.885,237798.5879,238565.4957,242465.8245,243232.4043,243981.4768,244748.2928,245514.9978,246282.1648,247048.7192,247815.0028,247824.0668,Mapping
Blocked,m160,cave,10,m160cave.wav,None,728.3601179,202,241699.3207,248581.6584,249348.2406,235515.3973,236282.0513,237031.885,237798.5879,238565.4957,242465.8245,243232.4043,243981.4768,244748.2928,245514.9978,246282.1648,247048.7192,247815.0028,248590.5483,Mapping
Blocked,m160,cave,10,m160park.wav,space,501.6335165,202,241699.3207,248581.6584,249348.2406,250115.1067,236282.0513,237031.885,237798.5879,238565.4957,242465.8245,243232.4043,243981.4768,244748.2928,245514.9978,246282.1648,247048.7192,247815.0028,249357.2172,Mapping
Blocked,m160,cave,10,m160jaw.wav,None,730.0386191,202,241699.3207,248581.6584,249348.2406,250115.1067,250882.26,237031.885,237798.5879,238565.4957,242465.8245,243232.4043,243981.4768,244748.2928,245514.9978,246282.1648,247048.7192,247815.0028,250118.7361,Mapping
Blocked,m160,cave,10,m160cave.wav,None,722.391529,202,241699.3207,248581.6584,249348.2406,250115.1067,250882.26,251648.4824,237798.5879,238565.4957,242465.8245,243232.4043,243981.4768,244748.2928,245514.9978,246282.1648,247048.7192,247815.0028,250892.3252,Mapping
Blocked,m160,cave,10,m160park.wav,space,449.2840013,202,241699.3207,248581.6584,249348.2406,250115.1067,250882.26,251648.4824,252415.0477,238565.4957,242465.8245,243232.4043,243981.4768,244748.2928,245514.9978,246282.1648,247048.7192,247815.0028,251657.5316,Mapping
Blocked,m160,cave,10,m160priest.wav,None,720.5862664,202,241699.3207,248581.6584,249348.2406,250115.1067,250882.26,251648.4824,252415.0477,253164.6536,242465.8245,243232.4043,243981.4768,244748.2928,245514.9978,246282.1648,247048.7192,247815.0028,252424.1819,Mapping
Blocked,m160,ball,2,m160jaw.wav,None,736.2619662,202,256299.0079,248581.6584,249348.2406,250115.1067,250882.26,251648.4824,252415.0477,253164.6536,242465.8245,243232.4043,243981.4768,244748.2928,245514.9978,246282.1648,247048.7192,247815.0028,253173.8938,Mapping
Blocked,m160,ball,2,m160park.wav,None,716.6208113,202,256299.0079,248581.6584,249348.2406,250115.1067,250882.26,251648.4824,252415.0477,253164.6536,257065.4931,243232.4043,243981.4768,244748.2928,245514.9978,246282.1648,247048.7192,247815.0028,256313.5965,Mapping
Blocked,m160,ball,2,m160gnash.wav,None,720.3701544,202,256299.0079,248581.6584,249348.2406,250115.1067,250882.26,251648.4824,252415.0477,253164.6536,257065.4931,257832.1483,243981.4768,244748.2928,245514.9978,246282.1648,247048.7192,247815.0028,257075.3124,Mapping
Blocked,m160,ball,2,m160ball.wav,None,719.3678147,202,256299.0079,248581.6584,249348.2406,250115.1067,250882.26,251648.4824,252415.0477,253164.6536,257065.4931,257832.1483,258581.5727,244748.2928,245514.9978,246282.1648,247048.7192,247815.0028,257841.7086,Mapping
Blocked,m160,ball,2,m160knife.wav,space,395.3413162,202,256299.0079,248581.6584,249348.2406,250115.1067,250882.26,251648.4824,252415.0477,253164.6536,257065.4931,257832.1483,258581.5727,259348.4082,245514.9978,246282.1648,247048.7192,247815.0028,258591.3639,Mapping
Blocked,m160,ball,2,m160lash.wav,None,733.4426157,202,256299.0079,248581.6584,249348.2406,250115.1067,250882.26,251648.4824,252415.0477,253164.6536,257065.4931,257832.1483,258581.5727,259348.4082,260114.771,246282.1648,247048.7192,247815.0028,259357.7465,Mapping
Blocked,m160,ball,2,m160ball.wav,None,733.1702346,202,256299.0079,248581.6584,249348.2406,250115.1067,250882.26,251648.4824,252415.0477,253164.6536,257065.4931,257832.1483,258581.5727,259348.4082,260114.771,260881.586,247048.7192,247815.0028,260123.6501,Mapping
Blocked,m160,ball,2,m160bluff.wav,space,383.9352988,202,256299.0079,248581.6584,249348.2406,250115.1067,250882.26,251648.4824,252415.0477,253164.6536,257065.4931,257832.1483,258581.5727,259348.4082,260114.771,260881.586,261648.0134,247815.0028,260890.7193,Mapping
Blocked,m160,ball,2,m160jolt.wav,None,729.8345645,202,256299.0079,248581.6584,249348.2406,250115.1067,250882.26,251648.4824,252415.0477,253164.6536,257065.4931,257832.1483,258581.5727,259348.4082,260114.771,260881.586,261648.0134,262414.7299,261657.1037,Mapping
Blocked,m160,ball,2,m160ball.wav,None,728.9017891,202,256299.0079,263181.608,249348.2406,250115.1067,250882.26,251648.4824,252415.0477,253164.6536,257065.4931,257832.1483,258581.5727,259348.4082,260114.771,260881.586,261648.0134,262414.7299,262423.5667,Mapping
Blocked,m160,ball,2,m160lash.wav,space,419.685923,202,256299.0079,263181.608,263948.4605,250115.1067,250882.26,251648.4824,252415.0477,253164.6536,257065.4931,257832.1483,258581.5727,259348.4082,260114.771,260881.586,261648.0134,262414.7299,263190.9392,Mapping
Blocked,m160,ball,2,m160dime.wav,None,725.4078225,202,256299.0079,263181.608,263948.4605,264714.7528,250882.26,251648.4824,252415.0477,253164.6536,257065.4931,257832.1483,258581.5727,259348.4082,260114.771,260881.586,261648.0134,262414.7299,263957.5771,Mapping
Blocked,m160,ball,2,m160dime.wav,None,724.7619596,202,256299.0079,263181.608,263948.4605,264714.7528,265481.89,251648.4824,252415.0477,253164.6536,257065.4931,257832.1483,258581.5727,259348.4082,260114.771,260881.586,261648.0134,262414.7299,264723.9448,Mapping
Blocked,m160,ball,2,m160ball.wav,None,722.6976105,202,256299.0079,263181.608,263948.4605,264714.7528,265481.89,266248.0478,252415.0477,253164.6536,257065.4931,257832.1483,258581.5727,259348.4082,260114.771,260881.586,261648.0134,262414.7299,265491.6707,Mapping
Blocked,m160,ball,2,m160gnash.wav,space,305.2943125,202,256299.0079,263181.608,263948.4605,264714.7528,265481.89,266248.0478,267015.9252,253164.6536,257065.4931,257832.1483,258581.5727,259348.4082,260114.771,260881.586,261648.0134,262414.7299,266257.2723,Mapping
Blocked,m160,ball,2,m160bluff.wav,None,719.1829295,202,256299.0079,263181.608,263948.4605,264714.7528,265481.89,266248.0478,267015.9252,267782.1621,257065.4931,257832.1483,258581.5727,259348.4082,260114.771,260881.586,261648.0134,262414.7299,267025.5374,Mapping
Blocked,m160,tile,18,m160cling.wav,None,718.2022319,202,270899.0311,263181.608,263948.4605,264714.7528,265481.89,266248.0478,267015.9252,267782.1621,257065.4931,257832.1483,258581.5727,259348.4082,260114.771,260881.586,261648.0134,262414.7299,267792.2876,Mapping
Blocked,m160,tile,18,m160done.wav,None,720.2403019,202,270899.0311,263181.608,263948.4605,264714.7528,265481.89,266248.0478,267015.9252,267782.1621,271665.3287,257832.1483,258581.5727,259348.4082,260114.771,260881.586,261648.0134,262414.7299,270908.4285,Mapping
Blocked,m160,tile,18,m160romp.wav,None,719.3365889,202,270899.0311,263181.608,263948.4605,264714.7528,265481.89,266248.0478,267015.9252,267782.1621,271665.3287,272414.9364,258581.5727,259348.4082,260114.771,260881.586,261648.0134,262414.7299,271675.2003,Mapping
Blocked,m160,tile,18,m160dime.wav,None,736.3265832,202,270899.0311,263181.608,263948.4605,264714.7528,265481.89,266248.0478,267015.9252,267782.1621,271665.3287,272414.9364,273180.9504,259348.4082,260114.771,260881.586,261648.0134,262414.7299,272423.9977,Mapping
Blocked,m160,tile,18,m160tile.wav,None,735.6491848,202,270899.0311,263181.608,263948.4605,264714.7528,265481.89,266248.0478,267015.9252,267782.1621,271665.3287,272414.9364,273180.9504,273947.8409,260114.771,260881.586,261648.0134,262414.7299,273190.3746,Mapping
Blocked,m160,tile,18,m160lash.wav,space,445.3556468,202,270899.0311,263181.608,263948.4605,264714.7528,265481.89,266248.0478,267015.9252,267782.1621,271665.3287,272414.9364,273180.9504,273947.8409,274714.7018,260881.586,261648.0134,262414.7299,273957.0756,Mapping
Blocked,m160,tile,18,m160knife.wav,None,732.5218976,202,270899.0311,263181.608,263948.4605,264714.7528,265481.89,266248.0478,267015.9252,267782.1621,271665.3287,272414.9364,273180.9504,273947.8409,274714.7018,275481.4056,261648.0134,262414.7299,274723.9352,Mapping
Blocked,m160,tile,18,m160lash.wav,None,731.3680635,202,270899.0311,263181.608,263948.4605,264714.7528,265481.89,266248.0478,267015.9252,267782.1621,271665.3287,272414.9364,273180.9504,273947.8409,274714.7018,275481.4056,276247.9081,262414.7299,275490.7599,Mapping
Blocked,m160,tile,18,m160reek.wav,None,730.9568631,202,270899.0311,263181.608,263948.4605,264714.7528,265481.89,266248.0478,267015.9252,267782.1621,271665.3287,272414.9364,273180.9504,273947.8409,274714.7018,275481.4056,276247.9081,277014.4072,276257.2989,Mapping
Blocked,m160,tile,18,m160cling.wav,None,730.6653131,202,270899.0311,277781.0528,263948.4605,264714.7528,265481.89,266248.0478,267015.9252,267782.1621,271665.3287,272414.9364,273180.9504,273947.8409,274714.7018,275481.4056,276247.9081,277014.4072,277023.2489,Mapping
Blocked,m160,tile,18,m160tile.wav,None,729.6153605,202,270899.0311,277781.0528,278547.6635,264714.7528,265481.89,266248.0478,267015.9252,267782.1621,271665.3287,272414.9364,273180.9504,273947.8409,274714.7018,275481.4056,276247.9081,277014.4072,277790.064,Mapping
Blocked,m160,tile,18,m160bluff.wav,space,365.4946634,202,270899.0311,277781.0528,278547.6635,279314.8363,265481.89,266248.0478,267015.9252,267782.1621,271665.3287,272414.9364,273180.9504,273947.8409,274714.7018,275481.4056,276247.9081,277014.4072,278556.8497,Mapping
Blocked,m160,tile,18,m160tile.wav,None,725.9983434,202,270899.0311,277781.0528,278547.6635,279314.8363,280080.9493,266248.0478,267015.9252,267782.1621,271665.3287,272414.9364,273180.9504,273947.8409,274714.7018,275481.4056,276247.9081,277014.4072,279324.6377,Mapping
Blocked,m160,tile,18,m160cave.wav,space,672.3543196,202,270899.0311,277781.0528,278547.6635,279314.8363,280080.9493,280847.8089,267015.9252,267782.1621,271665.3287,272414.9364,273180.9504,273947.8409,274714.7018,275481.4056,276247.9081,277014.4072,280089.9573,Mapping
Blocked,m160,tile,18,m160tile.wav,None,729.7810777,202,270899.0311,277781.0528,278547.6635,279314.8363,280080.9493,280847.8089,281615.1366,267782.1621,271665.3287,272414.9364,273180.9504,273947.8409,274714.7018,275481.4056,276247.9081,277014.4072,280851.424,Mapping
Blocked,m160,tile,18,m160jaw.wav,space,429.8481373,202,270899.0311,277781.0528,278547.6635,279314.8363,280080.9493,280847.8089,281615.1366,282381.7293,271665.3287,272414.9364,273180.9504,273947.8409,274714.7018,275481.4056,276247.9081,277014.4072,281692.4166,Mapping
Blocked,m160,cave,12,m160gnash.wav,None,720.4220956,202,285498.3798,277781.0528,278547.6635,279314.8363,280080.9493,280847.8089,281615.1366,282381.7293,271665.3287,272414.9364,273180.9504,273947.8409,274714.7018,275481.4056,276247.9081,277014.4072,282391.3734,Mapping
Blocked,m160,cave,12,m160dime.wav,None,721.4902891,202,285498.3798,277781.0528,278547.6635,279314.8363,280080.9493,280847.8089,281615.1366,282381.7293,286264.4593,272414.9364,273180.9504,273947.8409,274714.7018,275481.4056,276247.9081,277014.4072,285508.072,Mapping
Blocked,m160,cave,12,m160romp.wav,None,721.8711907,202,285498.3798,277781.0528,278547.6635,279314.8363,280080.9493,280847.8089,281615.1366,282381.7293,286264.4593,287031.117,273180.9504,273947.8409,274714.7018,275481.4056,276247.9081,277014.4072,286273.319,Mapping
Blocked,m160,cave,12,m160gnash.wav,None,721.0970209,202,285498.3798,277781.0528,278547.6635,279314.8363,280080.9493,280847.8089,281615.1366,282381.7293,286264.4593,287031.117,287781.4739,273947.8409,274714.7018,275481.4056,276247.9081,277014.4072,287039.9718,Mapping
Blocked,m160,cave,12,m160done.wav,None,736.1958032,202,285498.3798,277781.0528,278547.6635,279314.8363,280080.9493,280847.8089,281615.1366,282381.7293,286264.4593,287031.117,287781.4739,288564.4788,274714.7018,275481.4056,276247.9081,277014.4072,287790.5302,Mapping
Blocked,m160,cave,12,m160cave.wav,None,723.1137576,202,285498.3798,277781.0528,278547.6635,279314.8363,280080.9493,280847.8089,281615.1366,282381.7293,286264.4593,287031.117,287781.4739,288564.4788,289331.5456,275481.4056,276247.9081,277014.4072,288573.1307,Mapping
Blocked,m160,cave,12,m160priest.wav,space,381.2352894,202,285498.3798,277781.0528,278547.6635,279314.8363,280080.9493,280847.8089,281615.1366,282381.7293,286264.4593,287031.117,287781.4739,288564.4788,289331.5456,290081.1397,276247.9081,277014.4072,289340.9092,Mapping
Blocked,m160,cave,12,m160depth.wav,None,736.7297453,202,285498.3798,277781.0528,278547.6635,279314.8363,280080.9493,280847.8089,281615.1366,282381.7293,286264.4593,287031.117,287781.4739,288564.4788,289331.5456,290081.1397,290847.6082,277014.4072,290089.9066,Mapping
Blocked,m160,cave,12,m160cave.wav,None,735.7001984,202,285498.3798,277781.0528,278547.6635,279314.8363,280080.9493,280847.8089,281615.1366,282381.7293,286264.4593,287031.117,287781.4739,288564.4788,289331.5456,290081.1397,290847.6082,291614.1992,290856.6073,Mapping
Blocked,m160,cave,12,m160cling.wav,space,595.1457336,202,285498.3798,292380.744,278547.6635,279314.8363,280080.9493,280847.8089,281615.1366,282381.7293,286264.4593,287031.117,287781.4739,288564.4788,289331.5456,290081.1397,290847.6082,291614.1992,291622.941,Mapping
Blocked,m160,cave,12,m160depth.wav,None,733.9580078,202,285498.3798,292380.744,293147.7959,279314.8363,280080.9493,280847.8089,281615.1366,282381.7293,286264.4593,287031.117,287781.4739,288564.4788,289331.5456,290081.1397,290847.6082,291614.1992,292389.5623,Mapping
Blocked,m160,cave,12,m160cave.wav,None,732.6192874,202,285498.3798,292380.744,293147.7959,293914.4629,280080.9493,280847.8089,281615.1366,282381.7293,286264.4593,287031.117,287781.4739,288564.4788,289331.5456,290081.1397,290847.6082,291614.1992,293156.8043,Mapping
Blocked,m160,cave,12,m160priest.wav,space,390.0130251,202,285498.3798,292380.744,293147.7959,293914.4629,294681.0158,280847.8089,281615.1366,282381.7293,286264.4593,287031.117,287781.4739,288564.4788,289331.5456,290081.1397,290847.6082,291614.1992,293924.0476,Mapping
Blocked,m160,cave,12,m160greet.wav,None,729.7300636,202,285498.3798,292380.744,293147.7959,293914.4629,294681.0158,295447.7607,281615.1366,282381.7293,286264.4593,287031.117,287781.4739,288564.4788,289331.5456,290081.1397,290847.6082,291614.1992,294690.0273,Mapping
Blocked,m160,cave,12,m160cave.wav,None,728.7750277,202,285498.3798,292380.744,293147.7959,293914.4629,294681.0158,295447.7607,296214.1878,282381.7293,286264.4593,287031.117,287781.4739,288564.4788,289331.5456,290081.1397,290847.6082,291614.1992,295456.8229,Mapping
Blocked,m160,cave,12,m160ball.wav,space,354.9187756,202,285498.3798,292380.744,293147.7959,293914.4629,294681.0158,295447.7607,296214.1878,296980.698,286264.4593,287031.117,287781.4739,288564.4788,289331.5456,290081.1397,290847.6082,291614.1992,296223.113,Mapping
Blocked,m160,tile,14,m160lash.wav,None,726.8383671,202,300114.5688,292380.744,293147.7959,293914.4629,294681.0158,295447.7607,296214.1878,296980.698,286264.4593,287031.117,287781.4739,288564.4788,289331.5456,290081.1397,290847.6082,291614.1992,296989.587,Mapping
Blocked,m160,tile,14,m160done.wav,None,721.334775,202,300114.5688,292380.744,293147.7959,293914.4629,294681.0158,295447.7607,296214.1878,296980.698,300880.8409,287031.117,287781.4739,288564.4788,289331.5456,290081.1397,290847.6082,291614.1992,300124.1451,Mapping
Blocked,m160,tile,14,m160park.wav,None,721.7861679,202,300114.5688,292380.744,293147.7959,293914.4629,294681.0158,295447.7607,296214.1878,296980.698,300880.8409,301648.5724,287781.4739,288564.4788,289331.5456,290081.1397,290847.6082,291614.1992,300889.619,Mapping
Blocked,m160,tile,14,m160tile.wav,None,718.5178981,202,300114.5688,292380.744,293147.7959,293914.4629,294681.0158,295447.7607,296214.1878,296980.698,300880.8409,301648.5724,302414.3984,288564.4788,289331.5456,290081.1397,290847.6082,291614.1992,301658.739,Mapping
Blocked,m160,tile,14,m160cling.wav,space,482.4097455,202,300114.5688,292380.744,293147.7959,293914.4629,294681.0158,295447.7607,296214.1878,296980.698,300880.8409,301648.5724,302414.3984,303163.9685,289331.5456,290081.1397,290847.6082,291614.1992,302423.5082,Mapping
Blocked,m160,tile,14,m160depth.wav,None,735.6958701,202,300114.5688,292380.744,293147.7959,293914.4629,294681.0158,295447.7607,296214.1878,296980.698,300880.8409,301648.5724,302414.3984,303163.9685,303930.837,290081.1397,290847.6082,291614.1992,303173.0006,Mapping
Blocked,m160,tile,14,m160tile.wav,None,734.8236921,202,300114.5688,292380.744,293147.7959,293914.4629,294681.0158,295447.7607,296214.1878,296980.698,300880.8409,301648.5724,302414.3984,303163.9685,303930.837,304697.2567,290847.6082,291614.1992,303939.9156,Mapping
Blocked,m160,tile,14,m160jolt.wav,space,423.8362643,202,300114.5688,292380.744,293147.7959,293914.4629,294681.0158,295447.7607,296214.1878,296980.698,300880.8409,301648.5724,302414.3984,303163.9685,303930.837,304697.2567,305464.2331,291614.1992,304706.0425,Mapping
Blocked,m160,tile,14,m160ball.wav,None,732.1762424,202,300114.5688,292380.744,293147.7959,293914.4629,294681.0158,295447.7607,296214.1878,296980.698,300880.8409,301648.5724,302414.3984,303163.9685,303930.837,304697.2567,305464.2331,306230.4592,305473.4011,Mapping
Blocked,m160,tile,14,m160lash.wav,None,732.1845898,202,300114.5688,306997.3699,293147.7959,293914.4629,294681.0158,295447.7607,296214.1878,296980.698,300880.8409,301648.5724,302414.3984,303163.9685,303930.837,304697.2567,305464.2331,306230.4592,306239.33,Mapping
Blocked,m160,tile,14,m160tile.wav,None,731.1837962,202,300114.5688,306997.3699,307764.1676,293914.4629,294681.0158,295447.7607,296214.1878,296980.698,300880.8409,301648.5724,302414.3984,303163.9685,303930.837,304697.2567,305464.2331,306230.4592,307006.2159,Mapping
Blocked,m160,tile,14,m160knife.wav,space,396.1111577,202,300114.5688,306997.3699,307764.1676,308530.8303,294681.0158,295447.7607,296214.1878,296980.698,300880.8409,301648.5724,302414.3984,303163.9685,303930.837,304697.2567,305464.2331,306230.4592,307773.7177,Mapping
Blocked,m160,tile,14,m160tile.wav,None,728.6185864,202,300114.5688,306997.3699,307764.1676,308530.8303,309297.5028,295447.7607,296214.1878,296980.698,300880.8409,301648.5724,302414.3984,303163.9685,303930.837,304697.2567,305464.2331,306230.4592,308539.7982,Mapping
Blocked,m160,tile,14,m160reek.wav,space,407.3848492,202,300114.5688,306997.3699,307764.1676,308530.8303,309297.5028,310063.9333,296214.1878,296980.698,300880.8409,301648.5724,302414.3984,303163.9685,303930.837,304697.2567,305464.2331,306230.4592,309306.4352,Mapping
Blocked,m160,tile,14,m160cave.wav,None,726.365332,202,300114.5688,306997.3699,307764.1676,308530.8303,309297.5028,310063.9333,310830.6903,296980.698,300880.8409,301648.5724,302414.3984,303163.9685,303930.837,304697.2567,305464.2331,306230.4592,310072.6603,Mapping
Blocked,m160,tile,14,m160knife.wav,None,724.8012247,202,300114.5688,306997.3699,307764.1676,308530.8303,309297.5028,310063.9333,310830.6903,311598.1923,300880.8409,301648.5724,302414.3984,303163.9685,303930.837,304697.2567,305464.2331,306230.4592,310840.1893,Mapping
Blocked,m160,ball,4,m160jaw.wav,None,728.6584699,202,314731.0221,306997.3699,307764.1676,308530.8303,309297.5028,310063.9333,310830.6903,311598.1923,300880.8409,301648.5724,302414.3984,303163.9685,303930.837,304697.2567,305464.2331,306230.4592,311602.4231,Mapping
Blocked,m160,ball,4,m160ball.wav,None,720.9374872,202,314731.0221,306997.3699,307764.1676,308530.8303,309297.5028,310063.9333,310830.6903,311598.1923,315498.0224,301648.5724,302414.3984,303163.9685,303930.837,304697.2567,305464.2331,306230.4592,314740.9691,Mapping
Blocked,m160,ball,4,m160tile.wav,space,374.1063736,202,314731.0221,306997.3699,307764.1676,308530.8303,309297.5028,310063.9333,310830.6903,311598.1923,315498.0224,316247.1422,302414.3984,303163.9685,303930.837,304697.2567,305464.2331,306230.4592,315507.5984,Mapping
Blocked,m160,ball,4,m160ball.wav,None,736.5853614,202,314731.0221,306997.3699,307764.1676,308530.8303,309297.5028,310063.9333,310830.6903,311598.1923,315498.0224,316247.1422,317013.5832,303163.9685,303930.837,304697.2567,305464.2331,306230.4592,316255.9237,Mapping
Blocked,m160,ball,4,m160gnash.wav,space,371.4227504,202,314731.0221,306997.3699,307764.1676,308530.8303,309297.5028,310063.9333,310830.6903,311598.1923,315498.0224,316247.1422,317013.5832,317780.5464,303930.837,304697.2567,305464.2331,306230.4592,317022.2252,Mapping
Blocked,m160,ball,4,m160done.wav,None,733.4067514,202,314731.0221,306997.3699,307764.1676,308530.8303,309297.5028,310063.9333,310830.6903,311598.1923,315498.0224,316247.1422,317013.5832,317780.5464,318546.9694,304697.2567,305464.2331,306230.4592,317789.5693,Mapping
Blocked,m160,ball,4,m160ball.wav,None,733.4045875,202,314731.0221,306997.3699,307764.1676,308530.8303,309297.5028,310063.9333,310830.6903,311598.1923,315498.0224,316247.1422,317013.5832,317780.5464,318546.9694,319313.6745,305464.2331,306230.4592,318555.6062,Mapping
Blocked,m160,ball,4,m160cling.wav,space,359.1074543,202,314731.0221,306997.3699,307764.1676,308530.8303,309297.5028,310063.9333,310830.6903,311598.1923,315498.0224,316247.1422,317013.5832,317780.5464,318546.9694,319313.6745,320080.291,306230.4592,319322.5057,Mapping
Blocked,m160,ball,4,m160done.wav,None,730.6108982,202,314731.0221,306997.3699,307764.1676,308530.8303,309297.5028,310063.9333,310830.6903,311598.1923,315498.0224,316247.1422,317013.5832,317780.5464,318546.9694,319313.6745,320080.291,320847.4666,320089.0394,Mapping
Blocked,m160,ball,4,m160depth.wav,None,729.6886346,202,314731.0221,321614.2808,307764.1676,308530.8303,309297.5028,310063.9333,310830.6903,311598.1923,315498.0224,316247.1422,317013.5832,317780.5464,318546.9694,319313.6745,320080.291,320847.4666,320856.2833,Mapping
Blocked,m160,ball,4,m160jolt.wav,None,728.6161128,202,314731.0221,321614.2808,322380.2632,308530.8303,309297.5028,310063.9333,310830.6903,311598.1923,315498.0224,316247.1422,317013.5832,317780.5464,318546.9694,319313.6745,320080.291,320847.4666,321623.2851,Mapping
Blocked,m160,ball,4,m160ball.wav,None,728.8297517,202,314731.0221,321614.2808,322380.2632,323147.2623,309297.5028,310063.9333,310830.6903,311598.1923,315498.0224,316247.1422,317013.5832,317780.5464,318546.9694,319313.6745,320080.291,320847.4666,322389.0586,Mapping
Blocked,m160,ball,4,m160greet.wav,space,389.1408476,202,314731.0221,321614.2808,322380.2632,323147.2623,323913.8102,310063.9333,310830.6903,311598.1923,315498.0224,316247.1422,317013.5832,317780.5464,318546.9694,319313.6745,320080.291,320847.4666,323156.4002,Mapping
Blocked,m160,ball,4,m160park.wav,None,726.3180283,202,314731.0221,321614.2808,322380.2632,323147.2623,323913.8102,324680.4822,310830.6903,311598.1923,315498.0224,316247.1422,317013.5832,317780.5464,318546.9694,319313.6745,320080.291,320847.4666,323922.8687,Mapping
Blocked,m160,ball,4,m160jaw.wav,None,725.0433071,202,314731.0221,321614.2808,322380.2632,323147.2623,323913.8102,324680.4822,325447.8624,311598.1923,315498.0224,316247.1422,317013.5832,317780.5464,318546.9694,319313.6745,320080.291,320847.4666,324690.0934,Mapping
Blocked,m160,ball,4,m160tile.wav,None,723.6810904,202,314731.0221,321614.2808,322380.2632,323147.2623,323913.8102,324680.4822,325447.8624,326214.2567,315498.0224,316247.1422,317013.5832,317780.5464,318546.9694,319313.6745,320080.291,320847.4666,325457.4551,Mapping
Blocked,m160,done,22,m160lash.wav,None,723.6823267,202,329347.7657,321614.2808,322380.2632,323147.2623,323913.8102,324680.4822,325447.8624,326214.2567,315498.0224,316247.1422,317013.5832,317780.5464,318546.9694,319313.6745,320080.291,320847.4666,326223.6188,Mapping
Blocked,m160,done,22,m160jaw.wav,None,721.4967813,202,329347.7657,321614.2808,322380.2632,323147.2623,323913.8102,324680.4822,325447.8624,326214.2567,330113.742,316247.1422,317013.5832,317780.5464,318546.9694,319313.6745,320080.291,320847.4666,329357.2979,Mapping
Blocked,m160,done,22,m160priest.wav,None,722.158412,202,329347.7657,321614.2808,322380.2632,323147.2623,323913.8102,324680.4822,325447.8624,326214.2567,330113.742,330880.8258,317013.5832,317780.5464,318546.9694,319313.6745,320080.291,320847.4666,330122.688,Mapping
Blocked,m160,done,22,m160gnash.wav,None,720.1138502,202,329347.7657,321614.2808,322380.2632,323147.2623,323913.8102,324680.4822,325447.8624,326214.2567,330113.742,330880.8258,331647.7769,317780.5464,318546.9694,319313.6745,320080.291,320847.4666,330890.7308,Mapping
Blocked,m160,done,22,m160done.wav,None,719.5424978,202,329347.7657,321614.2808,322380.2632,323147.2623,323913.8102,324680.4822,325447.8624,326214.2567,330113.742,330880.8258,331647.7769,332413.7445,318546.9694,319313.6745,320080.291,320847.4666,331657.2617,Mapping
Blocked,m160,done,22,m160romp.wav,space,434.5701393,202,329347.7657,321614.2808,322380.2632,323147.2623,323913.8102,324680.4822,325447.8624,326214.2567,330113.742,330880.8258,331647.7769,332413.7445,333163.543,319313.6745,320080.291,320847.4666,332422.8064,Mapping
Blocked,m160,done,22,m160cad.wav,None,734.4591776,202,329347.7657,321614.2808,322380.2632,323147.2623,323913.8102,324680.4822,325447.8624,326214.2567,330113.742,330880.8258,331647.7769,332413.7445,333163.543,333930.2762,320080.291,320847.4666,333173.2106,Mapping
Blocked,m160,done,22,m160knife.wav,None,734.3373634,202,329347.7657,321614.2808,322380.2632,323147.2623,323913.8102,324680.4822,325447.8624,326214.2567,330113.742,330880.8258,331647.7769,332413.7445,333163.543,333930.2762,334697.227,320847.4666,333939.1828,Mapping
Blocked,m160,done,22,m160jaw.wav,None,733.4308671,202,329347.7657,321614.2808,322380.2632,323147.2623,323913.8102,324680.4822,325447.8624,326214.2567,330113.742,330880.8258,331647.7769,332413.7445,333163.543,333930.2762,334697.227,335463.3777,334706.18,Mapping
Blocked,m160,done,22,m160done.wav,None,733.548353,202,329347.7657,336230.3625,322380.2632,323147.2623,323913.8102,324680.4822,325447.8624,326214.2567,330113.742,330880.8258,331647.7769,332413.7445,333163.543,333930.2762,334697.227,335463.3777,335472.0741,Mapping
Blocked,m160,done,22,m160cling.wav,space,336.9221129,202,329347.7657,336230.3625,336997.1315,323147.2623,323913.8102,324680.4822,325447.8624,326214.2567,330113.742,330880.8258,331647.7769,332413.7445,333163.543,333930.2762,334697.227,335463.3777,336240.3995,Mapping
Blocked,m160,done,22,m160done.wav,None,730.1709452,202,329347.7657,336230.3625,336997.1315,337763.6717,323913.8102,324680.4822,325447.8624,326214.2567,330113.742,330880.8258,331647.7769,332413.7445,333163.543,333930.2762,334697.227,335463.3777,337006.2113,Mapping
Blocked,m160,done,22,m160cling.wav,space,396.526068,202,329347.7657,336230.3625,336997.1315,337763.6717,338529.9025,324680.4822,325447.8624,326214.2567,330113.742,330880.8258,331647.7769,332413.7445,333163.543,333930.2762,334697.227,335463.3777,337772.7206,Mapping
Blocked,m160,done,22,m160knife.wav,None,728.5496406,202,329347.7657,336230.3625,336997.1315,337763.6717,338529.9025,339296.9955,325447.8624,326214.2567,330113.742,330880.8258,331647.7769,332413.7445,333163.543,333930.2762,334697.227,335463.3777,338538.729,Mapping
Blocked,m160,done,22,m160done.wav,None,727.5479194,202,329347.7657,336230.3625,336997.1315,337763.6717,338529.9025,339296.9955,340063.5354,326214.2567,330113.742,330880.8258,331647.7769,332413.7445,333163.543,333930.2762,334697.227,335463.3777,339306.1173,Mapping
Blocked,m160,done,22,m160park.wav,space,512.5949434,202,329347.7657,336230.3625,336997.1315,337763.6717,338529.9025,339296.9955,340063.5354,340829.9118,330113.742,330880.8258,331647.7769,332413.7445,333163.543,333930.2762,334697.227,335463.3777,340072.6412,Mapping
Blocked,m160,ball,6,m160bluff.wav,None,725.7095757,202,343964.1115,336230.3625,336997.1315,337763.6717,338529.9025,339296.9955,340063.5354,340829.9118,330113.742,330880.8258,331647.7769,332413.7445,333163.543,333930.2762,334697.227,335463.3777,340838.6728,Mapping
Blocked,m160,ball,6,m160tile.wav,None,721.2043037,202,343964.1115,336230.3625,336997.1315,337763.6717,338529.9025,339296.9955,340063.5354,340829.9118,344730.3129,330880.8258,331647.7769,332413.7445,333163.543,333930.2762,334697.227,335463.3777,343973.4504,Mapping
Blocked,m160,ball,6,m160done.wav,None,721.6488947,202,343964.1115,336230.3625,336997.1315,337763.6717,338529.9025,339296.9955,340063.5354,340829.9118,344730.3129,345496.7844,331647.7769,332413.7445,333163.543,333930.2762,334697.227,335463.3777,344739.1135,Mapping
Blocked,m160,ball,6,m160depth.wav,None,721.2454239,202,343964.1115,336230.3625,336997.1315,337763.6717,338529.9025,339296.9955,340063.5354,340829.9118,344730.3129,345496.7844,346263.3373,332413.7445,333163.543,333930.2762,334697.227,335463.3777,345505.8284,Mapping
Blocked,m160,ball,6,m160ball.wav,None,720.5980155,202,343964.1115,336230.3625,336997.1315,337763.6717,338529.9025,339296.9955,340063.5354,340829.9118,344730.3129,345496.7844,346263.3373,347029.9592,333163.543,333930.2762,334697.227,335463.3777,346272.5464,Mapping
Blocked,m160,ball,6,m160cave.wav,space,378.2505309,202,343964.1115,336230.3625,336997.1315,337763.6717,338529.9025,339296.9955,340063.5354,340829.9118,344730.3129,345496.7844,346263.3373,347029.9592,347780.0208,333930.2762,334697.227,335463.3777,347038.8572,Mapping
Blocked,m160,ball,6,m160ball.wav,None,734.6922937,202,343964.1115,336230.3625,336997.1315,337763.6717,338529.9025,339296.9955,340063.5354,340829.9118,344730.3129,345496.7844,346263.3373,347029.9592,347780.0208,348546.4064,334697.227,335463.3777,347789.0116,Mapping
Blocked,m160,ball,6,m160romp.wav,space,469.9618141,202,343964.1115,336230.3625,336997.1315,337763.6717,338529.9025,339296.9955,340063.5354,340829.9118,344730.3129,345496.7844,346263.3373,347029.9592,347780.0208,348546.4064,349313.403,335463.3777,348555.1332,Mapping
Blocked,m160,ball,6,m160cling.wav,None,732.0640124,202,343964.1115,336230.3625,336997.1315,337763.6717,338529.9025,339296.9955,340063.5354,340829.9118,344730.3129,345496.7844,346263.3373,347029.9592,347780.0208,348546.4064,349313.403,350080.0208,349322.3455,Mapping
Blocked,m160,ball,6,m160romp.wav,None,731.5170849,202,343964.1115,350846.7691,336997.1315,337763.6717,338529.9025,339296.9955,340063.5354,340829.9118,344730.3129,345496.7844,346263.3373,347029.9592,347780.0208,348546.4064,349313.403,350080.0208,350089.0289,Mapping
Blocked,m160,ball,6,m160cave.wav,None,731.5013171,202,343964.1115,350846.7691,351613.4933,337763.6717,338529.9025,339296.9955,340063.5354,340829.9118,344730.3129,345496.7844,346263.3373,347029.9592,347780.0208,348546.4064,349313.403,350080.0208,350855.6433,Mapping
Blocked,m160,ball,6,m160ball.wav,None,730.2704984,202,343964.1115,350846.7691,351613.4933,352380.0638,338529.9025,339296.9955,340063.5354,340829.9118,344730.3129,345496.7844,346263.3373,347029.9592,347780.0208,348546.4064,349313.403,350080.0208,351623.0817,Mapping
Blocked,m160,ball,6,m160dime.wav,space,356.2775915,202,343964.1115,350846.7691,351613.4933,352380.0638,353146.6928,339296.9955,340063.5354,340829.9118,344730.3129,345496.7844,346263.3373,347029.9592,347780.0208,348546.4064,349313.403,350080.0208,352388.7204,Mapping
Blocked,m160,ball,6,m160cling.wav,None,732.2408599,202,343964.1115,350846.7691,351613.4933,352380.0638,353146.6928,353913.0407,340063.5354,340829.9118,344730.3129,345496.7844,346263.3373,347029.9592,347780.0208,348546.4064,349313.403,350080.0208,353155.7911,Mapping
Blocked,m160,ball,6,m160ball.wav,None,732.4807779,202,343964.1115,350846.7691,351613.4933,352380.0638,353146.6928,353913.0407,354679.6511,340829.9118,344730.3129,345496.7844,346263.3373,347029.9592,347780.0208,348546.4064,349313.403,350080.0208,353921.9214,Mapping
Blocked,m160,ball,6,m160depth.wav,space,424.5145903,202,343964.1115,350846.7691,351613.4933,352380.0638,353146.6928,353913.0407,354679.6511,355446.3196,344730.3129,345496.7844,346263.3373,347029.9592,347780.0208,348546.4064,349313.403,350080.0208,354688.4839,Mapping
Blocked,m160,cave,9,m160lash.wav,None,730.4584761,202,358580.0881,350846.7691,351613.4933,352380.0638,353146.6928,353913.0407,354679.6511,355446.3196,344730.3129,345496.7844,346263.3373,347029.9592,347780.0208,348546.4064,349313.403,350080.0208,355455.004,Mapping
Blocked,m160,cave,9,m160bluff.wav,None,721.3428132,202,358580.0881,350846.7691,351613.4933,352380.0638,353146.6928,353913.0407,354679.6511,355446.3196,359347.3218,345496.7844,346263.3373,347029.9592,347780.0208,348546.4064,349313.403,350080.0208,358589.9241,Mapping
Blocked,m160,cave,9,m160cave.wav,None,720.7745533,202,358580.0881,350846.7691,351613.4933,352380.0638,353146.6928,353913.0407,354679.6511,355446.3196,359347.3218,360113.7739,346263.3373,347029.9592,347780.0208,348546.4064,349313.403,350080.0208,359356.7389,Mapping
Blocked,m160,cave,9,m160dime.wav,space,525.118622,202,358580.0881,350846.7691,351613.4933,352380.0638,353146.6928,353913.0407,354679.6511,355446.3196,359347.3218,360113.7739,360863.0959,347029.9592,347780.0208,348546.4064,349313.403,350080.0208,360123.779,Mapping
Blocked,m160,cave,9,m160cave.wav,None,735.948774,202,358580.0881,350846.7691,351613.4933,352380.0638,353146.6928,353913.0407,354679.6511,355446.3196,359347.3218,360113.7739,360863.0959,361629.7051,347780.0208,348546.4064,349313.403,350080.0208,360872.3838,Mapping
Blocked,m160,cave,9,m160cad.wav,space,466.0696327,202,358580.0881,350846.7691,351613.4933,352380.0638,353146.6928,353913.0407,354679.6511,355446.3196,359347.3218,360113.7739,360863.0959,361629.7051,362396.5353,348546.4064,349313.403,350080.0208,361638.7475,Mapping
Blocked,m160,cave,9,m160tile.wav,None,733.397786,202,358580.0881,350846.7691,351613.4933,352380.0638,353146.6928,353913.0407,354679.6511,355446.3196,359347.3218,360113.7739,360863.0959,361629.7051,362396.5353,363162.9006,349313.403,350080.0208,362405.5521,Mapping
Blocked,m160,cave,9,m160cave.wav,None,733.4855907,202,358580.0881,350846.7691,351613.4933,352380.0638,353146.6928,353913.0407,354679.6511,355446.3196,359347.3218,360113.7739,360863.0959,361629.7051,362396.5353,363162.9006,363929.4578,350080.0208,363171.6715,Mapping
Blocked,m160,cave,9,m160bluff.wav,space,350.4873961,202,358580.0881,350846.7691,351613.4933,352380.0638,353146.6928,353913.0407,354679.6511,355446.3196,359347.3218,360113.7739,360863.0959,361629.7051,362396.5353,363162.9006,363929.4578,364696.7264,363938.3076,Mapping
Blocked,m160,cave,9,m160gnash.wav,None,729.6450413,202,358580.0881,365463.0873,351613.4933,352380.0638,353146.6928,353913.0407,354679.6511,355446.3196,359347.3218,360113.7739,360863.0959,361629.7051,362396.5353,363162.9006,363929.4578,364696.7264,364706.1142,Mapping
Blocked,m160,cave,9,m160cave.wav,None,729.5346665,202,358580.0881,365463.0873,366229.7002,352380.0638,353146.6928,353913.0407,354679.6511,355446.3196,359347.3218,360113.7739,360863.0959,361629.7051,362396.5353,363162.9006,363929.4578,364696.7264,365472.3431,Mapping
Blocked,m160,cave,9,m160greet.wav,space,370.0429103,202,358580.0881,365463.0873,366229.7002,366996.4321,353146.6928,353913.0407,354679.6511,355446.3196,359347.3218,360113.7739,360863.0959,361629.7051,362396.5353,363162.9006,363929.4578,364696.7264,366238.7281,Mapping
Blocked,m160,cave,9,m160priest.wav,None,726.8899991,202,358580.0881,365463.0873,366229.7002,366996.4321,367763.2614,353913.0407,354679.6511,355446.3196,359347.3218,360113.7739,360863.0959,361629.7051,362396.5353,363162.9006,363929.4578,364696.7264,367005.5463,Mapping
Blocked,m160,cave,9,m160dime.wav,None,726.1588043,202,358580.0881,365463.0873,366229.7002,366996.4321,367763.2614,368529.7602,354679.6511,355446.3196,359347.3218,360113.7739,360863.0959,361629.7051,362396.5353,363162.9006,363929.4578,364696.7264,367772.5805,Mapping
Blocked,m160,cave,9,m160dime.wav,None,726.3121544,202,358580.0881,365463.0873,366229.7002,366996.4321,367763.2614,368529.7602,369296.4915,355446.3196,359347.3218,360113.7739,360863.0959,361629.7051,362396.5353,363162.9006,363929.4578,364696.7264,368539.1331,Mapping
Blocked,m160,cave,9,m160romp.wav,None,726.3004053,202,358580.0881,365463.0873,366229.7002,366996.4321,367763.2614,368529.7602,369296.4915,370062.747,359347.3218,360113.7739,360863.0959,361629.7051,362396.5353,363162.9006,363929.4578,364696.7264,369305.4922,Mapping
Blocked,m160,done,21,m160reek.wav,None,726.6009222,202,373196.794,365463.0873,366229.7002,366996.4321,367763.2614,368529.7602,369296.4915,370062.747,359347.3218,360113.7739,360863.0959,361629.7051,362396.5353,363162.9006,363929.4578,364696.7264,370071.4001,Mapping
Blocked,m160,done,21,m160done.wav,None,721.6192144,202,373196.794,365463.0873,366229.7002,366996.4321,367763.2614,368529.7602,369296.4915,370062.747,373963.0275,360113.7739,360863.0959,361629.7051,362396.5353,363162.9006,363929.4578,364696.7264,373206.5818,Mapping
Blocked,m160,done,21,m160cave.wav,space,323.2619134,202,373196.794,365463.0873,366229.7002,366996.4321,367763.2614,368529.7602,369296.4915,370062.747,373963.0275,374729.5814,360863.0959,361629.7051,362396.5353,363162.9006,363929.4578,364696.7264,373973.3533,Mapping
Blocked,m160,done,21,m160done.wav,None,720.7090086,202,373196.794,365463.0873,366229.7002,366996.4321,367763.2614,368529.7602,369296.4915,370062.747,373963.0275,374729.5814,375496.884,361629.7051,362396.5353,363162.9006,363929.4578,364696.7264,374738.4713,Mapping
Blocked,m160,done,21,m160priest.wav,space,326.1149637,202,373196.794,365463.0873,366229.7002,366996.4321,367763.2614,368529.7602,369296.4915,370062.747,373963.0275,374729.5814,375496.884,376245.9896,362396.5353,363162.9006,363929.4578,364696.7264,375506.5079,Mapping
Blocked,m160,done,21,m160greet.wav,None,735.2617909,202,373196.794,365463.0873,366229.7002,366996.4321,367763.2614,368529.7602,369296.4915,370062.747,373963.0275,374729.5814,375496.884,376245.9896,377012.6507,363162.9006,363929.4578,364696.7264,376254.7297,Mapping
Blocked,m160,done,21,m160done.wav,None,734.6088174,202,373196.794,365463.0873,366229.7002,366996.4321,367763.2614,368529.7602,369296.4915,370062.747,373963.0275,374729.5814,375496.884,376245.9896,377012.6507,377779.6087,363929.4578,364696.7264,377021.5345,Mapping
Blocked,m160,done,21,m160ball.wav,space,363.9546717,202,373196.794,365463.0873,366229.7002,366996.4321,367763.2614,368529.7602,369296.4915,370062.747,373963.0275,374729.5814,375496.884,376245.9896,377012.6507,377779.6087,378546.2868,364696.7264,377788.6418,Mapping
Blocked,m160,done,21,m160tile.wav,None,730.2247412,202,373196.794,365463.0873,366229.7002,366996.4321,367763.2614,368529.7602,369296.4915,370062.747,373963.0275,374729.5814,375496.884,376245.9896,377012.6507,377779.6087,378546.2868,379312.5571,378556.5554,Mapping
Blocked,m160,done,21,m160jaw.wav,None,731.8200748,202,373196.794,380079.49,366229.7002,366996.4321,367763.2614,368529.7602,369296.4915,370062.747,373963.0275,374729.5814,375496.884,376245.9896,377012.6507,377779.6087,378546.2868,379312.5571,379321.2715,Mapping
Blocked,m160,done,21,m160knife.wav,None,730.9967466,202,373196.794,380079.49,380845.8048,366996.4321,367763.2614,368529.7602,369296.4915,370062.747,373963.0275,374729.5814,375496.884,376245.9896,377012.6507,377779.6087,378546.2868,379312.5571,380088.4817,Mapping
Blocked,m160,done,21,m160ball.wav,None,731.2332639,202,373196.794,380079.49,380845.8048,381612.9628,367763.2614,368529.7602,369296.4915,370062.747,373963.0275,374729.5814,375496.884,376245.9896,377012.6507,377779.6087,378546.2868,379312.5571,380854.5504,Mapping
Blocked,m160,done,21,m160bluff.wav,None,729.9885326,202,373196.794,380079.49,380845.8048,381612.9628,382379.5299,368529.7602,369296.4915,370062.747,373963.0275,374729.5814,375496.884,376245.9896,377012.6507,377779.6087,378546.2868,379312.5571,381622.024,Mapping
Blocked,m160,done,21,m160cad.wav,None,729.4858173,202,373196.794,380079.49,380845.8048,381612.9628,382379.5299,383145.8673,369296.4915,370062.747,373963.0275,374729.5814,375496.884,376245.9896,377012.6507,377779.6087,378546.2868,379312.5571,382388.879,Mapping
Blocked,m160,done,21,m160done.wav,None,730.9073955,202,373196.794,380079.49,380845.8048,381612.9628,382379.5299,383145.8673,383912.9461,370062.747,373963.0275,374729.5814,375496.884,376245.9896,377012.6507,377779.6087,378546.2868,379312.5571,383154.4342,Mapping
Blocked,m160,done,21,m160knife.wav,space,342.0194513,202,373196.794,380079.49,380845.8048,381612.9628,382379.5299,383145.8673,383912.9461,384679.329,373963.0275,374729.5814,375496.884,376245.9896,377012.6507,377779.6087,378546.2868,379312.5571,383922.3128,Mapping
Blocked,m160,done,23,m160cave.wav,None,728.1804881,202,387812.8664,380079.49,380845.8048,381612.9628,382379.5299,383145.8673,383912.9461,384679.329,373963.0275,374729.5814,375496.884,376245.9896,377012.6507,377779.6087,378546.2868,379312.5571,384688.3046,Mapping
Blocked,m160,done,23,m160depth.wav,None,721.1180441,202,387812.8664,380079.49,380845.8048,381612.9628,382379.5299,383145.8673,383912.9461,384679.329,388579.2252,374729.5814,375496.884,376245.9896,377012.6507,377779.6087,378546.2868,379312.5571,387822.811,Mapping
Blocked,m160,done,23,m160park.wav,None,722.0186661,202,387812.8664,380079.49,380845.8048,381612.9628,382379.5299,383145.8673,383912.9461,384679.329,388579.2252,389346.5213,375496.884,376245.9896,377012.6507,377779.6087,378546.2868,379312.5571,388588.1798,Mapping
Blocked,m160,done,23,m160done.wav,None,720.3921061,202,387812.8664,380079.49,380845.8048,381612.9628,382379.5299,383145.8673,383912.9461,384679.329,388579.2252,389346.5213,390113.3485,376245.9896,377012.6507,377779.6087,378546.2868,379312.5571,389356.272,Mapping
Blocked,m160,done,23,m160romp.wav,space,349.500515,202,387812.8664,380079.49,380845.8048,381612.9628,382379.5299,383145.8673,383912.9461,384679.329,388579.2252,389346.5213,390113.3485,390862.5784,377012.6507,377779.6087,378546.2868,379312.5571,390122.8265,Mapping
Blocked,m160,done,23,m160done.wav,None,735.9583583,202,387812.8664,380079.49,380845.8048,381612.9628,382379.5299,383145.8673,383912.9461,384679.329,388579.2252,389346.5213,390113.3485,390862.5784,391628.8042,377779.6087,378546.2868,379312.5571,390871.7151,Mapping
Blocked,m160,done,23,m160romp.wav,None,736.3114338,202,387812.8664,380079.49,380845.8048,381612.9628,382379.5299,383145.8673,383912.9461,384679.329,388579.2252,389346.5213,390113.3485,390862.5784,391628.8042,392395.5438,378546.2868,379312.5571,391637.6861,Mapping
Blocked,m160,done,23,m160dime.wav,None,736.5133236,202,387812.8664,380079.49,380845.8048,381612.9628,382379.5299,383145.8673,383912.9461,384679.329,388579.2252,389346.5213,390113.3485,390862.5784,391628.8042,392395.5438,393162.5221,379312.5571,392404.2495,Mapping
Blocked,m160,done,23,m160dime.wav,space,372.8084643,202,387812.8664,380079.49,380845.8048,381612.9628,382379.5299,383145.8673,383912.9461,384679.329,388579.2252,389346.5213,390113.3485,390862.5784,391628.8042,392395.5438,393162.5221,393929.2584,393171.4607,Mapping
Blocked,m160,done,23,m160done.wav,None,733.2091904,202,387812.8664,394695.6514,380845.8048,381612.9628,382379.5299,383145.8673,383912.9461,384679.329,388579.2252,389346.5213,390113.3485,390862.5784,391628.8042,392395.5438,393162.5221,393929.2584,393938.3877,Mapping
Blocked,m160,done,23,m160depth.wav,None,733.4877551,202,387812.8664,394695.6514,395462.3664,381612.9628,382379.5299,383145.8673,383912.9461,384679.329,388579.2252,389346.5213,390113.3485,390862.5784,391628.8042,392395.5438,393162.5221,393929.2584,394704.5915,Mapping
Blocked,m160,done,23,m160gnash.wav,None,733.6324481,202,387812.8664,394695.6514,395462.3664,396229.2114,382379.5299,383145.8673,383912.9461,384679.329,388579.2252,389346.5213,390113.3485,390862.5784,391628.8042,392395.5438,393162.5221,393929.2584,395471.2359,Mapping
Blocked,m160,done,23,m160done.wav,None,732.8619887,202,387812.8664,394695.6514,395462.3664,396229.2114,396995.8945,383145.8673,383912.9461,384679.329,388579.2252,389346.5213,390113.3485,390862.5784,391628.8042,392395.5438,393162.5221,393929.2584,396238.3153,Mapping
Blocked,m160,done,23,m160lash.wav,space,435.2602144,202,387812.8664,394695.6514,395462.3664,396229.2114,396995.8945,397762.6329,383912.9461,384679.329,388579.2252,389346.5213,390113.3485,390862.5784,391628.8042,392395.5438,393162.5221,393929.2584,397004.9502,Mapping
Blocked,m160,done,23,m160lash.wav,None,729.8153955,202,387812.8664,394695.6514,395462.3664,396229.2114,396995.8945,397762.6329,398528.8061,384679.329,388579.2252,389346.5213,390113.3485,390862.5784,391628.8042,392395.5438,393162.5221,393929.2584,397772.2439,Mapping
Blocked,m160,done,23,m160romp.wav,None,731.1173244,202,387812.8664,394695.6514,395462.3664,396229.2114,396995.8945,397762.6329,398528.8061,399295.556,388579.2252,389346.5213,390113.3485,390862.5784,391628.8042,392395.5438,393162.5221,393929.2584,398537.6355,Mapping
Blocked,m160,tile,17,m160depth.wav,None,731.3665175,202,402429.6469,394695.6514,395462.3664,396229.2114,396995.8945,397762.6329,398528.8061,399295.556,388579.2252,389346.5213,390113.3485,390862.5784,391628.8042,392395.5438,393162.5221,393929.2584,399304.1674,Mapping
Blocked,m160,tile,17,m160ball.wav,None,721.0228192,202,402429.6469,394695.6514,395462.3664,396229.2114,396995.8945,397762.6329,398528.8061,399295.556,403195.6102,389346.5213,390113.3485,390862.5784,391628.8042,392395.5438,393162.5221,393929.2584,402439.5018,Mapping
Blocked,m160,tile,17,m160priest.wav,None,722.4963387,202,402429.6469,394695.6514,395462.3664,396229.2114,396995.8945,397762.6329,398528.8061,399295.556,403195.6102,403962.8405,390113.3485,390862.5784,391628.8042,392395.5438,393162.5221,393929.2584,403204.6102,Mapping
Blocked,m160,tile,17,m160depth.wav,None,721.2039949,202,402429.6469,394695.6514,395462.3664,396229.2114,396995.8945,397762.6329,398528.8061,399295.556,403195.6102,403962.8405,404728.9945,390862.5784,391628.8042,392395.5438,393162.5221,393929.2584,403972.453,Mapping
Blocked,m160,tile,17,m160park.wav,None,722.3596843,202,402429.6469,394695.6514,395462.3664,396229.2114,396995.8945,397762.6329,398528.8061,399295.556,403195.6102,403962.8405,404728.9945,405496.4187,391628.8042,392395.5438,393162.5221,393929.2584,404737.8381,Mapping
Blocked,m160,tile,17,m160priest.wav,None,721.1922458,202,402429.6469,394695.6514,395462.3664,396229.2114,396995.8945,397762.6329,398528.8061,399295.556,403195.6102,403962.8405,404728.9945,405496.4187,406262.8152,392395.5438,393162.5221,393929.2584,405505.9032,Mapping
Blocked,m160,tile,17,m160tile.wav,None,720.902551,202,402429.6469,394695.6514,395462.3664,396229.2114,396995.8945,397762.6329,398528.8061,399295.556,403195.6102,403962.8405,404728.9945,405496.4187,406262.8152,407028.8511,393162.5221,393929.2584,406272.7687,Mapping
Blocked,m160,tile,17,m160knife.wav,space,458.3740025,202,402429.6469,394695.6514,395462.3664,396229.2114,396995.8945,397762.6329,398528.8061,399295.556,403195.6102,403962.8405,404728.9945,405496.4187,406262.8152,407028.8511,407796.0573,393929.2584,407037.6836,Mapping
Blocked,m160,tile,17,m160tile.wav,None,719.250638,202,402429.6469,394695.6514,395462.3664,396229.2114,396995.8945,397762.6329,398528.8061,399295.556,403195.6102,403962.8405,404728.9945,405496.4187,406262.8152,407028.8511,407796.0573,408562.7738,407805.7984,Mapping
Blocked,m160,tile,17,m160greet.wav,space,515.7039887,202,402429.6469,409311.9066,395462.3664,396229.2114,396995.8945,397762.6329,398528.8061,399295.556,403195.6102,403962.8405,404728.9945,405496.4187,406262.8152,407028.8511,407796.0573,408562.7738,408572.342,Mapping
Blocked,m160,tile,17,m160reek.wav,None,735.5014002,202,402429.6469,409311.9066,410078.5751,396229.2114,396995.8945,397762.6329,398528.8061,399295.556,403195.6102,403962.8405,404728.9945,405496.4187,406262.8152,407028.8511,407796.0573,408562.7738,409320.902,Mapping
Blocked,m160,tile,17,m160cave.wav,None,735.6139394,202,402429.6469,409311.9066,410078.5751,410845.5933,396995.8945,397762.6329,398528.8061,399295.556,403195.6102,403962.8405,404728.9945,405496.4187,406262.8152,407028.8511,407796.0573,408562.7738,410087.4014,Mapping
Blocked,m160,tile,17,m160tile.wav,None,734.824311,202,402429.6469,409311.9066,410078.5751,410845.5933,411611.9462,397762.6329,398528.8061,399295.556,403195.6102,403962.8405,404728.9945,405496.4187,406262.8152,407028.8511,407796.0573,408562.7738,410854.6598,Mapping
Blocked,m160,tile,17,m160cave.wav,space,451.2964096,202,402429.6469,409311.9066,410078.5751,410845.5933,411611.9462,412378.611,398528.8061,399295.556,403195.6102,403962.8405,404728.9945,405496.4187,406262.8152,407028.8511,407796.0573,408562.7738,411620.6423,Mapping
Blocked,m160,tile,17,m160tile.wav,None,733.1226217,202,402429.6469,409311.9066,410078.5751,410845.5933,411611.9462,412378.611,413145.2545,399295.556,403195.6102,403962.8405,404728.9945,405496.4187,406262.8152,407028.8511,407796.0573,408562.7738,412387.5832,Mapping
Blocked,m160,tile,17,m160ball.wav,space,390.0671308,202,402429.6469,409311.9066,410078.5751,410845.5933,411611.9462,412378.611,413145.2545,413912.0214,403195.6102,403962.8405,404728.9945,405496.4187,406262.8152,407028.8511,407796.0573,408562.7738,413153.8873,Mapping
Blocked,m160,done,20,m160lash.wav,None,732.4037938,202,417046.1064,409311.9066,410078.5751,410845.5933,411611.9462,412378.611,413145.2545,413912.0214,403195.6102,403962.8405,404728.9945,405496.4187,406262.8152,407028.8511,407796.0573,408562.7738,413920.7642,Mapping
Blocked,m160,done,20,m160lash.wav,None,720.5538033,202,417046.1064,409311.9066,410078.5751,410845.5933,411611.9462,412378.611,413145.2545,413912.0214,417812.629,403962.8405,404728.9945,405496.4187,406262.8152,407028.8511,407796.0573,408562.7738,417055.6818,Mapping
Blocked,m160,done,20,m160park.wav,None,720.5698807,202,417046.1064,409311.9066,410078.5751,410845.5933,411611.9462,412378.611,413145.2545,413912.0214,417812.629,418579.4966,404728.9945,405496.4187,406262.8152,407028.8511,407796.0573,408562.7738,417822.1895,Mapping
Blocked,m160,done,20,m160greet.wav,None,720.2770934,202,417046.1064,409311.9066,410078.5751,410845.5933,411611.9462,412378.611,413145.2545,413912.0214,417812.629,418579.4966,419346.0495,405496.4187,406262.8152,407028.8511,407796.0573,408562.7738,418588.9246,Mapping
Blocked,m160,done,20,m160done.wav,None,720.613474,202,417046.1064,409311.9066,410078.5751,410845.5933,411611.9462,412378.611,413145.2545,413912.0214,417812.629,418579.4966,419346.0495,420112.9413,406262.8152,407028.8511,407796.0573,408562.7738,419355.517,Mapping
Blocked,m160,done,20,m160jaw.wav,space,349.4609413,202,417046.1064,409311.9066,410078.5751,410845.5933,411611.9462,412378.611,413145.2545,413912.0214,417812.629,418579.4966,419346.0495,420112.9413,420862.0512,407028.8511,407796.0573,408562.7738,420122.3454,Mapping
Blocked,m160,done,20,m160depth.wav,None,735.7249325,202,417046.1064,409311.9066,410078.5751,410845.5933,411611.9462,412378.611,413145.2545,413912.0214,417812.629,418579.4966,419346.0495,420112.9413,420862.0512,421628.8354,407796.0573,408562.7738,420871.618,Mapping
Blocked,m160,done,20,m160done.wav,None,736.231667,202,417046.1064,409311.9066,410078.5751,410845.5933,411611.9462,412378.611,413145.2545,413912.0214,417812.629,418579.4966,419346.0495,420112.9413,420862.0512,421628.8354,422395.3079,408562.7738,421637.7745,Mapping
Blocked,m160,done,20,m160greet.wav,space,387.5792143,202,417046.1064,409311.9066,410078.5751,410845.5933,411611.9462,412378.611,413145.2545,413912.0214,417812.629,418579.4966,419346.0495,420112.9413,420862.0512,421628.8354,422395.3079,423161.7446,422404.2192,Mapping
Blocked,m160,done,20,m160ball.wav,None,734.6446812,202,417046.1064,423928.3247,410078.5751,410845.5933,411611.9462,412378.611,413145.2545,413912.0214,417812.629,418579.4966,419346.0495,420112.9413,420862.0512,421628.8354,422395.3079,423161.7446,423170.4642,Mapping
Blocked,m160,done,20,m160done.wav,None,734.3586963,202,417046.1064,423928.3247,424695.1373,410845.5933,411611.9462,412378.611,413145.2545,413912.0214,417812.629,418579.4966,419346.0495,420112.9413,420862.0512,421628.8354,422395.3079,423161.7446,423937.4159,Mapping
Blocked,m160,done,20,m160lash.wav,space,351.8870235,202,417046.1064,423928.3247,424695.1373,425461.9215,411611.9462,412378.611,413145.2545,413912.0214,417812.629,418579.4966,419346.0495,420112.9413,420862.0512,421628.8354,422395.3079,423161.7446,424703.8554,Mapping
Blocked,m160,done,20,m160priest.wav,None,731.9873376,202,417046.1064,423928.3247,424695.1373,425461.9215,426228.6441,412378.611,413145.2545,413912.0214,417812.629,418579.4966,419346.0495,420112.9413,420862.0512,421628.8354,422395.3079,423161.7446,425470.8386,Mapping
Blocked,m160,done,20,m160done.wav,None,731.6571404,202,417046.1064,423928.3247,424695.1373,425461.9215,426228.6441,426995.3473,413145.2545,413912.0214,417812.629,418579.4966,419346.0495,420112.9413,420862.0512,421628.8354,422395.3079,423161.7446,426237.85,Mapping
Blocked,m160,done,20,m160priest.wav,space,387.3105426,202,417046.1064,423928.3247,424695.1373,425461.9215,426228.6441,426995.3473,427762.1311,413912.0214,417812.629,418579.4966,419346.0495,420112.9413,420862.0512,421628.8354,422395.3079,423161.7446,427004.4073,Mapping
Blocked,m160,done,20,m160ball.wav,None,729.0263856,202,417046.1064,423928.3247,424695.1373,425461.9215,426228.6441,426995.3473,427762.1311,428528.2914,417812.629,418579.4966,419346.0495,420112.9413,420862.0512,421628.8354,422395.3079,423161.7446,427771.4582,Mapping
Blocked,m160,cave,7,m160park.wav,None,730.4325053,202,431662.4688,423928.3247,424695.1373,425461.9215,426228.6441,426995.3473,427762.1311,428528.2914,417812.629,418579.4966,419346.0495,420112.9413,420862.0512,421628.8354,422395.3079,423161.7446,428537.0706,Mapping
Blocked,m160,cave,7,m160cave.wav,None,720.8329868,202,431662.4688,423928.3247,424695.1373,425461.9215,426228.6441,426995.3473,427762.1311,428528.2914,432428.7663,418579.4966,419346.0495,420112.9413,420862.0512,421628.8354,422395.3079,423161.7446,431672.1929,Mapping
Blocked,m160,cave,7,m160gnash.wav,space,448.5818688,202,431662.4688,423928.3247,424695.1373,425461.9215,426228.6441,426995.3473,427762.1311,428528.2914,432428.7663,433178.6134,419346.0495,420112.9413,420862.0512,421628.8354,422395.3079,423161.7446,432438.9907,Mapping
Blocked,m160,cave,7,m160tile.wav,None,736.7687011,202,431662.4688,423928.3247,424695.1373,425461.9215,426228.6441,426995.3473,427762.1311,428528.2914,432428.7663,433178.6134,433944.8107,420112.9413,420862.0512,421628.8354,422395.3079,423161.7446,433187.3327,Mapping
Blocked,m160,cave,7,m160ball.wav,None,737.0488122,202,431662.4688,423928.3247,424695.1373,425461.9215,426228.6441,426995.3473,427762.1311,428528.2914,432428.7663,433178.6134,433944.8107,434711.4824,420862.0512,421628.8354,422395.3079,423161.7446,433953.5053,Mapping
Blocked,m160,cave,7,m160greet.wav,None,736.3689397,202,431662.4688,423928.3247,424695.1373,425461.9215,426228.6441,426995.3473,427762.1311,428528.2914,432428.7663,433178.6134,433944.8107,434711.4824,435478.5355,421628.8354,422395.3079,423161.7446,434720.7671,Mapping
Blocked,m160,cave,7,m160lash.wav,None,736.1961124,202,431662.4688,423928.3247,424695.1373,425461.9215,426228.6441,426995.3473,427762.1311,428528.2914,432428.7663,433178.6134,433944.8107,434711.4824,435478.5355,436245.4705,422395.3079,423161.7446,435487.5096,Mapping
Blocked,m160,cave,7,m160cave.wav,None,736.190238,202,431662.4688,423928.3247,424695.1373,425461.9215,426228.6441,426995.3473,427762.1311,428528.2914,432428.7663,433178.6134,433944.8107,434711.4824,435478.5355,436245.4705,437011.7096,423161.7446,436254.5241,Mapping
Blocked,m160,cave,7,m160jolt.wav,space,419.0286212,202,431662.4688,423928.3247,424695.1373,425461.9215,426228.6441,426995.3473,427762.1311,428528.2914,432428.7663,433178.6134,433944.8107,434711.4824,435478.5355,436245.4705,437011.7096,437778.376,437020.4515,Mapping
Blocked,m160,cave,7,m160reek.wav,None,735.0394954,202,431662.4688,438544.8148,424695.1373,425461.9215,426228.6441,426995.3473,427762.1311,428528.2914,432428.7663,433178.6134,433944.8107,434711.4824,435478.5355,436245.4705,437011.7096,437778.376,437787.4079,Mapping
Blocked,m160,cave,7,m160park.wav,None,735.5873501,202,431662.4688,438544.8148,439311.4295,425461.9215,426228.6441,426995.3473,427762.1311,428528.2914,432428.7663,433178.6134,433944.8107,434711.4824,435478.5355,436245.4705,437011.7096,437778.376,438553.4853,Mapping
Blocked,m160,cave,7,m160cave.wav,None,735.9667057,202,431662.4688,438544.8148,439311.4295,440078.2255,426228.6441,426995.3473,427762.1311,428528.2914,432428.7663,433178.6134,433944.8107,434711.4824,435478.5355,436245.4705,437011.7096,437778.376,439320.1501,Mapping
Blocked,m160,cave,7,m160lash.wav,space,456.1142554,202,431662.4688,438544.8148,439311.4295,440078.2255,440844.8312,426995.3473,427762.1311,428528.2914,432428.7663,433178.6134,433944.8107,434711.4824,435478.5355,436245.4705,437011.7096,437778.376,440087.3439,Mapping
Blocked,m160,cave,7,m160cling.wav,None,734.362097,202,431662.4688,438544.8148,439311.4295,440078.2255,440844.8312,441611.5143,427762.1311,428528.2914,432428.7663,433178.6134,433944.8107,434711.4824,435478.5355,436245.4705,437011.7096,437778.376,440853.4194,Mapping
Blocked,m160,cave,7,m160cave.wav,None,734.1506225,202,431662.4688,438544.8148,439311.4295,440078.2255,440844.8312,441611.5143,442378.052,428528.2914,432428.7663,433178.6134,433944.8107,434711.4824,435478.5355,436245.4705,437011.7096,437778.376,441620.1829,Mapping
Blocked,m160,cave,7,m160greet.wav,space,524.3694955,202,431662.4688,438544.8148,439311.4295,440078.2255,440844.8312,441611.5143,442378.052,443145.1043,432428.7663,433178.6134,433944.8107,434711.4824,435478.5355,436245.4705,437011.7096,437778.376,442387.0422,Mapping
Blocked,m160,done,19,m160greet.wav,None,731.8132734,202,446278.613,438544.8148,439311.4295,440078.2255,440844.8312,441611.5143,442378.052,443145.1043,432428.7663,433178.6134,433944.8107,434711.4824,435478.5355,436245.4705,437011.7096,437778.376,443154.1791,Mapping
Blocked,m160,done,19,m160jolt.wav,None,721.995478,202,446278.613,438544.8148,439311.4295,440078.2255,440844.8312,441611.5143,442378.052,443145.1043,447045.0082,433178.6134,433944.8107,434711.4824,435478.5355,436245.4705,437011.7096,437778.376,446288.2103,Mapping
Blocked,m160,done,19,m160done.wav,None,722.8299365,202,446278.613,438544.8148,439311.4295,440078.2255,440844.8312,441611.5143,442378.052,443145.1043,447045.0082,447811.5926,433944.8107,434711.4824,435478.5355,436245.4705,437011.7096,437778.376,447054.0555,Mapping
Blocked,m160,done,19,m160jaw.wav,space,314.832306,202,446278.613,438544.8148,439311.4295,440078.2255,440844.8312,441611.5143,442378.052,443145.1043,447045.0082,447811.5926,448578.1016,434711.4824,435478.5355,436245.4705,437011.7096,437778.376,447820.4718,Mapping
Blocked,m160,done,19,m160gnash.wav,None,721.2466607,202,446278.613,438544.8148,439311.4295,440078.2255,440844.8312,441611.5143,442378.052,443145.1043,447045.0082,447811.5926,448578.1016,449344.7739,435478.5355,436245.4705,437011.7096,437778.376,448587.0071,Mapping
Blocked,m160,done,19,m160tile.wav,None,721.3808419,202,446278.613,438544.8148,439311.4295,440078.2255,440844.8312,441611.5143,442378.052,443145.1043,447045.0082,447811.5926,448578.1016,449344.7739,450111.768,436245.4705,437011.7096,437778.376,449353.6036,Mapping
Blocked,m160,done,19,m160lash.wav,space,670.3276895,202,446278.613,438544.8148,439311.4295,440078.2255,440844.8312,441611.5143,442378.052,443145.1043,447045.0082,447811.5926,448578.1016,449344.7739,450111.768,450861.4298,437011.7096,437778.376,450120.9693,Mapping
Blocked,m160,done,19,m160done.wav,None,735.8306693,202,446278.613,438544.8148,439311.4295,440078.2255,440844.8312,441611.5143,442378.052,443145.1043,447045.0082,447811.5926,448578.1016,449344.7739,450111.768,450861.4298,451627.8757,437778.376,450870.3965,Mapping
Blocked,m160,done,19,m160romp.wav,space,466.2637934,202,446278.613,438544.8148,439311.4295,440078.2255,440844.8312,441611.5143,442378.052,443145.1043,447045.0082,447811.5926,448578.1016,449344.7739,450111.768,450861.4298,451627.8757,452394.8899,451636.9735,Mapping
Blocked,m160,done,19,m160done.wav,None,733.9508967,202,446278.613,453161.1624,439311.4295,440078.2255,440844.8312,441611.5143,442378.052,443145.1043,447045.0082,447811.5926,448578.1016,449344.7739,450111.768,450861.4298,451627.8757,452394.8899,452403.9413,Mapping
Blocked,m160,done,19,m160tile.wav,space,509.2175351,202,446278.613,453161.1624,453927.8631,440078.2255,440844.8312,441611.5143,442378.052,443145.1043,447045.0082,447811.5926,448578.1016,449344.7739,450111.768,450861.4298,451627.8757,452394.8899,453169.997,Mapping
