"Condition","Talker","Target","Trial","current_stimulus","response_response","response_time_response","subject_nr","time_Audio1","time_Audio10","time_Audio11","time_Audio12","time_Audio13","time_Audio14","time_Audio15","time_Audio16","time_Audio2","time_Audio3","time_Audio4","time_Audio5","time_Audio6","time_Audio7","time_Audio8","time_Audio9","time_response","title"
"Blocked","m160","ball","4","m160greet.wav","NA","NA","158","330872.415205","NA","NA","NA","NA","NA","NA","NA","NA","NA","NA","NA","NA","NA","NA","NA","NA","Mapping"
"Blocked","m160","ball","4","m160greet.wav","None","716.907940805","158","330872.415205","NA","NA","NA","NA","NA","NA","NA","331622.919457","NA","NA","NA","NA","NA","NA","NA","330886.550345","Mapping"
"Blocked","m160","ball","4","m160ball.wav","None","733.850941528","158","330872.415205","NA","NA","NA","NA","NA","NA","NA","331622.919457","332389.77218","NA","NA","NA","NA","NA","NA","331632.821476","Mapping"
"Blocked","m160","ball","4","m160knife.wav","space","380.17778378","158","330872.415205","NA","NA","NA","NA","NA","NA","NA","331622.919457","332389.77218","333156.71549","NA","NA","NA","NA","NA","332399.267953","Mapping"
"Blocked","m160","ball","4","m160jaw.wav","None","733.511785045","158","330872.415205","NA","NA","NA","NA","NA","NA","NA","331622.919457","332389.77218","333156.71549","333924.320728","NA","NA","NA","NA","333165.736691","Mapping"
"Blocked","m160","ball","4","m160done.wav","None","732.098579872","158","330872.415205","NA","NA","NA","NA","NA","NA","NA","331622.919457","332389.77218","333156.71549","333924.320728","334691.579698","NA","NA","NA","333933.518772","Mapping"
"Blocked","m160","ball","4","m160depth.wav","None","730.920342263","158","330872.415205","NA","NA","NA","NA","NA","NA","NA","331622.919457","332389.77218","333156.71549","333924.320728","334691.579698","335458.936056","NA","NA","334701.036206","Mapping"
"Blocked","m160","ball","4","m160lash.wav","None","730.685375165","158","330872.415205","NA","NA","NA","NA","NA","NA","NA","331622.919457","332389.77218","333156.71549","333924.320728","334691.579698","335458.936056","336226.014472","NA","335467.721979","Mapping"
"Blocked","m160","ball","4","m160ball.wav","None","729.850004427","158","330872.415205","NA","NA","NA","NA","NA","NA","NA","331622.919457","332389.77218","333156.71549","333924.320728","334691.579698","335458.936056","336226.014472","336993.34084","336234.988678","Mapping"
"Blocked","m160","ball","4","m160jolt.wav","space","344.456873368","158","330872.415205","337760.507987","NA","NA","NA","NA","NA","NA","331622.919457","332389.77218","333156.71549","333924.320728","334691.579698","335458.936056","336226.014472","336993.34084","337002.805695","Mapping"
"Blocked","m160","ball","4","m160jaw.wav","None","724.232738838","158","330872.415205","337760.507987","338511.278124","NA","NA","NA","NA","NA","331622.919457","332389.77218","333156.71549","333924.320728","334691.579698","335458.936056","336226.014472","336993.34084","337769.9107","Mapping"
"Blocked","m160","ball","4","m160ball.wav","None","736.688172445","158","330872.415205","337760.507987","338511.278124","339278.491336","NA","NA","NA","NA","331622.919457","332389.77218","333156.71549","333924.320728","334691.579698","335458.936056","336226.014472","336993.34084","338520.403513","Mapping"
"Blocked","m160","ball","4","m160dime.wav","space","466.944113839","158","330872.415205","337760.507987","338511.278124","339278.491336","340045.558313","NA","NA","NA","331622.919457","332389.77218","333156.71549","333924.320728","334691.579698","335458.936056","336226.014472","336993.34084","339288.247737","Mapping"
"Blocked","m160","ball","4","m160park.wav","None","731.858047657","158","330872.415205","337760.507987","338511.278124","339278.491336","340045.558313","340812.999692","NA","NA","331622.919457","332389.77218","333156.71549","333924.320728","334691.579698","335458.936056","336226.014472","336993.34084","340054.864566","Mapping"
"Blocked","m160","ball","4","m160ball.wav","None","730.778125115","158","330872.415205","337760.507987","338511.278124","339278.491336","340045.558313","340812.999692","341580.159728","NA","331622.919457","332389.77218","333156.71549","333924.320728","334691.579698","335458.936056","336226.014472","336993.34084","340822.410753","Mapping"
"Blocked","m160","ball","4","m160cave.wav","space","285.326412879","158","330872.415205","337760.507987","338511.278124","339278.491336","340045.558313","340812.999692","341580.159728","342347.353464","331622.919457","332389.77218","333156.71549","333924.320728","334691.579698","335458.936056","336226.014472","336993.34084","341589.790607","Mapping"
"Blocked","m160","cave","8","m160jaw.wav","None","725.273706019","158","345466.41451","337760.507987","338511.278124","339278.491336","340045.558313","340812.999692","341580.159728","342347.353464","331622.919457","332389.77218","333156.71549","333924.320728","334691.579698","335458.936056","336226.014472","336993.34084","342357.184065","Mapping"
"Blocked","m160","cave","8","m160park.wav","None","736.080348957","158","345466.41451","337760.507987","338511.278124","339278.491336","340045.558313","340812.999692","341580.159728","342347.353464","346233.539301","332389.77218","333156.71549","333924.320728","334691.579698","335458.936056","336226.014472","336993.34084","345475.878747","Mapping"
"Blocked","m160","cave","8","m160cave.wav","None","732.92931309","158","345466.41451","337760.507987","338511.278124","339278.491336","340045.558313","340812.999692","341580.159728","342347.353464","346233.539301","347001.038803","333156.71549","333924.320728","334691.579698","335458.936056","336226.014472","336993.34084","346242.616151","Mapping"
"Blocked","m160","cave","8","m160ball.wav","space","319.785302039","158","345466.41451","337760.507987","338511.278124","339278.491336","340045.558313","340812.999692","341580.159728","342347.353464","346233.539301","347001.038803","347768.53676","333924.320728","334691.579698","335458.936056","336226.014472","336993.34084","347011.147036","Mapping"
"Blocked","m160","cave","8","m160bluff.wav","None","723.940575495","158","345466.41451","337760.507987","338511.278124","339278.491336","340045.558313","340812.999692","341580.159728","342347.353464","346233.539301","347001.038803","347768.53676","348535.086808","334691.579698","335458.936056","336226.014472","336993.34084","347777.91814","Mapping"
"Blocked","m160","cave","8","m160ball.wav","None","723.794030026","158","345466.41451","337760.507987","338511.278124","339278.491336","340045.558313","340812.999692","341580.159728","342347.353464","346233.539301","347001.038803","347768.53676","348535.086808","349285.455336","335458.936056","336226.014472","336993.34084","348544.467879","Mapping"
"Blocked","m160","cave","8","m160priest.wav","None","737.083906773","158","345466.41451","337760.507987","338511.278124","339278.491336","340045.558313","340812.999692","341580.159728","342347.353464","346233.539301","347001.038803","347768.53676","348535.086808","349285.455336","350052.89115","336226.014472","336993.34084","349294.263211","Mapping"
"Blocked","m160","cave","8","m160priest.wav","None","736.104154959","158","345466.41451","337760.507987","338511.278124","339278.491336","340045.558313","340812.999692","341580.159728","342347.353464","346233.539301","347001.038803","347768.53676","348535.086808","349285.455336","350052.89115","350819.813127","336993.34084","350062.114545","Mapping"
"Blocked","m160","cave","8","m160cave.wav","None","732.759270817","158","345466.41451","337760.507987","338511.278124","339278.491336","340045.558313","340812.999692","341580.159728","342347.353464","346233.539301","347001.038803","347768.53676","348535.086808","349285.455336","350052.89115","350819.813127","351587.216787","350828.5434","Mapping"
"Blocked","m160","cave","8","m160tile.wav","space","358.317782171","158","345466.41451","352354.420416","338511.278124","339278.491336","340045.558313","340812.999692","341580.159728","342347.353464","346233.539301","347001.038803","347768.53676","348535.086808","349285.455336","350052.89115","350819.813127","351587.216787","351596.428125","Mapping"
"Blocked","m160","cave","8","m160cave.wav","None","727.095630486","158","345466.41451","352354.420416","353122.009886","339278.491336","340045.558313","340812.999692","341580.159728","342347.353464","346233.539301","347001.038803","347768.53676","348535.086808","349285.455336","350052.89115","350819.813127","351587.216787","352363.414719","Mapping"
"Blocked","m160","cave","8","m160tile.wav","space","470.852609724","158","345466.41451","352354.420416","353122.009886","353872.102327","340045.558313","340812.999692","341580.159728","342347.353464","346233.539301","347001.038803","347768.53676","348535.086808","349285.455336","350052.89115","350819.813127","351587.216787","353131.820391","Mapping"
"Blocked","m160","cave","8","m160knife.wav","None","735.37977552","158","345466.41451","352354.420416","353122.009886","353872.102327","354639.255561","340812.999692","341580.159728","342347.353464","346233.539301","347001.038803","347768.53676","348535.086808","349285.455336","350052.89115","350819.813127","351587.216787","353881.083644","Mapping"
"Blocked","m160","cave","8","m160jolt.wav","None","731.222708244","158","345466.41451","352354.420416","353122.009886","353872.102327","354639.255561","355406.534009","341580.159728","342347.353464","346233.539301","347001.038803","347768.53676","348535.086808","349285.455336","350052.89115","350819.813127","351587.216787","354648.28851","Mapping"
"Blocked","m160","cave","8","m160cave.wav","None","727.438497357","158","345466.41451","352354.420416","353122.009886","353872.102327","354639.255561","355406.534009","356173.936742","342347.353464","346233.539301","347001.038803","347768.53676","348535.086808","349285.455336","350052.89115","350819.813127","351587.216787","355415.284069","Mapping"
"Blocked","m160","cave","8","m160jolt.wav","space","387.093862053","158","345466.41451","352354.420416","353122.009886","353872.102327","354639.255561","355406.534009","356173.936742","356924.257967","346233.539301","347001.038803","347768.53676","348535.086808","349285.455336","350052.89115","350819.813127","351587.216787","356183.502077","Mapping"
"Blocked","m160","tile","18","m160priest.wav","None","735.476235393","158","360043.560472","352354.420416","353122.009886","353872.102327","354639.255561","355406.534009","356173.936742","356924.257967","346233.539301","347001.038803","347768.53676","348535.086808","349285.455336","350052.89115","350819.813127","351587.216787","356933.299572","Mapping"
"Blocked","m160","tile","18","m160lash.wav","None","735.964720137","158","360043.560472","352354.420416","353122.009886","353872.102327","354639.255561","355406.534009","356173.936742","356924.257967","360810.786361","347001.038803","347768.53676","348535.086808","349285.455336","350052.89115","350819.813127","351587.216787","360053.059337","Mapping"
"Blocked","m160","tile","18","m160tile.wav","None","731.935030315","158","360043.560472","352354.420416","353122.009886","353872.102327","354639.255561","355406.534009","356173.936742","356924.257967","360810.786361","361577.841281","347768.53676","348535.086808","349285.455336","350052.89115","350819.813127","351587.216787","360820.381377","Mapping"
"Blocked","m160","tile","18","m160bluff.wav","space","327.379384078","158","360043.560472","352354.420416","353122.009886","353872.102327","354639.255561","355406.534009","356173.936742","356924.257967","360810.786361","361577.841281","362345.33831","348535.086808","349285.455336","350052.89115","350819.813127","351587.216787","361587.059112","Mapping"
"Blocked","m160","tile","18","m160reek.wav","None","723.734360654","158","360043.560472","352354.420416","353122.009886","353872.102327","354639.255561","355406.534009","356173.936742","356924.257967","360810.786361","361577.841281","362345.33831","363112.483815","349285.455336","350052.89115","350819.813127","351587.216787","362354.628795","Mapping"
"Blocked","m160","tile","18","m160cad.wav","None","723.136739805","158","360043.560472","352354.420416","353122.009886","353872.102327","354639.255561","355406.534009","356173.936742","356924.257967","360810.786361","361577.841281","362345.33831","363112.483815","363879.655909","350052.89115","350819.813127","351587.216787","363122.010504","Mapping"
"Blocked","m160","tile","18","m160tile.wav","None","722.56261576","158","360043.560472","352354.420416","353122.009886","353872.102327","354639.255561","355406.534009","356173.936742","356924.257967","360810.786361","361577.841281","362345.33831","363112.483815","363879.655909","364629.663947","350819.813127","351587.216787","363889.316468","Mapping"
"Blocked","m160","tile","18","m160jaw.wav","space","283.425650559","158","360043.560472","352354.420416","353122.009886","353872.102327","354639.255561","355406.534009","356173.936742","356924.257967","360810.786361","361577.841281","362345.33831","363112.483815","363879.655909","364629.663947","365397.265166","351587.216787","364638.852716","Mapping"
"Blocked","m160","tile","18","m160romp.wav","None","731.601438485","158","360043.560472","352354.420416","353122.009886","353872.102327","354639.255561","355406.534009","356173.936742","356924.257967","360810.786361","361577.841281","362345.33831","363112.483815","363879.655909","364629.663947","365397.265166","366164.627707","365406.482069","Mapping"
"Blocked","m160","tile","18","m160tile.wav","None","731.194264721","158","360043.560472","366931.918521","353122.009886","353872.102327","354639.255561","355406.534009","356173.936742","356924.257967","360810.786361","361577.841281","362345.33831","363112.483815","363879.655909","364629.663947","365397.265166","366164.627707","366173.919119","Mapping"
"Blocked","m160","tile","18","m160park.wav","space","388.706480153","158","360043.560472","366931.918521","367698.797524","353872.102327","354639.255561","355406.534009","356173.936742","356924.257967","360810.786361","361577.841281","362345.33831","363112.483815","363879.655909","364629.663947","365397.265166","366164.627707","366941.496841","Mapping"
"Blocked","m160","tile","18","m160done.wav","None","723.441888578","158","360043.560472","366931.918521","367698.797524","368449.419878","354639.255561","355406.534009","356173.936742","356924.257967","360810.786361","361577.841281","362345.33831","363112.483815","363879.655909","364629.663947","365397.265166","366164.627707","367707.914875","Mapping"
"Blocked","m160","tile","18","m160bluff.wav","None","735.858366359","158","360043.560472","366931.918521","367698.797524","368449.419878","369216.740991","355406.534009","356173.936742","356924.257967","360810.786361","361577.841281","362345.33831","363112.483815","363879.655909","364629.663947","365397.265166","366164.627707","368458.904521","Mapping"
"Blocked","m160","tile","18","m160tile.wav","None","731.783847325","158","360043.560472","366931.918521","367698.797524","368449.419878","369216.740991","369984.11528","356173.936742","356924.257967","360810.786361","361577.841281","362345.33831","363112.483815","363879.655909","364629.663947","365397.265166","366164.627707","369226.267061","Mapping"
"Blocked","m160","tile","18","m160gnash.wav","space","344.3715428","158","360043.560472","366931.918521","367698.797524","368449.419878","369216.740991","369984.11528","370752.460974","356924.257967","360810.786361","361577.841281","362345.33831","363112.483815","363879.655909","364629.663947","365397.265166","366164.627707","369993.716478","Mapping"
"Blocked","m160","tile","18","m160priest.wav","None","725.356253795","158","360043.560472","366931.918521","367698.797524","368449.419878","369216.740991","369984.11528","370752.460974","371518.594574","360810.786361","361577.841281","362345.33831","363112.483815","363879.655909","364629.663947","365397.265166","366164.627707","370762.274261","Mapping"
"Blocked","m160","cave","9","m160cling.wav","None","722.9172308","158","374637.510929","366931.918521","367698.797524","368449.419878","369216.740991","369984.11528","370752.460974","371518.594574","360810.786361","361577.841281","362345.33831","363112.483815","363879.655909","364629.663947","365397.265166","366164.627707","371528.03686","Mapping"
"Blocked","m160","cave","9","m160dime.wav","None","722.238607705","158","374637.510929","366931.918521","367698.797524","368449.419878","369216.740991","369984.11528","370752.460974","371518.594574","375387.632432","361577.841281","362345.33831","363112.483815","363879.655909","364629.663947","365397.265166","366164.627707","374646.819655","Mapping"
"Blocked","m160","cave","9","m160cave.wav","None","735.833942425","158","374637.510929","366931.918521","367698.797524","368449.419878","369216.740991","369984.11528","370752.460974","371518.594574","375387.632432","376155.358863","362345.33831","363112.483815","363879.655909","364629.663947","365397.265166","366164.627707","375396.558099","Mapping"
"Blocked","m160","cave","9","m160greet.wav","space","348.792329431","158","374637.510929","366931.918521","367698.797524","368449.419878","369216.740991","369984.11528","370752.460974","371518.594574","375387.632432","376155.358863","376922.422439","363112.483815","363879.655909","364629.663947","365397.265166","366164.627707","376165.07971","Mapping"
"Blocked","m160","cave","9","m160cave.wav","None","731.983569451","158","374637.510929","366931.918521","367698.797524","368449.419878","369216.740991","369984.11528","370752.460974","371518.594574","375387.632432","376155.358863","376922.422439","377689.282892","363879.655909","364629.663947","365397.265166","366164.627707","376926.548589","Mapping"
"Blocked","m160","cave","9","m160dime.wav","space","567.290010396","158","374637.510929","366931.918521","367698.797524","368449.419878","369216.740991","369984.11528","370752.460974","371518.594574","375387.632432","376155.358863","376922.422439","377689.282892","378440.001088","364629.663947","365397.265166","366164.627707","377698.455275","Mapping"
"Blocked","m160","cave","9","m160dime.wav","None","735.154700931","158","374637.510929","366931.918521","367698.797524","368449.419878","369216.740991","369984.11528","370752.460974","371518.594574","375387.632432","376155.358863","376922.422439","377689.282892","378440.001088","379207.339514","365397.265166","366164.627707","378449.453268","Mapping"
"Blocked","m160","cave","9","m160jaw.wav","None","730.172466021","158","374637.510929","366931.918521","367698.797524","368449.419878","369216.740991","369984.11528","370752.460974","371518.594574","375387.632432","376155.358863","376922.422439","377689.282892","378440.001088","379207.339514","379974.81181","366164.627707","379217.507726","Mapping"
"Blocked","m160","cave","9","m160bluff.wav","None","726.628168952","158","374637.510929","366931.918521","367698.797524","368449.419878","369216.740991","369984.11528","370752.460974","371518.594574","375387.632432","376155.358863","376922.422439","377689.282892","378440.001088","379207.339514","379974.81181","380741.447188","379984.26739","Mapping"
"Blocked","m160","cave","9","m160gnash.wav","None","726.021273527","158","374637.510929","381509.274717","367698.797524","368449.419878","369216.740991","369984.11528","370752.460974","371518.594574","375387.632432","376155.358863","376922.422439","377689.282892","378440.001088","379207.339514","379974.81181","380741.447188","380750.217345","Mapping"
"Blocked","m160","cave","9","m160greet.wav","None","721.019560471","158","374637.510929","381509.274717","382259.753927","368449.419878","369216.740991","369984.11528","370752.460974","371518.594574","375387.632432","376155.358863","376922.422439","377689.282892","378440.001088","379207.339514","379974.81181","380741.447188","381518.408455","Mapping"
"Blocked","m160","cave","9","m160cave.wav","None","733.15222282","158","374637.510929","381509.274717","382259.753927","383026.776075","369216.740991","369984.11528","370752.460974","371518.594574","375387.632432","376155.358863","376922.422439","377689.282892","378440.001088","379207.339514","379974.81181","380741.447188","382269.495797","Mapping"
"Blocked","m160","cave","9","m160cling.wav","space","317.578463349","158","374637.510929","381509.274717","382259.753927","383026.776075","383794.072763","369984.11528","370752.460974","371518.594574","375387.632432","376155.358863","376922.422439","377689.282892","378440.001088","379207.339514","379974.81181","380741.447188","383036.048628","Mapping"
"Blocked","m160","cave","9","m160romp.wav","None","725.376349408","158","374637.510929","381509.274717","382259.753927","383026.776075","383794.072763","384561.52218","370752.460974","371518.594574","375387.632432","376155.358863","376922.422439","377689.282892","378440.001088","379207.339514","379974.81181","380741.447188","383803.174038","Mapping"
"Blocked","m160","cave","9","m160cave.wav","None","720.787066501","158","374637.510929","381509.274717","382259.753927","383026.776075","383794.072763","384561.52218","385311.593598","371518.594574","375387.632432","376155.358863","376922.422439","377689.282892","378440.001088","379207.339514","379974.81181","380741.447188","384571.064946","Mapping"
"Blocked","m160","cave","9","m160knife.wav","space","448.938195128","158","374637.510929","381509.274717","382259.753927","383026.776075","383794.072763","384561.52218","385311.593598","386079.088463","375387.632432","376155.358863","376922.422439","377689.282892","378440.001088","379207.339514","379974.81181","380741.447188","385320.589756","Mapping"
"Blocked","m160","done","22","m160cad.wav","None","729.773021769","158","389198.026769","381509.274717","382259.753927","383026.776075","383794.072763","384561.52218","385311.593598","386079.088463","375387.632432","376155.358863","376922.422439","377689.282892","378440.001088","379207.339514","379974.81181","380741.447188","386088.489011","Mapping"
"Blocked","m160","done","22","m160done.wav","None","736.228131223","158","389198.026769","381509.274717","382259.753927","383026.776075","383794.072763","384561.52218","385311.593598","386079.088463","389965.45238","376155.358863","376922.422439","377689.282892","378440.001088","379207.339514","379974.81181","380741.447188","389207.40042","Mapping"
"Blocked","m160","done","22","m160cling.wav","space","450.436420739","158","389198.026769","381509.274717","382259.753927","383026.776075","383794.072763","384561.52218","385311.593598","386079.088463","389965.45238","390732.57377","376922.422439","377689.282892","378440.001088","379207.339514","379974.81181","380741.447188","389974.933004","Mapping"
"Blocked","m160","done","22","m160park.wav","None","727.16890322","158","389198.026769","381509.274717","382259.753927","383026.776075","383794.072763","384561.52218","385311.593598","386079.088463","389965.45238","390732.57377","391499.719276","377689.282892","378440.001088","379207.339514","379974.81181","380741.447188","390742.530821","Mapping"
"Blocked","m160","done","22","m160greet.wav","None","724.050020799","158","389198.026769","381509.274717","382259.753927","383026.776075","383794.072763","384561.52218","385311.593598","386079.088463","389965.45238","390732.57377","391499.719276","392266.598588","378440.001088","379207.339514","379974.81181","380741.447188","391509.079942","Mapping"
"Blocked","m160","done","22","m160ball.wav","None","726.559842937","158","389198.026769","381509.274717","382259.753927","383026.776075","383794.072763","384561.52218","385311.593598","386079.088463","389965.45238","390732.57377","391499.719276","392266.598588","393017.578031","379207.339514","379974.81181","380741.447188","392269.918429","Mapping"
"Blocked","m160","done","22","m160cad.wav","None","730.754009914","158","389198.026769","381509.274717","382259.753927","383026.776075","383794.072763","384561.52218","385311.593598","386079.088463","389965.45238","390732.57377","391499.719276","392266.598588","393017.578031","393784.810103","379974.81181","380741.447188","393028.909331","Mapping"
"Blocked","m160","done","22","m160done.wav","None","729.026072659","158","389198.026769","381509.274717","382259.753927","383026.776075","383794.072763","384561.52218","385311.593598","386079.088463","389965.45238","390732.57377","391499.719276","392266.598588","393017.578031","393784.810103","394551.82885","380741.447188","393794.095332","Mapping"
"Blocked","m160","done","22","m160lash.wav","space","351.936873049","158","389198.026769","381509.274717","382259.753927","383026.776075","383794.072763","384561.52218","385311.593598","386079.088463","389965.45238","390732.57377","391499.719276","392266.598588","393017.578031","393784.810103","394551.82885","395318.940965","394561.263098","Mapping"
"Blocked","m160","done","22","m160lash.wav","None","721.468781121","158","389198.026769","396069.731816","382259.753927","383026.776075","383794.072763","384561.52218","385311.593598","386079.088463","389965.45238","390732.57377","391499.719276","392266.598588","393017.578031","393784.810103","394551.82885","395318.940965","395327.71885","Mapping"
"Blocked","m160","done","22","m160greet.wav","None","733.590622433","158","389198.026769","396069.731816","396837.163301","383026.776075","383794.072763","384561.52218","385311.593598","386079.088463","389965.45238","390732.57377","391499.719276","392266.598588","393017.578031","393784.810103","394551.82885","395318.940965","396078.9447","Mapping"
"Blocked","m160","done","22","m160done.wav","None","729.184675496","158","389198.026769","396069.731816","396837.163301","397604.120214","383794.072763","384561.52218","385311.593598","386079.088463","389965.45238","390732.57377","391499.719276","392266.598588","393017.578031","393784.810103","394551.82885","395318.940965","396846.726781","Mapping"
"Blocked","m160","done","22","m160priest.wav","space","307.62852449","158","389198.026769","396069.731816","396837.163301","397604.120214","398371.29509","384561.52218","385311.593598","386079.088463","389965.45238","390732.57377","391499.719276","392266.598588","393017.578031","393784.810103","394551.82885","395318.940965","397613.451818","Mapping"
"Blocked","m160","done","22","m160cave.wav","None","721.462288406","158","389198.026769","396069.731816","396837.163301","397604.120214","398371.29509","399121.587563","385311.593598","386079.088463","389965.45238","390732.57377","391499.719276","392266.598588","393017.578031","393784.810103","394551.82885","395318.940965","398380.692857","Mapping"
"Blocked","m160","done","22","m160done.wav","None","735.034744255","158","389198.026769","396069.731816","396837.163301","397604.120214","398371.29509","399121.587563","399889.222481","386079.088463","389965.45238","390732.57377","391499.719276","392266.598588","393017.578031","393784.810103","394551.82885","395318.940965","399130.612164","Mapping"
"Blocked","m160","done","22","m160greet.wav","space","518.280150369","158","389198.026769","396069.731816","396837.163301","397604.120214","398371.29509","399121.587563","399889.222481","400656.442496","389965.45238","390732.57377","391499.719276","392266.598588","393017.578031","393784.810103","394551.82885","395318.940965","399898.700322","Mapping"
"Blocked","m160","done","21","m160depth.wav","None","725.839173887","158","403758.457897","396069.731816","396837.163301","397604.120214","398371.29509","399121.587563","399889.222481","400656.442496","389965.45238","390732.57377","391499.719276","392266.598588","393017.578031","393784.810103","394551.82885","395318.940965","400666.063171","Mapping"
"Blocked","m160","done","21","m160done.wav","None","735.538069159","158","403758.457897","396069.731816","396837.163301","397604.120214","398371.29509","399121.587563","399889.222481","400656.442496","404525.741909","390732.57377","391499.719276","392266.598588","393017.578031","393784.810103","394551.82885","395318.940965","403768.108562","Mapping"
"Blocked","m160","done","21","m160greet.wav","space","441.885774024","158","403758.457897","396069.731816","396837.163301","397604.120214","398371.29509","399121.587563","399889.222481","400656.442496","404525.741909","405293.095794","391499.719276","392266.598588","393017.578031","393784.810103","394551.82885","395318.940965","404534.950156","Mapping"
"Blocked","m160","done","21","m160bluff.wav","None","727.633581962","158","403758.457897","396069.731816","396837.163301","397604.120214","398371.29509","399121.587563","399889.222481","400656.442496","404525.741909","405293.095794","406060.381352","392266.598588","393017.578031","393784.810103","394551.82885","395318.940965","405302.491705","Mapping"
"Blocked","m160","done","21","m160cad.wav","None","715.784117114","158","403758.457897","396069.731816","396837.163301","397604.120214","398371.29509","399121.587563","399889.222481","400656.442496","404525.741909","405293.095794","406060.381352","406827.610642","393017.578031","393784.810103","394551.82885","395318.940965","406077.784394","Mapping"
"Blocked","m160","done","21","m160tile.wav","None","719.449916855","158","403758.457897","396069.731816","396837.163301","397604.120214","398371.29509","399121.587563","399889.222481","400656.442496","404525.741909","405293.095794","406060.381352","406827.610642","407578.012869","393784.810103","394551.82885","395318.940965","406837.517298","Mapping"
"Blocked","m160","done","21","m160ball.wav","None","732.725262642","158","403758.457897","396069.731816","396837.163301","397604.120214","398371.29509","399121.587563","399889.222481","400656.442496","404525.741909","405293.095794","406060.381352","406827.610642","407578.012869","408345.359024","394551.82885","395318.940965","407587.81348","Mapping"
"Blocked","m160","done","21","m160depth.wav","None","728.962384164","158","403758.457897","396069.731816","396837.163301","397604.120214","398371.29509","399121.587563","399889.222481","400656.442496","404525.741909","405293.095794","406060.381352","406827.610642","407578.012869","408345.359024","409112.683537","395318.940965","408355.201373","Mapping"
"Blocked","m160","done","21","m160cave.wav","None","725.41159438","158","403758.457897","396069.731816","396837.163301","397604.120214","398371.29509","399121.587563","399889.222481","400656.442496","404525.741909","405293.095794","406060.381352","406827.610642","407578.012869","408345.359024","409112.683537","409879.568105","409122.367593","Mapping"
"Blocked","m160","done","21","m160done.wav","None","721.816285048","158","403758.457897","410629.851303","396837.163301","397604.120214","398371.29509","399121.587563","399889.222481","400656.442496","404525.741909","405293.095794","406060.381352","406827.610642","407578.012869","408345.359024","409112.683537","409879.568105","409889.590699","Mapping"
"Blocked","m160","done","21","m160dime.wav","space","361.074010842","158","403758.457897","410629.851303","411397.621636","397604.120214","398371.29509","399121.587563","399889.222481","400656.442496","404525.741909","405293.095794","406060.381352","406827.610642","407578.012869","408345.359024","409112.683537","409879.568105","410639.526702","Mapping"
"Blocked","m160","done","21","m160done.wav","None","730.559234973","158","403758.457897","410629.851303","411397.621636","412164.835467","398371.29509","399121.587563","399889.222481","400656.442496","404525.741909","405293.095794","406060.381352","406827.610642","407578.012869","408345.359024","409112.683537","409879.568105","411407.202429","Mapping"
"Blocked","m160","done","21","m160depth.wav","space","401.619790588","158","403758.457897","410629.851303","411397.621636","412164.835467","412931.399428","399121.587563","399889.222481","400656.442496","404525.741909","405293.095794","406060.381352","406827.610642","407578.012869","408345.359024","409112.683537","409879.568105","412174.89207","Mapping"
"Blocked","m160","done","21","m160ball.wav","None","725.666658022","158","403758.457897","410629.851303","411397.621636","412164.835467","412931.399428","413699.155849","399889.222481","400656.442496","404525.741909","405293.095794","406060.381352","406827.610642","407578.012869","408345.359024","409112.683537","409879.568105","412940.400533","Mapping"
"Blocked","m160","done","21","m160done.wav","None","720.687514171","158","403758.457897","410629.851303","411397.621636","412164.835467","412931.399428","413699.155849","414449.815303","400656.442496","404525.741909","405293.095794","406060.381352","406827.610642","407578.012869","408345.359024","409112.683537","409879.568105","413708.724894","Mapping"
"Blocked","m160","done","21","m160jaw.wav","space","428.316100035","158","403758.457897","410629.851303","411397.621636","412164.835467","412931.399428","413699.155849","414449.815303","415216.639893","404525.741909","405293.095794","406060.381352","406827.610642","407578.012869","408345.359024","409112.683537","409879.568105","414460.122332","Mapping"
"Blocked","m160","ball","2","m160romp.wav","None","730.102594476","158","418335.746695","410629.851303","411397.621636","412164.835467","412931.399428","413699.155849","414449.815303","415216.639893","404525.741909","405293.095794","406060.381352","406827.610642","407578.012869","408345.359024","409112.683537","409879.568105","415225.682425","Mapping"
"Blocked","m160","ball","2","m160gnash.wav","None","735.545798205","158","418335.746695","410629.851303","411397.621636","412164.835467","412931.399428","413699.155849","414449.815303","415216.639893","419102.940122","405293.095794","406060.381352","406827.610642","407578.012869","408345.359024","409112.683537","409879.568105","418345.478362","Mapping"
"Blocked","m160","ball","2","m160cad.wav","None","732.340039685","158","418335.746695","410629.851303","411397.621636","412164.835467","412931.399428","413699.155849","414449.815303","415216.639893","419102.940122","419870.404379","406060.381352","406827.610642","407578.012869","408345.359024","409112.683537","409879.568105","419112.121162","Mapping"
"Blocked","m160","ball","2","m160cling.wav","None","728.02498797","158","418335.746695","410629.851303","411397.621636","412164.835467","412931.399428","413699.155849","414449.815303","415216.639893","419102.940122","419870.404379","420637.550503","406827.610642","407578.012869","408345.359024","409112.683537","409879.568105","419880.064629","Mapping"
"Blocked","m160","ball","2","m160lash.wav","None","723.79588522","158","418335.746695","410629.851303","411397.621636","412164.835467","412931.399428","413699.155849","414449.815303","415216.639893","419102.940122","419870.404379","420637.550503","421404.504015","407578.012869","408345.359024","409112.683537","409879.568105","420647.821976","Mapping"
"Blocked","m160","ball","2","m160ball.wav","None","721.246489324","158","418335.746695","410629.851303","411397.621636","412164.835467","412931.399428","413699.155849","414449.815303","415216.639893","419102.940122","419870.404379","420637.550503","421404.504015","422155.373394","408345.359024","409112.683537","409879.568105","421413.994532","Mapping"
"Blocked","m160","ball","2","m160depth.wav","space","466.984923929","158","418335.746695","410629.851303","411397.621636","412164.835467","412931.399428","413699.155849","414449.815303","415216.639893","419102.940122","419870.404379","420637.550503","421404.504015","422155.373394","422922.210969","409112.683537","409879.568105","422165.215125","Mapping"
"Blocked","m160","ball","2","m160ball.wav","None","730.430311523","158","418335.746695","410629.851303","411397.621636","412164.835467","412931.399428","413699.155849","414449.815303","415216.639893","419102.940122","419870.404379","420637.550503","421404.504015","422155.373394","422922.210969","423689.496836","409879.568105","422931.366039","Mapping"
"Blocked","m160","ball","2","m160romp.wav","space","548.763144296","158","418335.746695","410629.851303","411397.621636","412164.835467","412931.399428","413699.155849","414449.815303","415216.639893","419102.940122","419870.404379","420637.550503","421404.504015","422155.373394","422922.210969","423689.496836","424457.144429","423699.367938","Mapping"
"Blocked","m160","ball","2","m160greet.wav","None","721.530305222","158","418335.746695","425207.241508","411397.621636","412164.835467","412931.399428","413699.155849","414449.815303","415216.639893","419102.940122","419870.404379","420637.550503","421404.504015","422155.373394","422922.210969","423689.496836","424457.144429","424466.681321","Mapping"
"Blocked","m160","ball","2","m160lash.wav","None","735.142644029","158","418335.746695","425207.241508","425974.71133","412164.835467","412931.399428","413699.155849","414449.815303","415216.639893","419102.940122","419870.404379","420637.550503","421404.504015","422155.373394","422922.210969","423689.496836","424457.144429","425216.703272","Mapping"
"Blocked","m160","ball","2","m160ball.wav","None","730.901174247","158","418335.746695","425207.241508","425974.71133","426742.10015","412931.399428","413699.155849","414449.815303","415216.639893","419102.940122","419870.404379","420637.550503","421404.504015","422155.373394","422922.210969","423689.496836","424457.144429","425984.562954","Mapping"
"Blocked","m160","ball","2","m160depth.wav","space","344.454708509","158","418335.746695","425207.241508","425974.71133","426742.10015","427508.869708","413699.155849","414449.815303","415216.639893","419102.940122","419870.404379","420637.550503","421404.504015","422155.373394","422922.210969","423689.496836","424457.144429","426751.590049","Mapping"
"Blocked","m160","ball","2","m160reek.wav","None","723.540822044","158","418335.746695","425207.241508","425974.71133","426742.10015","427508.869708","428276.500916","414449.815303","415216.639893","419102.940122","419870.404379","420637.550503","421404.504015","422155.373394","422922.210969","423689.496836","424457.144429","427518.524083","Mapping"
"Blocked","m160","ball","2","m160ball.wav","None","719.631088898","158","418335.746695","425207.241508","425974.71133","426742.10015","427508.869708","428276.500916","429026.699401","415216.639893","419102.940122","419870.404379","420637.550503","421404.504015","422155.373394","422922.210969","423689.496836","424457.144429","428286.077072","Mapping"
"Blocked","m160","ball","2","m160romp.wav","space","468.341859989","158","418335.746695","425207.241508","425974.71133","426742.10015","427508.869708","428276.500916","429026.699401","429793.867167","419102.940122","419870.404379","420637.550503","421404.504015","422155.373394","422922.210969","423689.496836","424457.144429","429035.6059","Mapping"
"Blocked","m160","tile","15","m160jaw.wav","None","728.971350007","158","432912.852776","425207.241508","425974.71133","426742.10015","427508.869708","428276.500916","429026.699401","429793.867167","419102.940122","419870.404379","420637.550503","421404.504015","422155.373394","422922.210969","423689.496836","424457.144429","429803.241436","Mapping"
"Blocked","m160","tile","15","m160priest.wav","None","736.106937751","158","432912.852776","425207.241508","425974.71133","426742.10015","427508.869708","428276.500916","429026.699401","429793.867167","433680.07681","419870.404379","420637.550503","421404.504015","422155.373394","422922.210969","423689.496836","424457.144429","432922.349785","Mapping"
"Blocked","m160","tile","15","m160cad.wav","None","732.248217333","158","432912.852776","425207.241508","425974.71133","426742.10015","427508.869708","428276.500916","429026.699401","429793.867167","433680.07681","434447.760885","420637.550503","421404.504015","422155.373394","422922.210969","423689.496836","424457.144429","433689.775705","Mapping"
"Blocked","m160","tile","15","m160tile.wav","None","728.404645808","158","432912.852776","425207.241508","425974.71133","426742.10015","427508.869708","428276.500916","429026.699401","429793.867167","433680.07681","434447.760885","435214.887531","421404.504015","422155.373394","422922.210969","423689.496836","424457.144429","434457.296231","Mapping"
"Blocked","m160","tile","15","m160park.wav","space","446.56657055","158","432912.852776","425207.241508","425974.71133","426742.10015","427508.869708","428276.500916","429026.699401","429793.867167","433680.07681","434447.760885","435214.887531","435981.894839","422155.373394","422922.210969","423689.496836","424457.144429","435225.155295","Mapping"
"Blocked","m160","tile","15","m160greet.wav","None","721.481147688","158","432912.852776","425207.241508","425974.71133","426742.10015","427508.869708","428276.500916","429026.699401","429793.867167","433680.07681","434447.760885","435214.887531","435981.894839","436732.312833","422922.210969","423689.496836","424457.144429","435991.139567","Mapping"
"Blocked","m160","tile","15","m160greet.wav","None","734.830075409","158","432912.852776","425207.241508","425974.71133","426742.10015","427508.869708","428276.500916","429026.699401","429793.867167","433680.07681","434447.760885","435214.887531","435981.894839","436732.312833","437499.795331","423689.496836","424457.144429","436741.527572","Mapping"
"Blocked","m160","tile","15","m160tile.wav","None","730.493381619","158","432912.852776","425207.241508","425974.71133","426742.10015","427508.869708","428276.500916","429026.699401","429793.867167","433680.07681","434447.760885","435214.887531","435981.894839","436732.312833","437499.795331","438267.099439","424457.144429","437509.492372","Mapping"
"Blocked","m160","tile","15","m160lash.wav","space","474.429678638","158","432912.852776","425207.241508","425974.71133","426742.10015","427508.869708","428276.500916","429026.699401","429793.867167","433680.07681","434447.760885","435214.887531","435981.894839","436732.312833","437499.795331","438267.099439","439034.18744","438277.168718","Mapping"
"Blocked","m160","tile","15","m160tile.wav","None","722.412051167","158","432912.852776","439784.506191","425974.71133","426742.10015","427508.869708","428276.500916","429026.699401","429793.867167","433680.07681","434447.760885","435214.887531","435981.894839","436732.312833","437499.795331","438267.099439","439034.18744","439044.164895","Mapping"
"Blocked","m160","tile","15","m160greet.wav","space","557.686029002","158","432912.852776","439784.506191","440551.930875","426742.10015","427508.869708","428276.500916","429026.699401","429793.867167","433680.07681","434447.760885","435214.887531","435981.894839","436732.312833","437499.795331","438267.099439","439034.18744","439793.860674","Mapping"
"Blocked","m160","tile","15","m160jaw.wav","None","731.601747684","158","432912.852776","439784.506191","440551.930875","441318.883151","427508.869708","428276.500916","429026.699401","429793.867167","433680.07681","434447.760885","435214.887531","435981.894839","436732.312833","437499.795331","438267.099439","439034.18744","440561.726231","Mapping"
"Blocked","m160","tile","15","m160tile.wav","None","728.845209815","158","432912.852776","439784.506191","440551.930875","441318.883151","442086.519924","428276.500916","429026.699401","429793.867167","433680.07681","434447.760885","435214.887531","435981.894839","436732.312833","437499.795331","438267.099439","439034.18744","441328.189094","Mapping"
"Blocked","m160","tile","15","m160cling.wav","space","519.41881422","158","432912.852776","439784.506191","440551.930875","441318.883151","442086.519924","442853.750141","429026.699401","429793.867167","433680.07681","434447.760885","435214.887531","435981.894839","436732.312833","437499.795331","438267.099439","439034.18744","442096.064544","Mapping"
"Blocked","m160","tile","15","m160cling.wav","None","720.000544097","158","432912.852776","439784.506191","440551.930875","441318.883151","442086.519924","442853.750141","443604.169681","429793.867167","433680.07681","434447.760885","435214.887531","435981.894839","436732.312833","437499.795331","438267.099439","439034.18744","442863.688641","Mapping"
"Blocked","m160","tile","15","m160priest.wav","None","734.29923458","158","432912.852776","439784.506191","440551.930875","441318.883151","442086.519924","442853.750141","443604.169681","444371.264792","433680.07681","434447.760885","435214.887531","435981.894839","436732.312833","437499.795331","438267.099439","439034.18744","443614.107254","Mapping"
"Blocked","m160","tile","14","m160priest.wav","None","731.270629447","158","447490.489078","439784.506191","440551.930875","441318.883151","442086.519924","442853.750141","443604.169681","444371.264792","433680.07681","434447.760885","435214.887531","435981.894839","436732.312833","437499.795331","438267.099439","439034.18744","444380.901236","Mapping"
"Blocked","m160","tile","14","m160depth.wav","None","735.607013106","158","447490.489078","439784.506191","440551.930875","441318.883151","442086.519924","442853.750141","443604.169681","444371.264792","448257.458358","434447.760885","435214.887531","435981.894839","436732.312833","437499.795331","438267.099439","439034.18744","447500.321534","Mapping"
"Blocked","m160","tile","14","m160jolt.wav","None","732.716296799","158","447490.489078","439784.506191","440551.930875","441318.883151","442086.519924","442853.750141","443604.169681","444371.264792","448257.458358","449024.840995","435214.887531","435981.894839","436732.312833","437499.795331","438267.099439","439034.18744","448267.069141","Mapping"
"Blocked","m160","tile","14","m160reek.wav","None","729.037202429","158","447490.489078","439784.506191","440551.930875","441318.883151","442086.519924","442853.750141","443604.169681","444371.264792","448257.458358","449024.840995","449792.229506","435981.894839","436732.312833","437499.795331","438267.099439","439034.18744","449034.515157","Mapping"
"Blocked","m160","tile","14","m160tile.wav","None","725.496615749","158","447490.489078","439784.506191","440551.930875","441318.883151","442086.519924","442853.750141","443604.169681","444371.264792","448257.458358","449024.840995","449792.229506","450559.317197","436732.312833","437499.795331","438267.099439","439034.18744","449801.893775","Mapping"
"Blocked","m160","tile","14","m160knife.wav","space","390.116902534","158","447490.489078","439784.506191","440551.930875","441318.883151","442086.519924","442853.750141","443604.169681","444371.264792","448257.458358","449024.840995","449792.229506","450559.317197","451309.738593","437499.795331","438267.099439","439034.18744","450569.06525","Mapping"
"Blocked","m160","tile","14","m160tile.wav","None","734.627261292","158","447490.489078","439784.506191","440551.930875","441318.883151","442086.519924","442853.750141","443604.169681","444371.264792","448257.458358","449024.840995","449792.229506","450559.317197","451309.738593","452077.165441","438267.099439","439034.18744","451319.62979","Mapping"
"Blocked","m160","tile","14","m160gnash.wav","space","448.15971097","158","447490.489078","439784.506191","440551.930875","441318.883151","442086.519924","442853.750141","443604.169681","444371.264792","448257.458358","449024.840995","449792.229506","450559.317197","451309.738593","452077.165441","452844.373707","439034.18744","452086.950284","Mapping"
"Blocked","m160","tile","14","m160reek.wav","None","726.953104604","158","447490.489078","439784.506191","440551.930875","441318.883151","442086.519924","442853.750141","443604.169681","444371.264792","448257.458358","449024.840995","449792.229506","450559.317197","451309.738593","452077.165441","452844.373707","453611.548274","452854.234606","Mapping"
"Blocked","m160","tile","14","m160jolt.wav","None","723.798976745","158","447490.489078","454378.744174","440551.930875","441318.883151","442086.519924","442853.750141","443604.169681","444371.264792","448257.458358","449024.840995","449792.229506","450559.317197","451309.738593","452077.165441","452844.373707","453611.548274","453621.170187","Mapping"
"Blocked","m160","tile","14","m160tile.wav","None","720.298272558","158","447490.489078","454378.744174","455129.011913","441318.883151","442086.519924","442853.750141","443604.169681","444371.264792","448257.458358","449024.840995","449792.229506","450559.317197","451309.738593","452077.165441","452844.373707","453611.548274","454388.522525","Mapping"
"Blocked","m160","tile","14","m160cad.wav","space","381.198654883","158","447490.489078","454378.744174","455129.011913","455896.171331","442086.519924","442853.750141","443604.169681","444371.264792","448257.458358","449024.840995","449792.229506","450559.317197","451309.738593","452077.165441","452844.373707","453611.548274","455137.797218","Mapping"
"Blocked","m160","tile","14","m160depth.wav","None","729.714898393","158","447490.489078","454378.744174","455129.011913","455896.171331","456663.770076","442853.750141","443604.169681","444371.264792","448257.458358","449024.840995","449792.229506","450559.317197","451309.738593","452077.165441","452844.373707","453611.548274","455905.681634","Mapping"
"Blocked","m160","tile","14","m160tile.wav","None","725.732510909","158","447490.489078","454378.744174","455129.011913","455896.171331","456663.770076","457430.954846","443604.169681","444371.264792","448257.458358","449024.840995","449792.229506","450559.317197","451309.738593","452077.165441","452844.373707","453611.548274","456673.628811","Mapping"
"Blocked","m160","tile","14","m160lash.wav","space","541.948163416","158","447490.489078","454378.744174","455129.011913","455896.171331","456663.770076","457430.954846","458181.261539","444371.264792","448257.458358","449024.840995","449792.229506","450559.317197","451309.738593","452077.165441","452844.373707","453611.548274","457440.966928","Mapping"
"Blocked","m160","tile","14","m160ball.wav","None","735.45150226","158","447490.489078","454378.744174","455129.011913","455896.171331","456663.770076","457430.954846","458181.261539","458948.909442","448257.458358","449024.840995","449792.229506","450559.317197","451309.738593","452077.165441","452844.373707","453611.548274","458190.590671","Mapping"
"Blocked","m160","ball","6","m160jaw.wav","None","731.478699017","158","462067.661939","454378.744174","455129.011913","455896.171331","456663.770076","457430.954846","458181.261539","458948.909442","448257.458358","449024.840995","449792.229506","450559.317197","451309.738593","452077.165441","452844.373707","453611.548274","458958.63338","Mapping"
"Blocked","m160","ball","6","m160park.wav","None","734.703626018","158","462067.661939","454378.744174","455129.011913","455896.171331","456663.770076","457430.954846","458181.261539","458948.909442","462834.897412","449024.840995","449792.229506","450559.317197","451309.738593","452077.165441","452844.373707","453611.548274","462077.31786","Mapping"
"Blocked","m160","ball","6","m160reek.wav","None","730.582422111","158","462067.661939","454378.744174","455129.011913","455896.171331","456663.770076","457430.954846","458181.261539","458948.909442","462834.897412","463602.246659","449792.229506","450559.317197","451309.738593","452077.165441","452844.373707","453611.548274","462845.242159","Mapping"
"Blocked","m160","ball","6","m160ball.wav","None","727.678411175","158","462067.661939","454378.744174","455129.011913","455896.171331","456663.770076","457430.954846","458181.261539","458948.909442","462834.897412","463602.246659","464369.27128","450559.317197","451309.738593","452077.165441","452844.373707","453611.548274","463612.020682","Mapping"
"Blocked","m160","ball","6","m160done.wav","space","403.756447602","158","462067.661939","454378.744174","455129.011913","455896.171331","456663.770076","457430.954846","458181.261539","458948.909442","462834.897412","463602.246659","464369.27128","465136.196349","451309.738593","452077.165441","452844.373707","453611.548274","464378.920399","Mapping"
"Blocked","m160","ball","6","m160ball.wav","None","721.255455632","158","462067.661939","454378.744174","455129.011913","455896.171331","456663.770076","457430.954846","458181.261539","458948.909442","462834.897412","463602.246659","464369.27128","465136.196349","465887.087679","452077.165441","452844.373707","453611.548274","465145.213839","Mapping"
"Blocked","m160","ball","6","m160romp.wav","None","733.34885342","158","462067.661939","454378.744174","455129.011913","455896.171331","456663.770076","457430.954846","458181.261539","458948.909442","462834.897412","463602.246659","464369.27128","465136.196349","465887.087679","466653.905467","452844.373707","453611.548274","465896.994953","Mapping"
"Blocked","m160","ball","6","m160ball.wav","space","7.390959654","158","462067.661939","454378.744174","455129.011913","455896.171331","456663.770076","457430.954846","458181.261539","458948.909442","462834.897412","463602.246659","464369.27128","465136.196349","465887.087679","466653.905467","467421.672708","453611.548274","466663.225013","Mapping"
"Blocked","m160","ball","6","m160priest.wav","space","447.629797738","158","462067.661939","454378.744174","455129.011913","455896.171331","456663.770076","457430.954846","458181.261539","458948.909442","462834.897412","463602.246659","464369.27128","465136.196349","465887.087679","466653.905467","467421.672708","468188.832435","467430.944643","Mapping"
"Blocked","m160","ball","6","m160romp.wav","None","721.180018503","158","462067.661939","468939.08688","455129.011913","455896.171331","456663.770076","457430.954846","458181.261539","458948.909442","462834.897412","463602.246659","464369.27128","465136.196349","465887.087679","466653.905467","467421.672708","468188.832435","468198.83988","Mapping"
"Blocked","m160","ball","6","m160priest.wav","None","735.165522434","158","462067.661939","468939.08688","469706.670785","455896.171331","456663.770076","457430.954846","458181.261539","458948.909442","462834.897412","463602.246659","464369.27128","465136.196349","465887.087679","466653.905467","467421.672708","468188.832435","468948.674475","Mapping"
"Blocked","m160","ball","6","m160depth.wav","None","731.070597656","158","462067.661939","468939.08688","469706.670785","470473.760949","456663.770076","457430.954846","458181.261539","458948.909442","462834.897412","463602.246659","464369.27128","465136.196349","465887.087679","466653.905467","467421.672708","468188.832435","469716.610522","Mapping"
"Blocked","m160","ball","6","m160cave.wav","None","728.079092223","158","462067.661939","468939.08688","469706.670785","470473.760949","471241.026103","457430.954846","458181.261539","458948.909442","462834.897412","463602.246659","464369.27128","465136.196349","465887.087679","466653.905467","467421.672708","468188.832435","470483.573928","Mapping"
"Blocked","m160","ball","6","m160ball.wav","None","724.775946233","158","462067.661939","468939.08688","469706.670785","470473.760949","471241.026103","472008.266831","458181.261539","458948.909442","462834.897412","463602.246659","464369.27128","465136.196349","465887.087679","466653.905467","467421.672708","468188.832435","471250.558048","Mapping"
"Blocked","m160","ball","6","m160priest.wav","space","428.639489692","158","462067.661939","468939.08688","469706.670785","470473.760949","471241.026103","472008.266831","472758.670914","458948.909442","462834.897412","463602.246659","464369.27128","465136.196349","465887.087679","466653.905467","467421.672708","468188.832435","472017.768478","Mapping"
"Blocked","m160","ball","6","m160done.wav","None","733.878766652","158","462067.661939","468939.08688","469706.670785","470473.760949","471241.026103","472008.266831","472758.670914","473525.905459","462834.897412","463602.246659","464369.27128","465136.196349","465887.087679","466653.905467","467421.672708","468188.832435","472768.664446","Mapping"
"Blocked","m160","ball","5","m160park.wav","None","730.912304018","158","476661.137205","468939.08688","469706.670785","470473.760949","471241.026103","472008.266831","472758.670914","473525.905459","462834.897412","463602.246659","464369.27128","465136.196349","465887.087679","466653.905467","467421.672708","468188.832435","473535.59477","Mapping"
"Blocked","m160","ball","5","m160ball.wav","None","721.082939766","158","476661.137205","468939.08688","469706.670785","470473.760949","471241.026103","472008.266831","472758.670914","473525.905459","477411.868077","463602.246659","464369.27128","465136.196349","465887.087679","466653.905467","467421.672708","468188.832435","476670.267541","Mapping"
"Blocked","m160","ball","5","m160tile.wav","space","296.55043222","158","476661.137205","468939.08688","469706.670785","470473.760949","471241.026103","472008.266831","472758.670914","473525.905459","477411.868077","478179.205575","464369.27128","465136.196349","465887.087679","466653.905467","467421.672708","468188.832435","477421.651684","Mapping"
"Blocked","m160","ball","5","m160romp.wav","None","729.436647147","158","476661.137205","468939.08688","469706.670785","470473.760949","471241.026103","472008.266831","472758.670914","473525.905459","477411.868077","478179.205575","478946.213501","465136.196349","465887.087679","466653.905467","467421.672708","468188.832435","478188.743395","Mapping"
"Blocked","m160","ball","5","m160cad.wav","None","726.769767702","158","476661.137205","468939.08688","469706.670785","470473.760949","471241.026103","472008.266831","472758.670914","473525.905459","477411.868077","478179.205575","478946.213501","479713.742993","465887.087679","466653.905467","467421.672708","468188.832435","478955.357132","Mapping"
"Blocked","m160","ball","5","m160ball.wav","None","722.483469173","158","476661.137205","468939.08688","469706.670785","470473.760949","471241.026103","472008.266831","472758.670914","473525.905459","477411.868077","478179.205575","478946.213501","479713.742993","480464.483758","466653.905467","467421.672708","468188.832435","479723.57854","Mapping"
"Blocked","m160","ball","5","m160reek.wav","space","315.465612803","158","476661.137205","468939.08688","469706.670785","470473.760949","471241.026103","472008.266831","472758.670914","473525.905459","477411.868077","478179.205575","478946.213501","479713.742993","480464.483758","481231.220235","467421.672708","468188.832435","480474.610851","Mapping"
"Blocked","m160","ball","5","m160priest.wav","None","732.209261972","158","476661.137205","468939.08688","469706.670785","470473.760949","471241.026103","472008.266831","472758.670914","473525.905459","477411.868077","478179.205575","478946.213501","479713.742993","480464.483758","481231.220235","481998.459418","468188.832435","481240.609345","Mapping"
"Blocked","m160","ball","5","m160tile.wav","None","729.332766961","158","476661.137205","468939.08688","469706.670785","470473.760949","471241.026103","472008.266831","472758.670914","473525.905459","477411.868077","478179.205575","478946.213501","479713.742993","480464.483758","481231.220235","481998.459418","482766.052598","482007.60645","Mapping"
"Blocked","m160","ball","5","m160ball.wav","None","725.664184429","158","476661.137205","483532.915524","469706.670785","470473.760949","471241.026103","472008.266831","472758.670914","473525.905459","477411.868077","478179.205575","478946.213501","479713.742993","480464.483758","481231.220235","481998.459418","482766.052598","482775.575577","Mapping"
"Blocked","m160","ball","5","m160depth.wav","space","317.208080553","158","476661.137205","483532.915524","484283.628465","470473.760949","471241.026103","472008.266831","472758.670914","473525.905459","477411.868077","478179.205575","478946.213501","479713.742993","480464.483758","481231.220235","481998.459418","482766.052598","483536.75755","Mapping"
"Blocked","m160","ball","5","m160jaw.wav","None","734.688785858","158","476661.137205","483532.915524","484283.628465","485050.991315","471241.026103","472008.266831","472758.670914","473525.905459","477411.868077","478179.205575","478946.213501","479713.742993","480464.483758","481231.220235","481998.459418","482766.052598","484293.634054","Mapping"
"Blocked","m160","ball","5","m160reek.wav","None","731.633591931","158","476661.137205","483532.915524","484283.628465","485050.991315","485818.241009","472008.266831","472758.670914","473525.905459","477411.868077","478179.205575","478946.213501","479713.742993","480464.483758","481231.220235","481998.459418","482766.052598","485060.58262","Mapping"
"Blocked","m160","ball","5","m160reek.wav","None","728.141544387","158","476661.137205","483532.915524","484283.628465","485050.991315","485818.241009","486585.464116","472758.670914","473525.905459","477411.868077","478179.205575","478946.213501","479713.742993","480464.483758","481231.220235","481998.459418","482766.052598","485827.936195","Mapping"
"Blocked","m160","ball","5","m160ball.wav","None","724.373719189","158","476661.137205","483532.915524","484283.628465","485050.991315","485818.241009","486585.464116","487352.486263","473525.905459","477411.868077","478179.205575","478946.213501","479713.742993","480464.483758","481231.220235","481998.459418","482766.052598","486595.644386","Mapping"
"Blocked","m160","ball","5","m160greet.wav","space","467.888620682","158","476661.137205","483532.915524","484283.628465","485050.991315","485818.241009","486585.464116","487352.486263","488103.168287","477411.868077","478179.205575","478946.213501","479713.742993","480464.483758","481231.220235","481998.459418","482766.052598","487361.934424","Mapping"
"Blocked","m160","cave","12","m160done.wav","None","735.015885439","158","491221.940571","483532.915524","484283.628465","485050.991315","485818.241009","486585.464116","487352.486263","488103.168287","477411.868077","478179.205575","478946.213501","479713.742993","480464.483758","481231.220235","481998.459418","482766.052598","488113.086692","Mapping"
"Blocked","m160","cave","12","m160gnash.wav","None","735.633292701","158","491221.940571","483532.915524","484283.628465","485050.991315","485818.241009","486585.464116","487352.486263","488103.168287","491988.967665","478179.205575","478946.213501","479713.742993","480464.483758","481231.220235","481998.459418","482766.052598","491231.661726","Mapping"
"Blocked","m160","cave","12","m160cave.wav","None","732.741030399","158","491221.940571","483532.915524","484283.628465","485050.991315","485818.241009","486585.464116","487352.486263","488103.168287","491988.967665","492757.031398","478946.213501","479713.742993","480464.483758","481231.220235","481998.459418","482766.052598","491998.396039","Mapping"
"Blocked","m160","cave","12","m160jaw.wav","space","486.918192822","158","491221.940571","483532.915524","484283.628465","485050.991315","485818.241009","486585.464116","487352.486263","488103.168287","491988.967665","492757.031398","493523.920603","479713.742993","480464.483758","481231.220235","481998.459418","482766.052598","492766.719163","Mapping"
"Blocked","m160","cave","12","m160lash.wav","None","724.463996012","158","491221.940571","483532.915524","484283.628465","485050.991315","485818.241009","486585.464116","487352.486263","488103.168287","491988.967665","492757.031398","493523.920603","494291.154222","480464.483758","481231.220235","481998.459418","482766.052598","493533.748422","Mapping"
"Blocked","m160","cave","12","m160dime.wav","None","721.371393185","158","491221.940571","483532.915524","484283.628465","485050.991315","485818.241009","486585.464116","487352.486263","488103.168287","491988.967665","492757.031398","493523.920603","494291.154222","495041.448549","481231.220235","481998.459418","482766.052598","494300.787882","Mapping"
"Blocked","m160","cave","12","m160cave.wav","None","735.083902255","158","491221.940571","483532.915524","484283.628465","485050.991315","485818.241009","486585.464116","487352.486263","488103.168287","491988.967665","492757.031398","493523.920603","494291.154222","495041.448549","495808.411645","481998.459418","482766.052598","495051.075099","Mapping"
"Blocked","m160","cave","12","m160cling.wav","space","555.416429881","158","491221.940571","483532.915524","484283.628465","485050.991315","485818.241009","486585.464116","487352.486263","488103.168287","491988.967665","492757.031398","493523.920603","494291.154222","495041.448549","495808.411645","496576.072842","482766.052598","495818.084571","Mapping"
"Blocked","m160","cave","12","m160cave.wav","None","727.145715617","158","491221.940571","483532.915524","484283.628465","485050.991315","485818.241009","486585.464116","487352.486263","488103.168287","491988.967665","492757.031398","493523.920603","494291.154222","495041.448549","495808.411645","496576.072842","497343.392409","496585.863251","Mapping"
"Blocked","m160","cave","12","m160greet.wav","None","723.732505925","158","491221.940571","498110.574087","484283.628465","485050.991315","485818.241009","486585.464116","487352.486263","488103.168287","491988.967665","492757.031398","493523.920603","494291.154222","495041.448549","495808.411645","496576.072842","497343.392409","497353.149737","Mapping"
"Blocked","m160","cave","12","m160depth.wav","space","0.0333902426064","158","491221.940571","498110.574087","498861.055152","485050.991315","485818.241009","486585.464116","487352.486263","488103.168287","491988.967665","492757.031398","493523.920603","494291.154222","495041.448549","495808.411645","496576.072842","497343.392409","498120.566383","Mapping"
"Blocked","m160","cave","12","m160cave.wav","None","732.697437517","158","491221.940571","498110.574087","498861.055152","499627.970327","485818.241009","486585.464116","487352.486263","488103.168287","491988.967665","492757.031398","493523.920603","494291.154222","495041.448549","495808.411645","496576.072842","497343.392409","498870.977266","Mapping"
"Blocked","m160","cave","12","m160romp.wav","space","584.073171485","158","491221.940571","498110.574087","498861.055152","499627.970327","500395.600608","486585.464116","487352.486263","488103.168287","491988.967665","492757.031398","493523.920603","494291.154222","495041.448549","495808.411645","496576.072842","497343.392409","499637.328829","Mapping"
"Blocked","m160","cave","12","m160lash.wav","None","724.970103707","158","491221.940571","498110.574087","498861.055152","499627.970327","500395.600608","501162.668203","487352.486263","488103.168287","491988.967665","492757.031398","493523.920603","494291.154222","495041.448549","495808.411645","496576.072842","497343.392409","500405.633095","Mapping"
"Blocked","m160","cave","12","m160jolt.wav","None","721.981998999","158","491221.940571","498110.574087","498861.055152","499627.970327","500395.600608","501162.668203","501912.961603","488103.168287","491988.967665","492757.031398","493523.920603","494291.154222","495041.448549","495808.411645","496576.072842","497343.392409","501172.568366","Mapping"
"Blocked","m160","cave","12","m160cling.wav","None","735.879390035","158","491221.940571","498110.574087","498861.055152","499627.970327","500395.600608","501162.668203","501912.961603","502680.59281","491988.967665","492757.031398","493523.920603","494291.154222","495041.448549","495808.411645","496576.072842","497343.392409","501922.708728","Mapping"
"Blocked","m160","tile","17","m160cad.wav","None","737.817870453","158","505799.238026","498110.574087","498861.055152","499627.970327","500395.600608","501162.668203","501912.961603","502680.59281","491988.967665","492757.031398","493523.920603","494291.154222","495041.448549","495808.411645","496576.072842","497343.392409","502685.063373","Mapping"
"Blocked","m160","tile","17","m160tile.wav","None","736.002129503","158","505799.238026","498110.574087","498861.055152","499627.970327","500395.600608","501162.668203","501912.961603","502680.59281","506566.740619","492757.031398","493523.920603","494291.154222","495041.448549","495808.411645","496576.072842","497343.392409","505808.779555","Mapping"
"Blocked","m160","tile","17","m160jaw.wav","space","524.640654214","158","505799.238026","498110.574087","498861.055152","499627.970327","500395.600608","501162.668203","501912.961603","502680.59281","506566.740619","507333.695987","493523.920603","494291.154222","495041.448549","495808.411645","496576.072842","497343.392409","506576.498566","Mapping"
"Blocked","m160","tile","17","m160depth.wav","None","728.809964377","158","505799.238026","498110.574087","498861.055152","499627.970327","500395.600608","501162.668203","501912.961603","502680.59281","506566.740619","507333.695987","508101.282365","494291.154222","495041.448549","495808.411645","496576.072842","497343.392409","507343.3179","Mapping"
"Blocked","m160","tile","17","m160tile.wav","None","724.954026751","158","505799.238026","498110.574087","498861.055152","499627.970327","500395.600608","501162.668203","501912.961603","502680.59281","506566.740619","507333.695987","508101.282365","508868.255664","495041.448549","495808.411645","496576.072842","497343.392409","508111.300322","Mapping"
"Blocked","m160","tile","17","m160gnash.wav","space","567.101418041","158","505799.238026","498110.574087","498861.055152","499627.970327","500395.600608","501162.668203","501912.961603","502680.59281","506566.740619","507333.695987","508101.282365","508868.255664","509618.609352","495808.411645","496576.072842","497343.392409","508877.945903","Mapping"
"Blocked","m160","tile","17","m160jolt.wav","None","734.985586256","158","505799.238026","498110.574087","498861.055152","499627.970327","500395.600608","501162.668203","501912.961603","502680.59281","506566.740619","507333.695987","508101.282365","508868.255664","509618.609352","510386.094323","496576.072842","497343.392409","509628.279495","Mapping"
"Blocked","m160","tile","17","m160ball.wav","None","731.660489459","158","505799.238026","498110.574087","498861.055152","499627.970327","500395.600608","501162.668203","501912.961603","502680.59281","506566.740619","507333.695987","508101.282365","508868.255664","509618.609352","510386.094323","511153.292078","497343.392409","510395.716545","Mapping"
"Blocked","m160","tile","17","m160gnash.wav","None","728.030243888","158","505799.238026","498110.574087","498861.055152","499627.970327","500395.600608","501162.668203","501912.961603","502680.59281","506566.740619","507333.695987","508101.282365","508868.255664","509618.609352","510386.094323","511153.292078","511920.475611","511163.544693","Mapping"
"Blocked","m160","tile","17","m160tile.wav","None","725.741167087","158","505799.238026","512687.520019","498861.055152","499627.970327","500395.600608","501162.668203","501912.961603","502680.59281","506566.740619","507333.695987","508101.282365","508868.255664","509618.609352","510386.094323","511153.292078","511920.475611","511929.981895","Mapping"
"Blocked","m160","tile","17","m160depth.wav","space","379.428670742","158","505799.238026","512687.520019","513438.051168","499627.970327","500395.600608","501162.668203","501912.961603","502680.59281","506566.740619","507333.695987","508101.282365","508868.255664","509618.609352","510386.094323","511153.292078","511920.475611","512697.498092","Mapping"
"Blocked","m160","tile","17","m160tile.wav","None","735.14388036","158","505799.238026","512687.520019","513438.051168","514205.478016","500395.600608","501162.668203","501912.961603","502680.59281","506566.740619","507333.695987","508101.282365","508868.255664","509618.609352","510386.094323","511153.292078","511920.475611","513447.785","Mapping"
"Blocked","m160","tile","17","m160jolt.wav","space","517.378926743","158","505799.238026","512687.520019","513438.051168","514205.478016","514972.816442","501162.668203","501912.961603","502680.59281","506566.740619","507333.695987","508101.282365","508868.255664","509618.609352","510386.094323","511153.292078","511920.475611","514215.496591","Mapping"
"Blocked","m160","tile","17","m160ball.wav","None","728.055286687","158","505799.238026","512687.520019","513438.051168","514205.478016","514972.816442","515739.637322","501912.961603","502680.59281","506566.740619","507333.695987","508101.282365","508868.255664","509618.609352","510386.094323","511153.292078","511920.475611","514982.554293","Mapping"
"Blocked","m160","tile","17","m160depth.wav","None","726.580866147","158","505799.238026","512687.520019","513438.051168","514205.478016","514972.816442","515739.637322","516507.063861","502680.59281","506566.740619","507333.695987","508101.282365","508868.255664","509618.609352","510386.094323","511153.292078","511920.475611","515748.741379","Mapping"
"Blocked","m160","tile","17","m160greet.wav","None","722.692775074","158","505799.238026","512687.520019","513438.051168","514205.478016","514972.816442","515739.637322","516507.063861","517274.380026","506566.740619","507333.695987","508101.282365","508868.255664","509618.609352","510386.094323","511153.292078","511920.475611","516516.900645","Mapping"
"Blocked","m160","done","20","m160jolt.wav","None","719.451153651","158","520376.58773","512687.520019","513438.051168","514205.478016","514972.816442","515739.637322","516507.063861","517274.380026","506566.740619","507333.695987","508101.282365","508868.255664","509618.609352","510386.094323","511153.292078","511920.475611","517284.311106","Mapping"
"Blocked","m160","done","20","m160bluff.wav","None","735.974304378","158","520376.58773","512687.520019","513438.051168","514205.478016","514972.816442","515739.637322","516507.063861","517274.380026","521143.556701","507333.695987","508101.282365","508868.255664","509618.609352","510386.094323","511153.292078","511920.475611","520386.134515","Mapping"
"Blocked","m160","done","20","m160priest.wav","None","733.271561563","158","520376.58773","512687.520019","513438.051168","514205.478016","514972.816442","515739.637322","516507.063861","517274.380026","521143.556701","521911.178942","508101.282365","508868.255664","509618.609352","510386.094323","511153.292078","511920.475611","521152.948902","Mapping"
"Blocked","m160","done","20","m160done.wav","None","729.336167686","158","520376.58773","512687.520019","513438.051168","514205.478016","514972.816442","515739.637322","516507.063861","517274.380026","521143.556701","521911.178942","522677.899652","508868.255664","509618.609352","510386.094323","511153.292078","511920.475611","521921.03304","Mapping"
"Blocked","m160","done","20","m160ball.wav","space","405.182019342","158","520376.58773","512687.520019","513438.051168","514205.478016","514972.816442","515739.637322","516507.063861","517274.380026","521143.556701","521911.178942","522677.899652","523445.324644","509618.609352","510386.094323","511153.292078","511920.475611","522687.366671","Mapping"
"Blocked","m160","done","20","m160cling.wav","None","723.056047224","158","520376.58773","512687.520019","513438.051168","514205.478016","514972.816442","515739.637322","516507.063861","517274.380026","521143.556701","521911.178942","522677.899652","523445.324644","524196.477839","510386.094323","511153.292078","511920.475611","523454.618221","Mapping"
"Blocked","m160","done","20","m160done.wav","None","735.572695732","158","520376.58773","512687.520019","513438.051168","514205.478016","514972.816442","515739.637322","516507.063861","517274.380026","521143.556701","521911.178942","522677.899652","523445.324644","524196.477839","524963.480509","511153.292078","511920.475611","524206.185392","Mapping"
"Blocked","m160","done","20","m160cad.wav","space","471.336456947","158","520376.58773","512687.520019","513438.051168","514205.478016","514972.816442","515739.637322","516507.063861","517274.380026","521143.556701","521911.178942","522677.899652","523445.324644","524196.477839","524963.480509","525730.224406","511920.475611","524973.139213","Mapping"
"Blocked","m160","done","20","m160done.wav","None","729.07739412","158","520376.58773","512687.520019","513438.051168","514205.478016","514972.816442","515739.637322","516507.063861","517274.380026","521143.556701","521911.178942","522677.899652","523445.324644","524196.477839","524963.480509","525730.224406","526497.51522","525739.702247","Mapping"
"Blocked","m160","done","20","m160park.wav","space","481.557845604","158","520376.58773","527265.02307","513438.051168","514205.478016","514972.816442","515739.637322","516507.063861","517274.380026","521143.556701","521911.178942","522677.899652","523445.324644","524196.477839","524963.480509","525730.224406","526497.51522","526506.863211","Mapping"
"Blocked","m160","done","20","m160done.wav","None","721.297502052","158","520376.58773","527265.02307","528015.431171","514205.478016","514972.816442","515739.637322","516507.063861","517274.380026","521143.556701","521911.178942","522677.899652","523445.324644","524196.477839","524963.480509","525730.224406","526497.51522","527274.643128","Mapping"
"Blocked","m160","done","20","m160priest.wav","space","387.293584645","158","520376.58773","527265.02307","528015.431171","528782.70189","514972.816442","515739.637322","516507.063861","517274.380026","521143.556701","521911.178942","522677.899652","523445.324644","524196.477839","524963.480509","525730.224406","526497.51522","528025.0806","Mapping"
"Blocked","m160","done","20","m160cling.wav","None","729.973980226","158","520376.58773","527265.02307","528015.431171","528782.70189","529549.910774","515739.637322","516507.063861","517274.380026","521143.556701","521911.178942","522677.899652","523445.324644","524196.477839","524963.480509","525730.224406","526497.51522","528793.034269","Mapping"
"Blocked","m160","done","20","m160gnash.wav","None","727.745810058","158","520376.58773","527265.02307","528015.431171","528782.70189","529549.910774","530317.15274","516507.063861","517274.380026","521143.556701","521911.178942","522677.899652","523445.324644","524196.477839","524963.480509","525730.224406","526497.51522","529559.436536","Mapping"
"Blocked","m160","done","20","m160tile.wav","None","724.447610322","158","520376.58773","527265.02307","528015.431171","528782.70189","529549.910774","530317.15274","531084.444791","517274.380026","521143.556701","521911.178942","522677.899652","523445.324644","524196.477839","524963.480509","525730.224406","526497.51522","530326.835868","Mapping"
"Blocked","m160","done","20","m160priest.wav","None","721.147865057","158","520376.58773","527265.02307","528015.431171","528782.70189","529549.910774","530317.15274","531084.444791","531834.76818","521143.556701","521911.178942","522677.899652","523445.324644","524196.477839","524963.480509","525730.224406","526497.51522","531094.431212","Mapping"
"Blocked","m160","cave","10","m160dime.wav","None","735.107398592","158","534953.775431","527265.02307","528015.431171","528782.70189","529549.910774","530317.15274","531084.444791","531834.76818","521143.556701","521911.178942","522677.899652","523445.324644","524196.477839","524963.480509","525730.224406","526497.51522","531844.741616","Mapping"
"Blocked","m160","cave","10","m160done.wav","None","735.131513793","158","534953.775431","527265.02307","528015.431171","528782.70189","529549.910774","530317.15274","531084.444791","531834.76818","535720.87487","521911.178942","522677.899652","523445.324644","524196.477839","524963.480509","525730.224406","526497.51522","534963.376629","Mapping"
"Blocked","m160","cave","10","m160knife.wav","None","732.547490858","158","534953.775431","527265.02307","528015.431171","528782.70189","529549.910774","530317.15274","531084.444791","531834.76818","535720.87487","536488.091175","522677.899652","523445.324644","524196.477839","524963.480509","525730.224406","526497.51522","535730.147114","Mapping"
"Blocked","m160","cave","10","m160cave.wav","None","729.520740919","158","534953.775431","527265.02307","528015.431171","528782.70189","529549.910774","530317.15274","531084.444791","531834.76818","535720.87487","536488.091175","537255.62283","523445.324644","524196.477839","524963.480509","525730.224406","526497.51522","536497.479975","Mapping"
"Blocked","m160","cave","10","m160park.wav","space","474.564166274","158","534953.775431","527265.02307","528015.431171","528782.70189","529549.910774","530317.15274","531084.444791","531834.76818","535720.87487","536488.091175","537255.62283","538022.898804","524196.477839","524963.480509","525730.224406","526497.51522","537265.463016","Mapping"
"Blocked","m160","cave","10","m160park.wav","None","721.376030706","158","534953.775431","527265.02307","528015.431171","528782.70189","529549.910774","530317.15274","531084.444791","531834.76818","535720.87487","536488.091175","537255.62283","538022.898804","538773.174273","524963.480509","525730.224406","526497.51522","538032.664789","Mapping"
"Blocked","m160","cave","10","m160cave.wav","None","735.234466381","158","534953.775431","527265.02307","528015.431171","528782.70189","529549.910774","530317.15274","531084.444791","531834.76818","535720.87487","536488.091175","537255.62283","538022.898804","538773.174273","539540.567421","525730.224406","526497.51522","538783.012912","Mapping"
"Blocked","m160","cave","10","m160cling.wav","space","629.664874636","158","534953.775431","527265.02307","528015.431171","528782.70189","529549.910774","530317.15274","531084.444791","531834.76818","535720.87487","536488.091175","537255.62283","538022.898804","538773.174273","539540.567421","540307.323994","526497.51522","539550.312383","Mapping"
"Blocked","m160","cave","10","m160cave.wav","None","731.056375895","158","534953.775431","527265.02307","528015.431171","528782.70189","529549.910774","530317.15274","531084.444791","531834.76818","535720.87487","536488.091175","537255.62283","538022.898804","538773.174273","539540.567421","540307.323994","541074.733219","540316.574288","Mapping"
"Blocked","m160","cave","10","m160depth.wav","space","704.221250024","158","534953.775431","541841.851209","528015.431171","528782.70189","529549.910774","530317.15274","531084.444791","531834.76818","535720.87487","536488.091175","537255.62283","538022.898804","538773.174273","539540.567421","540307.323994","541074.733219","541083.669708","Mapping"
"Blocked","m160","cave","10","m160cave.wav","None","723.816290498","158","534953.775431","541841.851209","542609.32134","528782.70189","529549.910774","530317.15274","531084.444791","531834.76818","535720.87487","536488.091175","537255.62283","538022.898804","538773.174273","539540.567421","540307.323994","541074.733219","541850.879211","Mapping"
"Blocked","m160","cave","10","m160reek.wav","space","625.155047514","158","534953.775431","541841.851209","542609.32134","543360.067362","529549.910774","530317.15274","531084.444791","531834.76818","535720.87487","536488.091175","537255.62283","538022.898804","538773.174273","539540.567421","540307.323994","541074.733219","542618.643979","Mapping"
"Blocked","m160","cave","10","m160done.wav","None","731.857738458","158","534953.775431","541841.851209","542609.32134","543360.067362","544126.926887","530317.15274","531084.444791","531834.76818","535720.87487","536488.091175","537255.62283","538022.898804","538773.174273","539540.567421","540307.323994","541074.733219","543369.987003","Mapping"
"Blocked","m160","cave","10","m160cling.wav","None","729.54145493","158","534953.775431","541841.851209","542609.32134","543360.067362","544126.926887","544894.063117","531084.444791","531834.76818","535720.87487","536488.091175","537255.62283","538022.898804","538773.174273","539540.567421","540307.323994","541074.733219","544136.560548","Mapping"
"Blocked","m160","cave","10","m160cling.wav","None","727.101504803","158","534953.775431","541841.851209","542609.32134","543360.067362","544126.926887","544894.063117","545661.788312","531834.76818","535720.87487","536488.091175","537255.62283","538022.898804","538773.174273","539540.567421","540307.323994","541074.733219","544903.405233","Mapping"
"Blocked","m160","cave","10","m160jaw.wav","None","723.069959786","158","534953.775431","541841.851209","542609.32134","543360.067362","544126.926887","544894.063117","545661.788312","546429.005544","535720.87487","536488.091175","537255.62283","538022.898804","538773.174273","539540.567421","540307.323994","541074.733219","545671.631589","Mapping"
"Blocked","m160","tile","13","m160jaw.wav","None","720.241694711","158","549530.944272","541841.851209","542609.32134","543360.067362","544126.926887","544894.063117","545661.788312","546429.005544","535720.87487","536488.091175","537255.62283","538022.898804","538773.174273","539540.567421","540307.323994","541074.733219","546438.733501","Mapping"
"Blocked","m160","tile","13","m160tile.wav","None","735.561874695","158","549530.944272","541841.851209","542609.32134","543360.067362","544126.926887","544894.063117","545661.788312","546429.005544","550298.4008","536488.091175","537255.62283","538022.898804","538773.174273","539540.567421","540307.323994","541074.733219","549540.68676","Mapping"
"Blocked","m160","tile","13","m160dime.wav","space","479.814450257","158","549530.944272","541841.851209","542609.32134","543360.067362","544126.926887","544894.063117","545661.788312","546429.005544","550298.4008","551065.639674","537255.62283","538022.898804","538773.174273","539540.567421","540307.323994","541074.733219","550307.773214","Mapping"
"Blocked","m160","tile","13","m160tile.wav","None","727.478689048","158","549530.944272","541841.851209","542609.32134","543360.067362","544126.926887","544894.063117","545661.788312","546429.005544","550298.4008","551065.639674","551832.851959","538022.898804","538773.174273","539540.567421","540307.323994","541074.733219","551076.09974","Mapping"
"Blocked","m160","tile","13","m160romp.wav","None","724.786458071","158","549530.944272","541841.851209","542609.32134","543360.067362","544126.926887","544894.063117","545661.788312","546429.005544","550298.4008","551065.639674","551832.851959","552600.050332","538773.174273","539540.567421","540307.323994","541074.733219","551843.101792","Mapping"
"Blocked","m160","tile","13","m160tile.wav","space","0.0333902426064","158","549530.944272","541841.851209","542609.32134","543360.067362","544126.926887","544894.063117","545661.788312","546429.005544","550298.4008","551065.639674","551832.851959","552600.050332","553350.553967","539540.567421","540307.323994","541074.733219","552609.796531","Mapping"
"Blocked","m160","tile","13","m160cave.wav","space","659.253137652","158","549530.944272","541841.851209","542609.32134","543360.067362","544126.926887","544894.063117","545661.788312","546429.005544","550298.4008","551065.639674","551832.851959","552600.050332","553350.553967","554117.801806","540307.323994","541074.733219","553360.185154","Mapping"
"Blocked","m160","tile","13","m160depth.wav","None","730.902101379","158","549530.944272","541841.851209","542609.32134","543360.067362","544126.926887","544894.063117","545661.788312","546429.005544","550298.4008","551065.639674","551832.851959","552600.050332","553350.553967","554117.801806","554885.015019","541074.733219","554127.516779","Mapping"
"Blocked","m160","tile","13","m160jolt.wav","None","728.404955007","158","549530.944272","541841.851209","542609.32134","543360.067362","544126.926887","544894.063117","545661.788312","546429.005544","550298.4008","551065.639674","551832.851959","552600.050332","553350.553967","554117.801806","554885.015019","555652.402603","554894.456687","Mapping"
"Blocked","m160","tile","13","m160cave.wav","None","724.6161066","158","549530.944272","556419.595102","542609.32134","543360.067362","544126.926887","544894.063117","545661.788312","546429.005544","550298.4008","551065.639674","551832.851959","552600.050332","553350.553967","554117.801806","554885.015019","555652.402603","555662.78816","Mapping"
"Blocked","m160","tile","13","m160cling.wav","None","722.311880905","158","549530.944272","556419.595102","557186.589115","543360.067362","544126.926887","544894.063117","545661.788312","546429.005544","550298.4008","551065.639674","551832.851959","552600.050332","553350.553967","554117.801806","554885.015019","555652.402603","556429.370053","Mapping"
"Blocked","m160","tile","13","m160jolt.wav","None","719.146314077","158","549530.944272","556419.595102","557186.589115","557937.306384","544126.926887","544894.063117","545661.788312","546429.005544","550298.4008","551065.639674","551832.851959","552600.050332","553350.553967","554117.801806","554885.015019","555652.402603","557196.891506","Mapping"
"Blocked","m160","tile","13","m160done.wav","None","733.482104726","158","549530.944272","556419.595102","557186.589115","557937.306384","558704.594106","544894.063117","545661.788312","546429.005544","550298.4008","551065.639674","551832.851959","552600.050332","553350.553967","554117.801806","554885.015019","555652.402603","557946.946538","Mapping"
"Blocked","m160","tile","13","m160tile.wav","None","730.530482251","158","549530.944272","556419.595102","557186.589115","557937.306384","558704.594106","559471.628929","545661.788312","546429.005544","550298.4008","551065.639674","551832.851959","552600.050332","553350.553967","554117.801806","554885.015019","555652.402603","558714.446967","Mapping"
"Blocked","m160","tile","13","m160done.wav","space","409.825716168","158","549530.944272","556419.595102","557186.589115","557937.306384","558704.594106","559471.628929","560238.827921","546429.005544","550298.4008","551065.639674","551832.851959","552600.050332","553350.553967","554117.801806","554885.015019","555652.402603","559481.413774","Mapping"
"Blocked","m160","tile","13","m160gnash.wav","None","724.123602733","158","549530.944272","556419.595102","557186.589115","557937.306384","558704.594106","559471.628929","560238.827921","561006.063703","550298.4008","551065.639674","551832.851959","552600.050332","553350.553967","554117.801806","554885.015019","555652.402603","560248.205282","Mapping"
"Blocked","m160","done","19","m160greet.wav","None","720.69122456","158","564108.11064","556419.595102","557186.589115","557937.306384","558704.594106","559471.628929","560238.827921","561006.063703","550298.4008","551065.639674","551832.851959","552600.050332","553350.553967","554117.801806","554885.015019","555652.402603","561016.15957","Mapping"
"Blocked","m160","done","19","m160done.wav","None","735.669774469","158","564108.11064","556419.595102","557186.589115","557937.306384","558704.594106","559471.628929","560238.827921","561006.063703","564875.600249","551065.639674","551832.851959","552600.050332","553350.553967","554117.801806","554885.015019","555652.402603","564117.877552","Mapping"
"Blocked","m160","done","19","m160gnash.wav","space","421.761748381","158","564108.11064","556419.595102","557186.589115","557937.306384","558704.594106","559471.628929","560238.827921","561006.063703","564875.600249","565642.989996","551832.851959","552600.050332","553350.553967","554117.801806","554885.015019","555652.402603","564885.261426","Mapping"
"Blocked","m160","done","19","m160cad.wav","None","728.133814875","158","564108.11064","556419.595102","557186.589115","557937.306384","558704.594106","559471.628929","560238.827921","561006.063703","564875.600249","565642.989996","566410.157762","552600.050332","553350.553967","554117.801806","554885.015019","555652.402603","565652.680854","Mapping"
"Blocked","m160","done","19","m160dime.wav","None","725.051723886","158","564108.11064","556419.595102","557186.589115","557937.306384","558704.594106","559471.628929","560238.827921","561006.063703","564875.600249","565642.989996","566410.157762","567177.357063","553350.553967","554117.801806","554885.015019","555652.402603","566420.146347","Mapping"
"Blocked","m160","done","19","m160cling.wav","space","384.009297006","158","564108.11064","556419.595102","557186.589115","557937.306384","558704.594106","559471.628929","560238.827921","561006.063703","564875.600249","565642.989996","566410.157762","567177.357063","567927.81865","554117.801806","554885.015019","555652.402603","567186.953005","Mapping"
"Blocked","m160","done","19","m160done.wav","None","734.986513853","158","564108.11064","556419.595102","557186.589115","557937.306384","558704.594106","559471.628929","560238.827921","561006.063703","564875.600249","565642.989996","566410.157762","567177.357063","567927.81865","568695.070509","554885.015019","555652.402603","567937.477353","Mapping"
"Blocked","m160","done","19","m160cling.wav","space","497.843865771","158","564108.11064","556419.595102","557186.589115","557937.306384","558704.594106","559471.628929","560238.827921","561006.063703","564875.600249","565642.989996","566410.157762","567177.357063","567927.81865","568695.070509","569462.194063","555652.402603","568705.033433","Mapping"
"Blocked","m160","done","19","m160done.wav","None","727.972120512","158","564108.11064","556419.595102","557186.589115","557937.306384","558704.594106","559471.628929","560238.827921","561006.063703","564875.600249","565642.989996","566410.157762","567177.357063","567927.81865","568695.070509","569462.194063","570229.580719","569471.981071","Mapping"
"Blocked","m160","done","19","m160depth.wav","space","467.713940423","158","564108.11064","570996.869369","557186.589115","557937.306384","558704.594106","559471.628929","560238.827921","561006.063703","564875.600249","565642.989996","566410.157762","567177.357063","567927.81865","568695.070509","569462.194063","570229.580719","570239.122558","Mapping"
"Blocked","m160","done","19","m160cave.wav","None","720.614551101","158","564108.11064","570996.869369","571746.689124","557937.306384","558704.594106","559471.628929","560238.827921","561006.063703","564875.600249","565642.989996","566410.157762","567177.357063","567927.81865","568695.070509","569462.194063","570229.580719","571006.508595","Mapping"
"Blocked","m160","done","19","m160done.wav","None","735.896394122","158","564108.11064","570996.869369","571746.689124","572514.030952","558704.594106","559471.628929","560238.827921","561006.063703","564875.600249","565642.989996","566410.157762","567177.357063","567927.81865","568695.070509","569462.194063","570229.580719","571755.63056","Mapping"
"Blocked","m160","done","19","m160priest.wav","space","399.74128874","158","564108.11064","570996.869369","571746.689124","572514.030952","573281.388546","559471.628929","560238.827921","561006.063703","564875.600249","565642.989996","566410.157762","567177.357063","567927.81865","568695.070509","569462.194063","570229.580719","572523.030819","Mapping"
"Blocked","m160","done","19","m160cave.wav","None","729.673469439","158","564108.11064","570996.869369","571746.689124","572514.030952","573281.388546","574048.649371","560238.827921","561006.063703","564875.600249","565642.989996","566410.157762","567177.357063","567927.81865","568695.070509","569462.194063","570229.580719","573290.683359","Mapping"
"Blocked","m160","done","19","m160reek.wav","None","727.36584302","158","564108.11064","570996.869369","571746.689124","572514.030952","573281.388546","574048.649371","574815.732733","561006.063703","564875.600249","565642.989996","566410.157762","567177.357063","567927.81865","568695.070509","569462.194063","570229.580719","574057.463119","Mapping"
"Blocked","m160","done","19","m160knife.wav","None","724.564166274","158","564108.11064","570996.869369","571746.689124","572514.030952","573281.388546","574048.649371","574815.732733","575583.277065","564875.600249","565642.989996","566410.157762","567177.357063","567927.81865","568695.070509","569462.194063","570229.580719","574824.785469","Mapping"
"Blocked","m160","tile","16","m160knife.wav","None","720.985242631","158","578685.781569","570996.869369","571746.689124","572514.030952","573281.388546","574048.649371","574815.732733","575583.277065","564875.600249","565642.989996","566410.157762","567177.357063","567927.81865","568695.070509","569462.194063","570229.580719","575592.924329","Mapping"
"Blocked","m160","tile","16","m160dime.wav","None","736.03892047","158","578685.781569","570996.869369","571746.689124","572514.030952","573281.388546","574048.649371","574815.732733","575583.277065","579452.9178","565642.989996","566410.157762","567177.357063","567927.81865","568695.070509","569462.194063","570229.580719","578695.407192","Mapping"
"Blocked","m160","tile","16","m160reek.wav","None","733.392137103","158","578685.781569","570996.869369","571746.689124","572514.030952","573281.388546","574048.649371","574815.732733","575583.277065","579452.9178","580220.070416","566410.157762","567177.357063","567927.81865","568695.070509","569462.194063","570229.580719","579462.690277","Mapping"
"Blocked","m160","tile","16","m160reek.wav","None","730.579021387","158","578685.781569","570996.869369","571746.689124","572514.030952","573281.388546","574048.649371","574815.732733","575583.277065","579452.9178","580220.070416","580987.416262","567177.357063","567927.81865","568695.070509","569462.194063","570229.580719","580229.702531","Mapping"
"Blocked","m160","tile","16","m160gnash.wav","None","727.264126763","158","578685.781569","570996.869369","571746.689124","572514.030952","573281.388546","574048.649371","574815.732733","575583.277065","579452.9178","580220.070416","580987.416262","581754.580936","567927.81865","568695.070509","569462.194063","570229.580719","580997.59344","Mapping"
"Blocked","m160","tile","16","m160greet.wav","None","725.154985674","158","578685.781569","570996.869369","571746.689124","572514.030952","573281.388546","574048.649371","574815.732733","575583.277065","579452.9178","580220.070416","580987.416262","581754.580936","582521.426549","568695.070509","569462.194063","570229.580719","581764.256644","Mapping"
"Blocked","m160","tile","16","m160tile.wav","None","722.871783655","158","578685.781569","570996.869369","571746.689124","572514.030952","573281.388546","574048.649371","574815.732733","575583.277065","579452.9178","580220.070416","580987.416262","581754.580936","582521.426549","583288.61441","569462.194063","570229.580719","582531.188823","Mapping"
"Blocked","m160","tile","16","m160jaw.wav","space","536.707464606","158","578685.781569","570996.869369","571746.689124","572514.030952","573281.388546","574048.649371","574815.732733","575583.277065","579452.9178","580220.070416","580987.416262","581754.580936","582521.426549","583288.61441","584039.242638","570229.580719","583297.651378","Mapping"
"Blocked","m160","tile","16","m160tile.wav","None","733.115122654","158","578685.781569","570996.869369","571746.689124","572514.030952","573281.388546","574048.649371","574815.732733","575583.277065","579452.9178","580220.070416","580987.416262","581754.580936","582521.426549","583288.61441","584039.242638","584806.605179","584048.384414","Mapping"
"Blocked","m160","tile","16","m160greet.wav","space","530.206907075","158","578685.781569","585574.046867","571746.689124","572514.030952","573281.388546","574048.649371","574815.732733","575583.277065","579452.9178","580220.070416","580987.416262","581754.580936","582521.426549","583288.61441","584039.242638","584806.605179","584816.09044","Mapping"
"Blocked","m160","tile","16","m160tile.wav","None","724.813973997","158","578685.781569","585574.046867","586340.974719","572514.030952","573281.388546","574048.649371","574815.732733","575583.277065","579452.9178","580220.070416","580987.416262","581754.580936","582521.426549","583288.61441","584039.242638","584806.605179","585584.304429","Mapping"
"Blocked","m160","tile","16","m160priest.wav","space","532.337690238","158","578685.781569","585574.046867","586340.974719","587091.210923","573281.388546","574048.649371","574815.732733","575583.277065","579452.9178","580220.070416","580987.416262","581754.580936","582521.426549","583288.61441","584039.242638","584806.605179","586349.909352","Mapping"
"Blocked","m160","tile","16","m160cad.wav","None","736.301094759","158","578685.781569","585574.046867","586340.974719","587091.210923","587859.139859","574048.649371","574815.732733","575583.277065","579452.9178","580220.070416","580987.416262","581754.580936","582521.426549","583288.61441","584039.242638","584806.605179","587100.278189","Mapping"
