"Condition","Talker","Target","Trial","current_stimulus","response_response","response_time_response","subject_nr","time_Audio1","time_Audio10","time_Audio11","time_Audio12","time_Audio13","time_Audio14","time_Audio15","time_Audio16","time_Audio2","time_Audio3","time_Audio4","time_Audio5","time_Audio6","time_Audio7","time_Audio8","time_Audio9","time_response","title"
"Blocked","m150","cave","9","m150cling.wav","NA","NA","177","122314.791541","NA","NA","NA","NA","NA","NA","NA","NA","NA","NA","NA","NA","NA","NA","NA","NA","Mapping"
"Blocked","m150","cave","9","m150depth.wav","None","719.861935126","177","122314.791541","NA","NA","NA","NA","NA","NA","NA","123081.750594","NA","NA","NA","NA","NA","NA","NA","122329.320871","Mapping"
"Blocked","m150","cave","9","m150cave.wav","None","725.5482662","177","122314.791541","NA","NA","NA","NA","NA","NA","NA","123081.750594","123847.624136","NA","NA","NA","NA","NA","NA","123091.07776","Mapping"
"Blocked","m150","cave","9","m150jaw.wav","None","726.192894392","177","122314.791541","NA","NA","NA","NA","NA","NA","NA","123081.750594","123847.624136","124614.547943","NA","NA","NA","NA","NA","123857.50596","Mapping"
"Blocked","m150","cave","9","m150cave.wav","space","52.1422212478","177","122314.791541","NA","NA","NA","NA","NA","NA","NA","123081.750594","123847.624136","124614.547943","125381.102595","NA","NA","NA","NA","124624.03186","Mapping"
"Blocked","m150","cave","9","m150done.wav","space","685.980776325","177","122314.791541","NA","NA","NA","NA","NA","NA","NA","123081.750594","123847.624136","124614.547943","125381.102595","126147.890984","NA","NA","NA","125390.174384","Mapping"
"Blocked","m150","cave","9","m150romp.wav","None","725.16705445","177","122314.791541","NA","NA","NA","NA","NA","NA","NA","123081.750594","123847.624136","124614.547943","125381.102595","126147.890984","126914.522621","NA","NA","126156.925671","Mapping"
"Blocked","m150","cave","9","m150cave.wav","None","724.558908958","177","122314.791541","NA","NA","NA","NA","NA","NA","NA","123081.750594","123847.624136","124614.547943","125381.102595","126147.890984","126914.522621","127681.259068","NA","126924.602626","Mapping"
"Blocked","m150","cave","9","m150tile.wav","space","488.647279562","177","122314.791541","NA","NA","NA","NA","NA","NA","NA","123081.750594","123847.624136","124614.547943","125381.102595","126147.890984","126914.522621","127681.259068","128447.768273","127691.476656","Mapping"
"Blocked","m150","cave","9","m150jaw.wav","None","722.390361363","177","122314.791541","129214.402693","NA","NA","NA","NA","NA","NA","123081.750594","123847.624136","124614.547943","125381.102595","126147.890984","126914.522621","127681.259068","128447.768273","128457.760782","Mapping"
"Blocked","m150","cave","9","m150romp.wav","None","720.28643149","177","122314.791541","129214.402693","129963.963588","NA","NA","NA","NA","NA","123081.750594","123847.624136","124614.547943","125381.102595","126147.890984","126914.522621","127681.259068","128447.768273","129223.585783","Mapping"
"Blocked","m150","cave","9","m150ball.wav","None","739.583227085","177","122314.791541","129214.402693","129963.963588","130730.813193","NA","NA","NA","NA","123081.750594","123847.624136","124614.547943","125381.102595","126147.890984","126914.522621","127681.259068","128447.768273","129968.08859","Mapping"
"Blocked","m150","cave","9","m150cling.wav","None","734.74681587","177","122314.791541","129214.402693","129963.963588","130730.813193","131497.581485","NA","NA","NA","123081.750594","123847.624136","124614.547943","125381.102595","126147.890984","126914.522621","127681.259068","128447.768273","130740.171276","Mapping"
"Blocked","m150","cave","9","m150cave.wav","None","731.869022595","177","122314.791541","129214.402693","129963.963588","130730.813193","131497.581485","132264.338338","NA","NA","123081.750594","123847.624136","124614.547943","125381.102595","126147.890984","126914.522621","127681.259068","128447.768273","131507.468256","Mapping"
"Blocked","m150","cave","9","m150cling.wav","space","402.174669085","177","122314.791541","129214.402693","129963.963588","130730.813193","131497.581485","132264.338338","133031.502064","NA","123081.750594","123847.624136","124614.547943","125381.102595","126147.890984","126914.522621","127681.259068","128447.768273","132273.880689","Mapping"
"Blocked","m150","cave","9","m150done.wav","None","726.034597261","177","122314.791541","129214.402693","129963.963588","130730.813193","131497.581485","132264.338338","133031.502064","133797.763929","123081.750594","123847.624136","124614.547943","125381.102595","126147.890984","126914.522621","127681.259068","128447.768273","133040.783472","Mapping"
"Blocked","m150","tile","14","m150jaw.wav","None","722.800326301","177","136981.184279","129214.402693","129963.963588","130730.813193","131497.581485","132264.338338","133031.502064","133797.763929","123081.750594","123847.624136","124614.547943","125381.102595","126147.890984","126914.522621","127681.259068","128447.768273","133807.80034","Mapping"
"Blocked","m150","tile","14","m150tile.wav","None","721.548789414","177","136981.184279","129214.402693","129963.963588","130730.813193","131497.581485","132264.338338","133031.502064","133797.763929","137748.004204","123847.624136","124614.547943","125381.102595","126147.890984","126914.522621","127681.259068","128447.768273","136990.98139","Mapping"
"Blocked","m150","tile","14","m150reek.wav","space","542.159142438","177","136981.184279","129214.402693","129963.963588","130730.813193","131497.581485","132264.338338","133031.502064","133797.763929","137748.004204","138514.681908","124614.547943","125381.102595","126147.890984","126914.522621","127681.259068","128447.768273","137757.802242","Mapping"
"Blocked","m150","tile","14","m150tile.wav","None","718.990064226","177","136981.184279","129214.402693","129963.963588","130730.813193","131497.581485","132264.338338","133031.502064","133797.763929","137748.004204","138514.681908","139264.156544","125381.102595","126147.890984","126914.522621","127681.259068","128447.768273","138524.708116","Mapping"
"Blocked","m150","tile","14","m150depth.wav","space","546.653607162","177","136981.184279","129214.402693","129963.963588","130730.813193","131497.581485","132264.338338","133031.502064","133797.763929","137748.004204","138514.681908","139264.156544","140030.748607","126147.890984","126914.522621","127681.259068","128447.768273","139273.296968","Mapping"
"Blocked","m150","tile","14","m150park.wav","None","731.558611849","177","136981.184279","129214.402693","129963.963588","130730.813193","131497.581485","132264.338338","133031.502064","133797.763929","137748.004204","138514.681908","139264.156544","140030.748607","140797.223493","126914.522621","127681.259068","128447.768273","140039.838945","Mapping"
"Blocked","m150","tile","14","m150cad.wav","None","732.210350921","177","136981.184279","129214.402693","129963.963588","130730.813193","131497.581485","132264.338338","133031.502064","133797.763929","137748.004204","138514.681908","139264.156544","140030.748607","140797.223493","141564.255201","127681.259068","128447.768273","140806.514794","Mapping"
"Blocked","m150","tile","14","m150tile.wav","None","732.304030797","177","136981.184279","129214.402693","129963.963588","130730.813193","131497.581485","132264.338338","133031.502064","133797.763929","137748.004204","138514.681908","139264.156544","140030.748607","140797.223493","141564.255201","142330.516757","128447.768273","141573.763543","Mapping"
"Blocked","m150","tile","14","m150cling.wav","space","584.500233876","177","136981.184279","129214.402693","129963.963588","130730.813193","131497.581485","132264.338338","133031.502064","133797.763929","137748.004204","138514.681908","139264.156544","140030.748607","140797.223493","141564.255201","142330.516757","143097.62545","142339.377379","Mapping"
"Blocked","m150","tile","14","m150gnash.wav","None","729.861245723","177","136981.184279","143864.153204","129963.963588","130730.813193","131497.581485","132264.338338","133031.502064","133797.763929","137748.004204","138514.681908","139264.156544","140030.748607","140797.223493","141564.255201","142330.516757","143097.62545","143106.933447","Mapping"
"Blocked","m150","tile","14","m150bluff.wav","None","732.007532613","177","136981.184279","143864.153204","144630.711877","130730.813193","131497.581485","132264.338338","133031.502064","133797.763929","137748.004204","138514.681908","139264.156544","140030.748607","140797.223493","141564.255201","142330.516757","143097.62545","143873.98216","Mapping"
"Blocked","m150","tile","14","m150tile.wav","None","734.077144647","177","136981.184279","143864.153204","144630.711877","145397.396383","131497.581485","132264.338338","133031.502064","133797.763929","137748.004204","138514.681908","139264.156544","140030.748607","140797.223493","141564.255201","142330.516757","143097.62545","144640.003797","Mapping"
"Blocked","m150","tile","14","m150cave.wav","space","420.973385451","177","136981.184279","143864.153204","144630.711877","145397.396383","146164.107169","132264.338338","133031.502064","133797.763929","137748.004204","138514.681908","139264.156544","140030.748607","140797.223493","141564.255201","142330.516757","143097.62545","145406.881227","Mapping"
"Blocked","m150","tile","14","m150bluff.wav","None","728.171609109","177","136981.184279","143864.153204","144630.711877","145397.396383","146164.107169","146930.964194","133031.502064","133797.763929","137748.004204","138514.681908","139264.156544","140030.748607","140797.223493","141564.255201","142330.516757","143097.62545","146173.754639","Mapping"
"Blocked","m150","tile","14","m150knife.wav","None","725.315148942","177","136981.184279","143864.153204","144630.711877","145397.396383","146164.107169","146930.964194","147697.068689","133797.763929","137748.004204","138514.681908","139264.156544","140030.748607","140797.223493","141564.255201","142330.516757","143097.62545","146940.595278","Mapping"
"Blocked","m150","tile","14","m150reek.wav","None","727.05549025","177","136981.184279","143864.153204","144630.711877","145397.396383","146164.107169","146930.964194","147697.068689","148464.501706","137748.004204","138514.681908","139264.156544","140030.748607","140797.223493","141564.255201","142330.516757","143097.62545","147706.312687","Mapping"
"Blocked","m150","done","22","m150knife.wav","None","723.058177624","177","151581.002547","143864.153204","144630.711877","145397.396383","146164.107169","146930.964194","147697.068689","148464.501706","137748.004204","138514.681908","139264.156544","140030.748607","140797.223493","141564.255201","142330.516757","143097.62545","148474.392187","Mapping"
"Blocked","m150","done","22","m150done.wav","None","720.218722243","177","151581.002547","143864.153204","144630.711877","145397.396383","146164.107169","146930.964194","147697.068689","148464.501706","152330.300953","138514.681908","139264.156544","140030.748607","140797.223493","141564.255201","142330.516757","143097.62545","151591.076059","Mapping"
"Blocked","m150","done","22","m150lash.wav","space","368.080180138","177","151581.002547","143864.153204","144630.711877","145397.396383","146164.107169","146930.964194","147697.068689","148464.501706","152330.300953","153097.524041","139264.156544","140030.748607","140797.223493","141564.255201","142330.516757","143097.62545","152339.661201","Mapping"
"Blocked","m150","done","22","m150done.wav","None","734.965401702","177","151581.002547","143864.153204","144630.711877","145397.396383","146164.107169","146930.964194","147697.068689","148464.501706","152330.300953","153097.524041","153864.011294","140030.748607","140797.223493","141564.255201","142330.516757","143097.62545","153107.198718","Mapping"
"Blocked","m150","done","22","m150bluff.wav","space","426.116806455","177","151581.002547","143864.153204","144630.711877","145397.396383","146164.107169","146930.964194","147697.068689","148464.501706","152330.300953","153097.524041","153864.011294","154630.584497","140797.223493","141564.255201","142330.516757","143097.62545","153873.604659","Mapping"
"Blocked","m150","done","22","m150greet.wav","None","730.484850006","177","151581.002547","143864.153204","144630.711877","145397.396383","146164.107169","146930.964194","147697.068689","148464.501706","152330.300953","153097.524041","153864.011294","154630.584497","155397.222627","141564.255201","142330.516757","143097.62545","154639.84519","Mapping"
"Blocked","m150","done","22","m150done.wav","None","730.576674687","177","151581.002547","143864.153204","144630.711877","145397.396383","146164.107169","146930.964194","147697.068689","148464.501706","152330.300953","153097.524041","153864.011294","154630.584497","155397.222627","156163.998648","142330.516757","143097.62545","155407.175252","Mapping"
"Blocked","m150","done","22","m150priest.wav","space","334.240450291","177","151581.002547","143864.153204","144630.711877","145397.396383","146164.107169","146930.964194","147697.068689","148464.501706","152330.300953","153097.524041","153864.011294","154630.584497","155397.222627","156163.998648","156930.533514","143097.62545","156173.462469","Mapping"
"Blocked","m150","done","22","m150done.wav","None","728.748218855","177","151581.002547","143864.153204","144630.711877","145397.396383","146164.107169","146930.964194","147697.068689","148464.501706","152330.300953","153097.524041","153864.011294","154630.584497","155397.222627","156163.998648","156930.533514","157697.09837","156940.060406","Mapping"
"Blocked","m150","done","22","m150knife.wav","space","448.9663227","177","151581.002547","158463.971781","144630.711877","145397.396383","146164.107169","146930.964194","147697.068689","148464.501706","152330.300953","153097.524041","153864.011294","154630.584497","155397.222627","156163.998648","156930.533514","157697.09837","157706.703792","Mapping"
"Blocked","m150","done","22","m150cad.wav","None","723.107336322","177","151581.002547","158463.971781","159230.766662","145397.396383","146164.107169","146930.964194","147697.068689","148464.501706","152330.300953","153097.524041","153864.011294","154630.584497","155397.222627","156163.998648","156930.533514","157697.09837","158473.333265","Mapping"
"Blocked","m150","done","22","m150dime.wav","None","719.406830845","177","151581.002547","158463.971781","159230.766662","159997.602355","146164.107169","146930.964194","147697.068689","148464.501706","152330.300953","153097.524041","153864.011294","154630.584497","155397.222627","156163.998648","156930.533514","157697.09837","159241.062162","Mapping"
"Blocked","m150","done","22","m150jolt.wav","None","720.454931259","177","151581.002547","158463.971781","159230.766662","159997.602355","160764.261199","146930.964194","147697.068689","148464.501706","152330.300953","153097.524041","153864.011294","154630.584497","155397.222627","156163.998648","156930.533514","157697.09837","160007.431001","Mapping"
"Blocked","m150","done","22","m150jaw.wav","None","721.25847498","177","151581.002547","158463.971781","159230.766662","159997.602355","160764.261199","161514.195886","147697.068689","148464.501706","152330.300953","153097.524041","153864.011294","154630.584497","155397.222627","156163.998648","156930.533514","157697.09837","160774.156627","Mapping"
"Blocked","m150","done","22","m150tile.wav","None","736.365033314","177","151581.002547","158463.971781","159230.766662","159997.602355","160764.261199","161514.195886","162280.42065","148464.501706","152330.300953","153097.524041","153864.011294","154630.584497","155397.222627","156163.998648","156930.533514","157697.09837","161523.092063","Mapping"
"Blocked","m150","done","22","m150dime.wav","None","733.351512812","177","151581.002547","158463.971781","159230.766662","159997.602355","160764.261199","161514.195886","162280.42065","163047.048577","152330.300953","153097.524041","153864.011294","154630.584497","155397.222627","156163.998648","156930.533514","157697.09837","162290.083579","Mapping"
"Blocked","m150","cave","8","m150cad.wav","space","395.166000351","177","166180.708275","158463.971781","159230.766662","159997.602355","160764.261199","161514.195886","162280.42065","163047.048577","152330.300953","153097.524041","153864.011294","154630.584497","155397.222627","156163.998648","156930.533514","157697.09837","163056.427066","Mapping"
"Blocked","m150","cave","8","m150cad.wav","None","720.477191731","177","166180.708275","158463.971781","159230.766662","159997.602355","160764.261199","161514.195886","162280.42065","163047.048577","166930.107472","153097.524041","153864.011294","154630.584497","155397.222627","156163.998648","156930.533514","157697.09837","166190.813014","Mapping"
"Blocked","m150","cave","8","m150romp.wav","None","735.688560177","177","166180.708275","158463.971781","159230.766662","159997.602355","160764.261199","161514.195886","162280.42065","163047.048577","166930.107472","167696.75766","153864.011294","154630.584497","155397.222627","156163.998648","156930.533514","157697.09837","166939.628799","Mapping"
"Blocked","m150","cave","8","m150cave.wav","None","733.631624607","177","166180.708275","158463.971781","159230.766662","159997.602355","160764.261199","161514.195886","162280.42065","163047.048577","166930.107472","167696.75766","168463.48174","154630.584497","155397.222627","156163.998648","156930.533514","157697.09837","167705.873351","Mapping"
"Blocked","m150","cave","8","m150dime.wav","space","611.07931775","177","166180.708275","158463.971781","159230.766662","159997.602355","160764.261199","161514.195886","162280.42065","163047.048577","166930.107472","167696.75766","168463.48174","169230.357316","155397.222627","156163.998648","156930.533514","157697.09837","168472.434496","Mapping"
"Blocked","m150","cave","8","m150park.wav","None","727.462981828","177","166180.708275","158463.971781","159230.766662","159997.602355","160764.261199","161514.195886","162280.42065","163047.048577","166930.107472","167696.75766","168463.48174","169230.357316","169997.589987","156163.998648","156930.533514","157697.09837","169239.574106","Mapping"
"Blocked","m150","cave","8","m150priest.wav","None","723.619638011","177","166180.708275","158463.971781","159230.766662","159997.602355","160764.261199","161514.195886","162280.42065","163047.048577","166930.107472","167696.75766","168463.48174","169230.357316","169997.589987","170763.775177","156930.533514","157697.09837","170007.388953","Mapping"
"Blocked","m150","cave","8","m150done.wav","None","721.937112277","177","166180.708275","158463.971781","159230.766662","159997.602355","160764.261199","161514.195886","162280.42065","163047.048577","166930.107472","167696.75766","168463.48174","169230.357316","169997.589987","170763.775177","171513.73769","157697.09837","170773.080083","Mapping"
"Blocked","m150","cave","8","m150cave.wav","None","735.61837757","177","166180.708275","158463.971781","159230.766662","159997.602355","160764.261199","161514.195886","162280.42065","163047.048577","166930.107472","167696.75766","168463.48174","169230.357316","169997.589987","170763.775177","171513.73769","172280.24844","171523.366919","Mapping"
"Blocked","m150","cave","8","m150jolt.wav","space","402.110360796","177","166180.708275","173046.914086","159230.766662","159997.602355","160764.261199","161514.195886","162280.42065","163047.048577","166930.107472","167696.75766","168463.48174","169230.357316","169997.589987","170763.775177","171513.73769","172280.24844","172289.32703","Mapping"
"Blocked","m150","cave","8","m150cave.wav","None","730.376329739","177","166180.708275","173046.914086","173813.744213","159997.602355","160764.261199","161514.195886","162280.42065","163047.048577","166930.107472","167696.75766","168463.48174","169230.357316","169997.589987","170763.775177","171513.73769","172280.24844","173056.278972","Mapping"
"Blocked","m150","cave","8","m150greet.wav","space","564.161211951","177","166180.708275","173046.914086","173813.744213","174580.015044","160764.261199","161514.195886","162280.42065","163047.048577","166930.107472","167696.75766","168463.48174","169230.357316","169997.589987","170763.775177","171513.73769","172280.24844","173823.253483","Mapping"
"Blocked","m150","cave","8","m150cave.wav","None","725.311747985","177","166180.708275","173046.914086","173813.744213","174580.015044","175347.07798","161514.195886","162280.42065","163047.048577","166930.107472","167696.75766","168463.48174","169230.357316","169997.589987","170763.775177","171513.73769","172280.24844","174588.914313","Mapping"
"Blocked","m150","cave","8","m150jolt.wav","space","422.679099021","177","166180.708275","173046.914086","173813.744213","174580.015044","175347.07798","176096.592499","162280.42065","163047.048577","166930.107472","167696.75766","168463.48174","169230.357316","169997.589987","170763.775177","171513.73769","172280.24844","175356.719267","Mapping"
"Blocked","m150","cave","8","m150cling.wav","None","736.118621659","177","166180.708275","173046.914086","173813.744213","174580.015044","175347.07798","176096.592499","176863.6981","163047.048577","166930.107472","167696.75766","168463.48174","169230.357316","169997.589987","170763.775177","171513.73769","172280.24844","176105.833714","Mapping"
"Blocked","m150","cave","8","m150park.wav","None","732.858689269","177","166180.708275","173046.914086","173813.744213","174580.015044","175347.07798","176096.592499","176863.6981","177630.206995","166930.107472","167696.75766","168463.48174","169230.357316","169997.589987","170763.775177","171513.73769","172280.24844","176873.173051","Mapping"
"Blocked","m150","ball","1","m150depth.wav","None","730.550704058","177","180763.951097","173046.914086","173813.744213","174580.015044","175347.07798","176096.592499","176863.6981","177630.206995","166930.107472","167696.75766","168463.48174","169230.357316","169997.589987","170763.775177","171513.73769","172280.24844","177639.669579","Mapping"
"Blocked","m150","ball","1","m150ball.wav","None","720.016522333","177","180763.951097","173046.914086","173813.744213","174580.015044","175347.07798","176096.592499","176863.6981","177630.206995","181513.199418","167696.75766","168463.48174","169230.357316","169997.589987","170763.775177","171513.73769","172280.24844","180773.802004","Mapping"
"Blocked","m150","ball","1","m150priest.wav","None","735.761525342","177","180763.951097","173046.914086","173813.744213","174580.015044","175347.07798","176096.592499","176863.6981","177630.206995","181513.199418","182280.235764","168463.48174","169230.357316","169997.589987","170763.775177","171513.73769","172280.24844","181522.20968","Mapping"
"Blocked","m150","ball","1","m150jolt.wav","space","65.7242420129","177","180763.951097","173046.914086","173813.744213","174580.015044","175347.07798","176096.592499","176863.6981","177630.206995","181513.199418","182280.235764","183046.539367","169230.357316","169997.589987","170763.775177","171513.73769","172280.24844","182289.585809","Mapping"
"Blocked","m150","ball","1","m150ball.wav","None","730.112604331","177","180763.951097","173046.914086","173813.744213","174580.015044","175347.07798","176096.592499","176863.6981","177630.206995","181513.199418","182280.235764","183046.539367","183813.582206","169997.589987","170763.775177","171513.73769","172280.24844","183055.730188","Mapping"
"Blocked","m150","ball","1","m150lash.wav","space","340.204110602","177","180763.951097","173046.914086","173813.744213","174580.015044","175347.07798","176096.592499","176863.6981","177630.206995","181513.199418","182280.235764","183046.539367","183813.582206","184580.454072","170763.775177","171513.73769","172280.24844","183823.071998","Mapping"
"Blocked","m150","ball","1","m150ball.wav","None","723.38404716","177","180763.951097","173046.914086","173813.744213","174580.015044","175347.07798","176096.592499","176863.6981","177630.206995","181513.199418","182280.235764","183046.539367","183813.582206","184580.454072","185347.155273","171513.73769","172280.24844","184590.297868","Mapping"
"Blocked","m150","ball","1","m150priest.wav","space","414.386120858","177","180763.951097","173046.914086","173813.744213","174580.015044","175347.07798","176096.592499","176863.6981","177630.206995","181513.199418","182280.235764","183046.539367","183813.582206","184580.454072","185347.155273","186096.269103","172280.24844","185356.881583","Mapping"
"Blocked","m150","ball","1","m150done.wav","None","736.501069739","177","180763.951097","173046.914086","173813.744213","174580.015044","175347.07798","176096.592499","176863.6981","177630.206995","181513.199418","182280.235764","183046.539367","183813.582206","184580.454072","185347.155273","186096.269103","186863.211769","186105.10901","Mapping"
"Blocked","m150","ball","1","m150tile.wav","None","733.507645782","177","180763.951097","187630.078688","173813.744213","174580.015044","175347.07798","176096.592499","176863.6981","177630.206995","181513.199418","182280.235764","183046.539367","183813.582206","184580.454072","185347.155273","186096.269103","186863.211769","186872.27861","Mapping"
"Blocked","m150","ball","1","m150gnash.wav","None","730.804536259","177","180763.951097","187630.078688","188396.429595","174580.015044","175347.07798","176096.592499","176863.6981","177630.206995","181513.199418","182280.235764","183046.539367","183813.582206","184580.454072","185347.155273","186096.269103","186863.211769","187639.305372","Mapping"
"Blocked","m150","ball","1","m150cling.wav","None","728.982881876","177","180763.951097","187630.078688","188396.429595","189163.168516","175347.07798","176096.592499","176863.6981","177630.206995","181513.199418","182280.235764","183046.539367","183813.582206","184580.454072","185347.155273","186096.269103","186863.211769","188405.199938","Mapping"
"Blocked","m150","ball","1","m150ball.wav","None","726.537623443","177","180763.951097","187630.078688","188396.429595","189163.168516","189930.359449","176096.592499","176863.6981","177630.206995","181513.199418","182280.235764","183046.539367","183813.582206","184580.454072","185347.155273","186096.269103","186863.211769","189172.038413","Mapping"
"Blocked","m150","ball","1","m150dime.wav","space","359.06033311","177","180763.951097","187630.078688","188396.429595","189163.168516","189930.359449","190697.098061","176863.6981","177630.206995","181513.199418","182280.235764","183046.539367","183813.582206","184580.454072","185347.155273","186096.269103","186863.211769","189940.140483","Mapping"
"Blocked","m150","ball","1","m150jaw.wav","None","719.563582214","177","180763.951097","187630.078688","188396.429595","189163.168516","189930.359449","190697.098061","191446.643806","177630.206995","181513.199418","182280.235764","183046.539367","183813.582206","184580.454072","185347.155273","186096.269103","186863.211769","190707.006783","Mapping"
"Blocked","m150","ball","1","m150dime.wav","None","740.681722993","177","180763.951097","187630.078688","188396.429595","189163.168516","189930.359449","190697.098061","191446.643806","192213.010791","181513.199418","182280.235764","183046.539367","183813.582206","184580.454072","185347.155273","186096.269103","186863.211769","191450.610202","Mapping"
"Blocked","m150","cave","12","m150park.wav","None","733.607199742","177","195346.999449","187630.078688","188396.429595","189163.168516","189930.359449","190697.098061","191446.643806","192213.010791","181513.199418","182280.235764","183046.539367","183813.582206","184580.454072","185347.155273","186096.269103","186863.211769","192221.941904","Mapping"
"Blocked","m150","cave","12","m150cave.wav","None","720.146375475","177","195346.999449","187630.078688","188396.429595","189163.168516","189930.359449","190697.098061","191446.643806","192213.010791","196096.422453","182280.235764","183046.539367","183813.582206","184580.454072","185347.155273","186096.269103","186863.211769","195357.285673","Mapping"
"Blocked","m150","cave","12","m150cad.wav","space","569.433558965","177","195346.999449","187630.078688","188396.429595","189163.168516","189930.359449","190697.098061","191446.643806","192213.010791","196096.422453","196863.406858","183046.539367","183813.582206","184580.454072","185347.155273","186096.269103","186863.211769","196105.645118","Mapping"
"Blocked","m150","cave","12","m150park.wav","None","728.299916256","177","195346.999449","187630.078688","188396.429595","189163.168516","189930.359449","190697.098061","191446.643806","192213.010791","196096.422453","196863.406858","197630.006032","183813.582206","184580.454072","185347.155273","186096.269103","186863.211769","196876.92086","Mapping"
"Blocked","m150","cave","12","m150tile.wav","None","729.921225458","177","195346.999449","187630.078688","188396.429595","189163.168516","189930.359449","190697.098061","191446.643806","192213.010791","196096.422453","196863.406858","197630.006032","198396.510599","184580.454072","185347.155273","186096.269103","186863.211769","197639.523031","Mapping"
"Blocked","m150","cave","12","m150cave.wav","None","723.253885051","177","195346.999449","187630.078688","188396.429595","189163.168516","189930.359449","190697.098061","191446.643806","192213.010791","196096.422453","196863.406858","197630.006032","198396.510599","199163.039281","185347.155273","186096.269103","186863.211769","198410.297911","Mapping"
"Blocked","m150","cave","12","m150lash.wav","space","455.077149905","177","195346.999449","187630.078688","188396.429595","189163.168516","189930.359449","190697.098061","191446.643806","192213.010791","196096.422453","196863.406858","197630.006032","198396.510599","199163.039281","199930.128805","186096.269103","186863.211769","199171.956173","Mapping"
"Blocked","m150","cave","12","m150cave.wav","None","721.656382084","177","195346.999449","187630.078688","188396.429595","189163.168516","189930.359449","190697.098061","191446.643806","192213.010791","196096.422453","196863.406858","197630.006032","198396.510599","199163.039281","199930.128805","200697.194214","186863.211769","199939.831927","Mapping"
"Blocked","m150","cave","12","m150knife.wav","space","436.138996156","177","195346.999449","187630.078688","188396.429595","189163.168516","189930.359449","190697.098061","191446.643806","192213.010791","196096.422453","196863.406858","197630.006032","198396.510599","199163.039281","199930.128805","200697.194214","201446.393994","200710.889392","Mapping"
"Blocked","m150","cave","12","m150bluff.wav","None","733.420458622","177","195346.999449","202213.285337","188396.429595","189163.168516","189930.359449","190697.098061","191446.643806","192213.010791","196096.422453","196863.406858","197630.006032","198396.510599","199163.039281","199930.128805","200697.194214","201446.393994","201455.975919","Mapping"
"Blocked","m150","cave","12","m150bluff.wav","None","730.465990258","177","195346.999449","202213.285337","202979.694678","189163.168516","189930.359449","190697.098061","191446.643806","192213.010791","196096.422453","196863.406858","197630.006032","198396.510599","199163.039281","199930.128805","200697.194214","201446.393994","202223.16036","Mapping"
"Blocked","m150","cave","12","m150gnash.wav","None","733.000290813","177","195346.999449","202213.285337","202979.694678","203746.515221","189930.359449","190697.098061","191446.643806","192213.010791","196096.422453","196863.406858","197630.006032","198396.510599","199163.039281","199930.128805","200697.194214","201446.393994","202984.859433","Mapping"
"Blocked","m150","cave","12","m150cave.wav","None","726.557719987","177","195346.999449","202213.285337","202979.694678","203746.515221","204513.652667","190697.098061","191446.643806","192213.010791","196096.422453","196863.406858","197630.006032","198396.510599","199163.039281","199930.128805","200697.194214","201446.393994","203755.860319","Mapping"
"Blocked","m150","cave","12","m150reek.wav","space","421.78249429","177","195346.999449","202213.285337","202979.694678","203746.515221","204513.652667","205279.745104","191446.643806","192213.010791","196096.422453","196863.406858","197630.006032","198396.510599","199163.039281","199930.128805","200697.194214","201446.393994","204525.219181","Mapping"
"Blocked","m150","cave","12","m150gnash.wav","None","721.652053529","177","195346.999449","202213.285337","202979.694678","203746.515221","204513.652667","205279.745104","206046.20886","192213.010791","196096.422453","196863.406858","197630.006032","198396.510599","199163.039281","199930.128805","200697.194214","201446.393994","205288.647465","Mapping"
"Blocked","m150","cave","12","m150park.wav","None","721.621754579","177","195346.999449","202213.285337","202979.694678","203746.515221","204513.652667","205279.745104","206046.20886","206796.402635","196096.422453","196863.406858","197630.006032","198396.510599","199163.039281","199930.128805","200697.194214","201446.393994","206054.900364","Mapping"
"Blocked","m150","tile","13","m150greet.wav","None","738.489059731","177","209930.021212","202213.285337","202979.694678","203746.515221","204513.652667","205279.745104","206046.20886","206796.402635","196096.422453","196863.406858","197630.006032","198396.510599","199163.039281","199930.128805","200697.194214","201446.393994","206802.439879","Mapping"
"Blocked","m150","tile","13","m150reek.wav","None","719.106004573","177","209930.021212","202213.285337","202979.694678","203746.515221","204513.652667","205279.745104","206046.20886","206796.402635","210679.515017","196863.406858","197630.006032","198396.510599","199163.039281","199930.128805","200697.194214","201446.393994","209941.318745","Mapping"
"Blocked","m150","tile","13","m150cave.wav","None","734.186901245","177","209930.021212","202213.285337","202979.694678","203746.515221","204513.652667","205279.745104","206046.20886","206796.402635","210679.515017","211446.478089","197630.006032","198396.510599","199163.039281","199930.128805","200697.194214","201446.393994","210690.65889","Mapping"
"Blocked","m150","tile","13","m150jolt.wav","None","733.236190863","177","209930.021212","202213.285337","202979.694678","203746.515221","204513.652667","205279.745104","206046.20886","206796.402635","210679.515017","211446.478089","212212.851257","198396.510599","199163.039281","199930.128805","200697.194214","201446.393994","211455.897698","Mapping"
"Blocked","m150","tile","13","m150tile.wav","None","735.153998248","177","209930.021212","202213.285337","202979.694678","203746.515221","204513.652667","205279.745104","206046.20886","206796.402635","210679.515017","211446.478089","212212.851257","212980.417527","199163.039281","199930.128805","200697.194214","201446.393994","212218.344354","Mapping"
"Blocked","m150","tile","13","m150cling.wav","space","613.173044985","177","209930.021212","202213.285337","202979.694678","203746.515221","204513.652667","205279.745104","206046.20886","206796.402635","210679.515017","211446.478089","212212.851257","212980.417527","213746.573655","199930.128805","200697.194214","201446.393994","212989.668018","Mapping"
"Blocked","m150","tile","13","m150tile.wav","None","725.63298","177","209930.021212","202213.285337","202979.694678","203746.515221","204513.652667","205279.745104","206046.20886","206796.402635","210679.515017","211446.478089","212212.851257","212980.417527","213746.573655","214513.377193","200697.194214","201446.393994","213755.910096","Mapping"
"Blocked","m150","tile","13","m150park.wav","space","485.88233511","177","209930.021212","202213.285337","202979.694678","203746.515221","204513.652667","205279.745104","206046.20886","206796.402635","210679.515017","211446.478089","212212.851257","212980.417527","213746.573655","214513.377193","215279.987497","201446.393994","214524.982045","Mapping"
"Blocked","m150","tile","13","m150reek.wav","None","720.939097926","177","209930.021212","202213.285337","202979.694678","203746.515221","204513.652667","205279.745104","206046.20886","206796.402635","210679.515017","211446.478089","212212.851257","212980.417527","213746.573655","214513.377193","215279.987497","216029.844891","215289.534795","Mapping"
"Blocked","m150","tile","13","m150cad.wav","None","735.950121656","177","209930.021212","216796.310192","202979.694678","203746.515221","204513.652667","205279.745104","206046.20886","206796.402635","210679.515017","211446.478089","212212.851257","212980.417527","213746.573655","214513.377193","215279.987497","216029.844891","216039.094454","Mapping"
"Blocked","m150","tile","13","m150reek.wav","None","733.799506212","177","209930.021212","216796.310192","217563.070137","203746.515221","204513.652667","205279.745104","206046.20886","206796.402635","210679.515017","211446.478089","212212.851257","212980.417527","213746.573655","214513.377193","215279.987497","216029.844891","216805.73382","Mapping"
"Blocked","m150","tile","13","m150tile.wav","None","731.171216583","177","209930.021212","216796.310192","217563.070137","218329.661581","204513.652667","205279.745104","206046.20886","206796.402635","210679.515017","211446.478089","212212.851257","212980.417527","213746.573655","214513.377193","215279.987497","216029.844891","217572.783461","Mapping"
"Blocked","m150","tile","13","m150greet.wav","space","495.612045983","177","209930.021212","216796.310192","217563.070137","218329.661581","219096.221799","205279.745104","206046.20886","206796.402635","210679.515017","211446.478089","212212.851257","212980.417527","213746.573655","214513.377193","215279.987497","216029.844891","218339.181981","Mapping"
"Blocked","m150","tile","13","m150tile.wav","None","727.08671703","177","209930.021212","216796.310192","217563.070137","218329.661581","219096.221799","219863.021936","206046.20886","206796.402635","210679.515017","211446.478089","212212.851257","212980.417527","213746.573655","214513.377193","215279.987497","216029.844891","219105.654703","Mapping"
"Blocked","m150","tile","13","m150jaw.wav","space","457.948141033","177","209930.021212","216796.310192","217563.070137","218329.661581","219096.221799","219863.021936","220629.905241","206796.402635","210679.515017","211446.478089","212212.851257","212980.417527","213746.573655","214513.377193","215279.987497","216029.844891","219872.784419","Mapping"
"Blocked","m150","tile","13","m150cave.wav","None","721.110998653","177","209930.021212","216796.310192","217563.070137","218329.661581","219096.221799","219863.021936","220629.905241","221379.803755","210679.515017","211446.478089","212212.851257","212980.417527","213746.573655","214513.377193","215279.987497","216029.844891","220639.736361","Mapping"
"Blocked","m150","ball","2","m150gnash.wav","None","736.034526024","177","224513.278566","216796.310192","217563.070137","218329.661581","219096.221799","219863.021936","220629.905241","221379.803755","210679.515017","211446.478089","212212.851257","212980.417527","213746.573655","214513.377193","215279.987497","216029.844891","221389.058883","Mapping"
"Blocked","m150","ball","2","m150jaw.wav","None","720.084540546","177","224513.278566","216796.310192","217563.070137","218329.661581","219096.221799","219863.021936","220629.905241","221379.803755","225262.657667","211446.478089","212212.851257","212980.417527","213746.573655","214513.377193","215279.987497","216029.844891","224523.004876","Mapping"
"Blocked","m150","ball","2","m150depth.wav","None","735.515113454","177","224513.278566","216796.310192","217563.070137","218329.661581","219096.221799","219863.021936","220629.905241","221379.803755","225262.657667","226029.536026","212212.851257","212980.417527","213746.573655","214513.377193","215279.987497","216029.844891","225272.120561","Mapping"
"Blocked","m150","ball","2","m150tile.wav","None","733.126124833","177","224513.278566","216796.310192","217563.070137","218329.661581","219096.221799","219863.021936","220629.905241","221379.803755","225262.657667","226029.536026","226795.933","212980.417527","213746.573655","214513.377193","215279.987497","216029.844891","226038.919461","Mapping"
"Blocked","m150","ball","2","m150ball.wav","None","731.465859571","177","224513.278566","216796.310192","217563.070137","218329.661581","219096.221799","219863.021936","220629.905241","221379.803755","225262.657667","226029.536026","226795.933","227562.908129","213746.573655","214513.377193","215279.987497","216029.844891","226804.970779","Mapping"
"Blocked","m150","ball","2","m150dime.wav","space","478.287162958","177","224513.278566","216796.310192","217563.070137","218329.661581","219096.221799","219863.021936","220629.905241","221379.803755","225262.657667","226029.536026","226795.933","227562.908129","228329.591089","214513.377193","215279.987497","216029.844891","227572.339796","Mapping"
"Blocked","m150","ball","2","m150greet.wav","None","724.953724537","177","224513.278566","216796.310192","217563.070137","218329.661581","219096.221799","219863.021936","220629.905241","221379.803755","225262.657667","226029.536026","226795.933","227562.908129","228329.591089","229096.377932","215279.987497","216029.844891","228339.617607","Mapping"
"Blocked","m150","ball","2","m150tile.wav","None","722.572465194","177","224513.278566","216796.310192","217563.070137","218329.661581","219096.221799","219863.021936","220629.905241","221379.803755","225262.657667","226029.536026","226795.933","227562.908129","228329.591089","229096.377932","229862.803969","216029.844891","229106.295621","Mapping"
"Blocked","m150","ball","2","m150knife.wav","None","720.762868645","177","224513.278566","216796.310192","217563.070137","218329.661581","219096.221799","219863.021936","220629.905241","221379.803755","225262.657667","226029.536026","226795.933","227562.908129","228329.591089","229096.377932","229862.803969","230612.581595","229872.580055","Mapping"
"Blocked","m150","ball","2","m150ball.wav","None","734.667357989","177","224513.278566","231379.443258","217563.070137","218329.661581","219096.221799","219863.021936","220629.905241","221379.803755","225262.657667","226029.536026","226795.933","227562.908129","228329.591089","229096.377932","229862.803969","230612.581595","230623.093516","Mapping"
"Blocked","m150","ball","2","m150gnash.wav","space","398.184776772","177","224513.278566","231379.443258","232146.18156","218329.661581","219096.221799","219863.021936","220629.905241","221379.803755","225262.657667","226029.536026","226795.933","227562.908129","228329.591089","229096.377932","229862.803969","230612.581595","231388.390758","Mapping"
"Blocked","m150","ball","2","m150bluff.wav","None","730.242148275","177","224513.278566","231379.443258","232146.18156","232912.833603","219096.221799","219863.021936","220629.905241","221379.803755","225262.657667","226029.536026","226795.933","227562.908129","228329.591089","229096.377932","229862.803969","230612.581595","232155.469461","Mapping"
"Blocked","m150","ball","2","m150ball.wav","None","727.260472719","177","224513.278566","231379.443258","232146.18156","232912.833603","233679.463385","219863.021936","220629.905241","221379.803755","225262.657667","226029.536026","226795.933","227562.908129","228329.591089","229096.377932","229862.803969","230612.581595","232922.77046","Mapping"
"Blocked","m150","ball","2","m150done.wav","space","385.551920626","177","224513.278566","231379.443258","232146.18156","232912.833603","233679.463385","234446.619691","220629.905241","221379.803755","225262.657667","226029.536026","226795.933","227562.908129","228329.591089","229096.377932","229862.803969","230612.581595","233688.987186","Mapping"
"Blocked","m150","ball","2","m150ball.wav","None","721.496229758","177","224513.278566","231379.443258","232146.18156","232912.833603","233679.463385","234446.619691","235213.200005","221379.803755","225262.657667","226029.536026","226795.933","227562.908129","228329.591089","229096.377932","229862.803969","230612.581595","234456.523776","Mapping"
"Blocked","m150","ball","2","m150cling.wav","None","719.546886859","177","224513.278566","231379.443258","232146.18156","232912.833603","233679.463385","234446.619691","235213.200005","235962.389582","225262.657667","226029.536026","226795.933","227562.908129","228329.591089","229096.377932","229862.803969","230612.581595","235222.983512","Mapping"
"Blocked","m150","ball","3","m150tile.wav","space","0.0336999073625","177","239096.227364","231379.443258","232146.18156","232912.833603","233679.463385","234446.619691","235213.200005","235962.389582","225262.657667","226029.536026","226795.933","227562.908129","228329.591089","229096.377932","229862.803969","230612.581595","235971.886794","Mapping"
"Blocked","m150","ball","3","m150dime.wav","None","719.993025064","177","239096.227364","231379.443258","232146.18156","232912.833603","233679.463385","234446.619691","235213.200005","235962.389582","239845.712512","226029.536026","226795.933","227562.908129","228329.591089","229096.377932","229862.803969","230612.581595","239106.059102","Mapping"
"Blocked","m150","ball","3","m150bluff.wav","None","734.888417413","177","239096.227364","231379.443258","232146.18156","232912.833603","233679.463385","234446.619691","235213.200005","235962.389582","239845.712512","240612.717632","226795.933","227562.908129","228329.591089","229096.377932","229862.803969","230612.581595","239855.67905","Mapping"
"Blocked","m150","ball","3","m150done.wav","None","733.121796278","177","239096.227364","231379.443258","232146.18156","232912.833603","233679.463385","234446.619691","235213.200005","235962.389582","239845.712512","240612.717632","241379.288052","227562.908129","228329.591089","229096.377932","229862.803969","230612.581595","240621.968432","Mapping"
"Blocked","m150","ball","3","m150reek.wav","None","730.855240719","177","239096.227364","231379.443258","232146.18156","232912.833603","233679.463385","234446.619691","235213.200005","235962.389582","239845.712512","240612.717632","241379.288052","242145.783962","228329.591089","229096.377932","229862.803969","230612.581595","241388.688493","Mapping"
"Blocked","m150","ball","3","m150ball.wav","None","728.927848861","177","239096.227364","231379.443258","232146.18156","232912.833603","233679.463385","234446.619691","235213.200005","235962.389582","239845.712512","240612.717632","241379.288052","242145.783962","242912.673142","229096.377932","229862.803969","230612.581595","242155.048984","Mapping"
"Blocked","m150","ball","3","m150bluff.wav","space","424.136546208","177","239096.227364","231379.443258","232146.18156","232912.833603","233679.463385","234446.619691","235213.200005","235962.389582","239845.712512","240612.717632","241379.288052","242145.783962","242912.673142","243679.696193","229862.803969","230612.581595","242922.278564","Mapping"
"Blocked","m150","ball","3","m150ball.wav","None","722.52948978","177","239096.227364","231379.443258","232146.18156","232912.833603","233679.463385","234446.619691","235213.200005","235962.389582","239845.712512","240612.717632","241379.288052","242145.783962","242912.673142","243679.696193","244446.619382","230612.581595","243689.692412","Mapping"
"Blocked","m150","ball","3","m150done.wav","space","426.115260692","177","239096.227364","231379.443258","232146.18156","232912.833603","233679.463385","234446.619691","235213.200005","235962.389582","239845.712512","240612.717632","241379.288052","242145.783962","242912.673142","243679.696193","244446.619382","245195.503186","244456.272108","Mapping"
"Blocked","m150","ball","3","m150reek.wav","None","736.367506674","177","239096.227364","245962.654236","232146.18156","232912.833603","233679.463385","234446.619691","235213.200005","235962.389582","239845.712512","240612.717632","241379.288052","242145.783962","242912.673142","243679.696193","244446.619382","245195.503186","245204.471091","Mapping"
"Blocked","m150","ball","3","m150ball.wav","None","733.113139635","177","239096.227364","245962.654236","246729.201468","232912.833603","233679.463385","234446.619691","235213.200005","235962.389582","239845.712512","240612.717632","241379.288052","242145.783962","242912.673142","243679.696193","244446.619382","245195.503186","245972.284701","Mapping"
"Blocked","m150","ball","3","m150knife.wav","space","431.608358165","177","239096.227364","245962.654236","246729.201468","247495.745918","233679.463385","234446.619691","235213.200005","235962.389582","239845.712512","240612.717632","241379.288052","242145.783962","242912.673142","243679.696193","244446.619382","245195.503186","246738.736708","Mapping"
"Blocked","m150","ball","3","m150done.wav","None","729.071305832","177","239096.227364","245962.654236","246729.201468","247495.745918","248262.622421","234446.619691","235213.200005","235962.389582","239845.712512","240612.717632","241379.288052","242145.783962","242912.673142","243679.696193","244446.619382","245195.503186","247505.343612","Mapping"
"Blocked","m150","ball","3","m150jolt.wav","space","498.152220622","177","239096.227364","245962.654236","246729.201468","247495.745918","248262.622421","249029.113384","235213.200005","235962.389582","239845.712512","240612.717632","241379.288052","242145.783962","242912.673142","243679.696193","244446.619382","245195.503186","248272.183014","Mapping"
"Blocked","m150","ball","3","m150ball.wav","None","724.948159186","177","239096.227364","245962.654236","246729.201468","247495.745918","248262.622421","249029.113384","249796.452103","235962.389582","239845.712512","240612.717632","241379.288052","242145.783962","242912.673142","243679.696193","244446.619382","245195.503186","249038.185482","Mapping"
"Blocked","m150","ball","3","m150lash.wav","space","540.373352356","177","239096.227364","245962.654236","246729.201468","247495.745918","248262.622421","249029.113384","249796.452103","250563.016649","239845.712512","240612.717632","241379.288052","242145.783962","242912.673142","243679.696193","244446.619382","245195.503186","249805.918397","Mapping"
"Blocked","m150","done","21","m150tile.wav","None","718.388102017","177","253679.424738","245962.654236","246729.201468","247495.745918","248262.622421","249029.113384","249796.452103","250563.016649","239845.712512","240612.717632","241379.288052","242145.783962","242912.673142","243679.696193","244446.619382","245195.503186","250572.875904","Mapping"
"Blocked","m150","done","21","m150dime.wav","None","720.31085589","177","253679.424738","245962.654236","246729.201468","247495.745918","248262.622421","249029.113384","249796.452103","250563.016649","254428.782506","240612.717632","241379.288052","242145.783962","242912.673142","243679.696193","244446.619382","245195.503186","253689.488048","Mapping"
"Blocked","m150","done","21","m150depth.wav","None","736.427795608","177","253679.424738","245962.654236","246729.201468","247495.745918","248262.622421","249029.113384","249796.452103","250563.016649","254428.782506","255195.423109","241379.288052","242145.783962","242912.673142","243679.696193","244446.619382","245195.503186","254437.99064","Mapping"
"Blocked","m150","done","21","m150gnash.wav","None","734.393738909","177","253679.424738","245962.654236","246729.201468","247495.745918","248262.622421","249029.113384","249796.452103","250563.016649","254428.782506","255195.423109","255962.498103","242145.783962","242912.673142","243679.696193","244446.619382","245195.503186","255204.662779","Mapping"
"Blocked","m150","done","21","m150done.wav","None","731.405261438","177","253679.424738","245962.654236","246729.201468","247495.745918","248262.622421","249029.113384","249796.452103","250563.016649","254428.782506","255195.423109","255962.498103","256728.885183","242912.673142","243679.696193","244446.619382","245195.503186","255972.126095","Mapping"
"Blocked","m150","done","21","m150park.wav","None","730.126517126","177","253679.424738","245962.654236","246729.201468","247495.745918","248262.622421","249029.113384","249796.452103","250563.016649","254428.782506","255195.423109","255962.498103","256728.885183","257495.747773","243679.696193","244446.619382","245195.503186","256738.097027","Mapping"
"Blocked","m150","done","21","m150ball.wav","space","48.7354313955","177","253679.424738","245962.654236","246729.201468","247495.745918","248262.622421","249029.113384","249796.452103","250563.016649","254428.782506","255195.423109","255962.498103","256728.885183","257495.747773","258262.139182","244446.619382","245195.503186","257505.458934","Mapping"
"Blocked","m150","done","21","m150romp.wav","None","725.074611371","177","253679.424738","245962.654236","246729.201468","247495.745918","248262.622421","249029.113384","249796.452103","250563.016649","254428.782506","255195.423109","255962.498103","256728.885183","257495.747773","258262.139182","259029.367216","245195.503186","258271.470986","Mapping"
"Blocked","m150","done","21","m150cling.wav","None","721.517872065","177","253679.424738","245962.654236","246729.201468","247495.745918","248262.622421","249029.113384","249796.452103","250563.016649","254428.782506","255195.423109","255962.498103","256728.885183","257495.747773","258262.139182","259029.367216","259796.069964","259039.634581","Mapping"
"Blocked","m150","done","21","m150done.wav","None","719.707038952","177","253679.424738","260545.441026","246729.201468","247495.745918","248262.622421","249029.113384","249796.452103","250563.016649","254428.782506","255195.423109","255962.498103","256728.885183","257495.747773","258262.139182","259029.367216","259796.069964","259805.978068","Mapping"
"Blocked","m150","done","21","m150cave.wav","space","359.122786438","177","253679.424738","260545.441026","261312.450474","247495.745918","248262.622421","249029.113384","249796.452103","250563.016649","254428.782506","255195.423109","255962.498103","256728.885183","257495.747773","258262.139182","259029.367216","259796.069964","260555.044903","Mapping"
"Blocked","m150","done","21","m150lash.wav","None","731.63219518","177","253679.424738","260545.441026","261312.450474","262078.92907","248262.622421","249029.113384","249796.452103","250563.016649","254428.782506","255195.423109","255962.498103","256728.885183","257495.747773","258262.139182","259029.367216","259796.069964","261322.336318","Mapping"
"Blocked","m150","done","21","m150done.wav","None","730.221433565","177","253679.424738","260545.441026","261312.450474","262078.92907","262845.559471","249029.113384","249796.452103","250563.016649","254428.782506","255195.423109","255962.498103","256728.885183","257495.747773","258262.139182","259029.367216","259796.069964","262088.386399","Mapping"
"Blocked","m150","done","21","m150bluff.wav","space","442.857659655","177","253679.424738","260545.441026","261312.450474","262078.92907","262845.559471","263612.384342","249796.452103","250563.016649","254428.782506","255195.423109","255962.498103","256728.885183","257495.747773","258262.139182","259029.367216","259796.069964","262855.224564","Mapping"
"Blocked","m150","done","21","m150done.wav","None","725.479629589","177","253679.424738","260545.441026","261312.450474","262078.92907","262845.559471","263612.384342","264379.269193","250563.016649","254428.782506","255195.423109","255962.498103","256728.885183","257495.747773","258262.139182","259029.367216","259796.069964","263621.937514","Mapping"
"Blocked","m150","done","21","m150lash.wav","space","645.111353835","177","253679.424738","260545.441026","261312.450474","262078.92907","262845.559471","263612.384342","264379.269193","265145.801276","254428.782506","255195.423109","255962.498103","256728.885183","257495.747773","258262.139182","259029.367216","259796.069964","264388.975715","Mapping"
"Blocked","m150","tile","17","m150ball.wav","None","719.557089498","177","268262.755366","260545.441026","261312.450474","262078.92907","262845.559471","263612.384342","264379.269193","265145.801276","254428.782506","255195.423109","255962.498103","256728.885183","257495.747773","258262.139182","259029.367216","259796.069964","265156.372249","Mapping"
"Blocked","m150","tile","17","m150tile.wav","None","719.835037133","177","268262.755366","260545.441026","261312.450474","262078.92907","262845.559471","263612.384342","264379.269193","265145.801276","269011.951127","255195.423109","255962.498103","256728.885183","257495.747773","258262.139182","259029.367216","259796.069964","268272.736126","Mapping"
"Blocked","m150","tile","17","m150bluff.wav","space","548.642524518","177","268262.755366","260545.441026","261312.450474","262078.92907","262845.559471","263612.384342","264379.269193","265145.801276","269011.951127","269795.37896","255962.498103","256728.885183","257495.747773","258262.139182","259029.367216","259796.069964","269021.362388","Mapping"
"Blocked","m150","tile","17","m150lash.wav","None","721.281044651","177","268262.755366","260545.441026","261312.450474","262078.92907","262845.559471","263612.384342","264379.269193","265145.801276","269011.951127","269795.37896","270545.173591","256728.885183","257495.747773","258262.139182","259029.367216","259796.069964","269804.075101","Mapping"
"Blocked","m150","tile","17","m150tile.wav","None","736.829722067","177","268262.755366","260545.441026","261312.450474","262078.92907","262845.559471","263612.384342","264379.269193","265145.801276","269011.951127","269795.37896","270545.173591","271311.563454","257495.747773","258262.139182","259029.367216","259796.069964","270553.862621","Mapping"
"Blocked","m150","tile","17","m150park.wav","space","361.783229979","177","268262.755366","260545.441026","261312.450474","262078.92907","262845.559471","263612.384342","264379.269193","265145.801276","269011.951127","269795.37896","270545.173591","271311.563454","272078.780667","258262.139182","259029.367216","259796.069964","271320.235479","Mapping"
"Blocked","m150","tile","17","m150reek.wav","None","732.897335896","177","268262.755366","260545.441026","261312.450474","262078.92907","262845.559471","263612.384342","264379.269193","265145.801276","269011.951127","269795.37896","270545.173591","271311.563454","272078.780667","272845.431473","259029.367216","259796.069964","272087.80917","Mapping"
"Blocked","m150","tile","17","m150priest.wav","None","730.732189491","177","268262.755366","260545.441026","261312.450474","262078.92907","262845.559471","263612.384342","264379.269193","265145.801276","269011.951127","269795.37896","270545.173591","271311.563454","272078.780667","272845.431473","273612.228827","259796.069964","272854.768532","Mapping"
"Blocked","m150","tile","17","m150romp.wav","None","729.309988208","177","268262.755366","260545.441026","261312.450474","262078.92907","262845.559471","263612.384342","264379.269193","265145.801276","269011.951127","269795.37896","270545.173591","271311.563454","272078.780667","272845.431473","273612.228827","274378.630439","273621.731295","Mapping"
"Blocked","m150","tile","17","m150done.wav","None","728.447701549","177","268262.755366","275145.454383","261312.450474","262078.92907","262845.559471","263612.384342","264379.269193","265145.801276","269011.951127","269795.37896","270545.173591","271311.563454","272078.780667","272845.431473","273612.228827","274378.630439","274387.430463","Mapping"
"Blocked","m150","tile","17","m150done.wav","None","726.046655094","177","268262.755366","275145.454383","275912.219274","262078.92907","262845.559471","263612.384342","264379.269193","265145.801276","269011.951127","269795.37896","270545.173591","271311.563454","272078.780667","272845.431473","273612.228827","274378.630439","275154.465263","Mapping"
"Blocked","m150","tile","17","m150tile.wav","None","723.456393927","177","268262.755366","275145.454383","275912.219274","276679.107835","262845.559471","263612.384342","264379.269193","265145.801276","269011.951127","269795.37896","270545.173591","271311.563454","272078.780667","272845.431473","273612.228827","274378.630439","275921.761934","Mapping"
"Blocked","m150","tile","17","m150reek.wav","space","489.32591686","177","268262.755366","275145.454383","275912.219274","276679.107835","277428.789926","263612.384342","264379.269193","265145.801276","269011.951127","269795.37896","270545.173591","271311.563454","272078.780667","272845.431473","273612.228827","274378.630439","276688.597626","Mapping"
"Blocked","m150","tile","17","m150knife.wav","None","735.59302534","177","268262.755366","275145.454383","275912.219274","276679.107835","277428.789926","278195.217818","264379.269193","265145.801276","269011.951127","269795.37896","270545.173591","271311.563454","272078.780667","272845.431473","273612.228827","274378.630439","277438.360722","Mapping"
"Blocked","m150","tile","17","m150tile.wav","None","734.185046284","177","268262.755366","275145.454383","275912.219274","276679.107835","277428.789926","278195.217818","278962.230358","265145.801276","269011.951127","269795.37896","270545.173591","271311.563454","272078.780667","272845.431473","273612.228827","274378.630439","278204.638664","Mapping"
"Blocked","m150","tile","17","m150gnash.wav","space","502.056162804","177","268262.755366","275145.454383","275912.219274","276679.107835","277428.789926","278195.217818","278962.230358","279728.695041","269011.951127","269795.37896","270545.173591","271311.563454","272078.780667","272845.431473","273612.228827","274378.630439","278971.808264","Mapping"
"Blocked","m150","cave","7","m150reek.wav","None","729.418508243","177","282862.446254","275145.454383","275912.219274","276679.107835","277428.789926","278195.217818","278962.230358","279728.695041","269011.951127","269795.37896","270545.173591","271311.563454","272078.780667","272845.431473","273612.228827","274378.630439","279737.933783","Mapping"
"Blocked","m150","cave","7","m150greet.wav","None","719.587697648","177","282862.446254","275145.454383","275912.219274","276679.107835","277428.789926","278195.217818","278962.230358","279728.695041","283611.761356","269795.37896","270545.173591","271311.563454","272078.780667","272845.431473","273612.228827","274378.630439","282872.604789","Mapping"
"Blocked","m150","cave","7","m150cave.wav","None","735.893542645","177","282862.446254","275145.454383","275912.219274","276679.107835","277428.789926","278195.217818","278962.230358","279728.695041","283611.761356","284378.739268","270545.173591","271311.563454","272078.780667","272845.431473","273612.228827","274378.630439","283621.072136","Mapping"
"Blocked","m150","cave","7","m150greet.wav","space","502.181068994","177","282862.446254","275145.454383","275912.219274","276679.107835","277428.789926","278195.217818","278962.230358","279728.695041","283611.761356","284378.739268","285145.037925","271311.563454","272078.780667","272845.431473","273612.228827","274378.630439","284387.604528","Mapping"
"Blocked","m150","cave","7","m150romp.wav","None","731.439270545","177","282862.446254","275145.454383","275912.219274","276679.107835","277428.789926","278195.217818","278962.230358","279728.695041","283611.761356","284378.739268","285145.037925","285912.043045","272078.780667","272845.431473","273612.228827","274378.630439","285153.845988","Mapping"
"Blocked","m150","cave","7","m150dime.wav","None","728.6471189","177","282862.446254","275145.454383","275912.219274","276679.107835","277428.789926","278195.217818","278962.230358","279728.695041","283611.761356","284378.739268","285145.037925","285912.043045","286678.514529","272845.431473","273612.228827","274378.630439","285921.507484","Mapping"
"Blocked","m150","cave","7","m150park.wav","None","727.898298996","177","282862.446254","275145.454383","275912.219274","276679.107835","277428.789926","278195.217818","278962.230358","279728.695041","283611.761356","284378.739268","285145.037925","285912.043045","286678.514529","287445.221605","273612.228827","274378.630439","286687.602395","Mapping"
"Blocked","m150","cave","7","m150greet.wav","None","725.150359096","177","282862.446254","275145.454383","275912.219274","276679.107835","277428.789926","278195.217818","278962.230358","279728.695041","283611.761356","284378.739268","285145.037925","285912.043045","286678.514529","287445.221605","288212.44933","274378.630439","287454.960591","Mapping"
"Blocked","m150","cave","7","m150park.wav","None","722.858760273","177","282862.446254","275145.454383","275912.219274","276679.107835","277428.789926","278195.217818","278962.230358","279728.695041","283611.761356","284378.739268","285145.037925","285912.043045","286678.514529","287445.221605","288212.44933","288978.10676","288222.202229","Mapping"
"Blocked","m150","cave","7","m150greet.wav","None","722.996961093","177","282862.446254","289745.615215","275912.219274","276679.107835","277428.789926","278195.217818","278962.230358","279728.695041","283611.761356","284378.739268","285145.037925","285912.043045","286678.514529","287445.221605","288212.44933","288978.10676","288986.867828","Mapping"
"Blocked","m150","cave","7","m150cave.wav","None","719.481960172","177","282862.446254","289745.615215","290495.012866","276679.107835","277428.789926","278195.217818","278962.230358","279728.695041","283611.761356","284378.739268","285145.037925","285912.043045","286678.514529","287445.221605","288212.44933","288978.10676","289755.211672","Mapping"
"Blocked","m150","cave","7","m150priest.wav","space","513.270527823","177","282862.446254","289745.615215","290495.012866","291262.495969","277428.789926","278195.217818","278962.230358","279728.695041","283611.761356","284378.739268","285145.037925","285912.043045","286678.514529","287445.221605","288212.44933","288978.10676","290504.43433","Mapping"
"Blocked","m150","cave","7","m150cave.wav","None","731.119893724","177","282862.446254","289745.615215","290495.012866","291262.495969","292028.492563","278195.217818","278962.230358","279728.695041","283611.761356","284378.739268","285145.037925","285912.043045","286678.514529","287445.221605","288212.44933","288978.10676","291271.876004","Mapping"
"Blocked","m150","cave","7","m150reek.wav","space","603.776314994","177","282862.446254","289745.615215","290495.012866","291262.495969","292028.492563","292795.199329","278962.230358","279728.695041","283611.761356","284378.739268","285145.037925","285912.043045","286678.514529","287445.221605","288212.44933","288978.10676","292037.90537","Mapping"
"Blocked","m150","cave","7","m150cave.wav","None","726.580908056","177","282862.446254","289745.615215","290495.012866","291262.495969","292028.492563","292795.199329","293561.932685","279728.695041","283611.761356","284378.739268","285145.037925","285912.043045","286678.514529","287445.221605","288212.44933","288978.10676","292804.874316","Mapping"
"Blocked","m150","cave","7","m150done.wav","space","446.145108435","177","282862.446254","289745.615215","290495.012866","291262.495969","292028.492563","292795.199329","293561.932685","294328.704687","283611.761356","284378.739268","285145.037925","285912.043045","286678.514529","287445.221605","288212.44933","288978.10676","293571.523576","Mapping"
"Blocked","m150","ball","5","m150greet.wav","None","721.126766643","177","297445.614566","289745.615215","290495.012866","291262.495969","292028.492563","292795.199329","293561.932685","294328.704687","283611.761356","284378.739268","285145.037925","285912.043045","286678.514529","287445.221605","288212.44933","288978.10676","294338.761195","Mapping"
"Blocked","m150","ball","5","m150cave.wav","None","719.628508668","177","297445.614566","289745.615215","290495.012866","291262.495969","292028.492563","292795.199329","293561.932685","294328.704687","298194.703661","284378.739268","285145.037925","285912.043045","286678.514529","287445.221605","288212.44933","288978.10676","297455.487424","Mapping"
"Blocked","m150","ball","5","m150depth.wav","None","735.876228893","177","297445.614566","289745.615215","290495.012866","291262.495969","292028.492563","292795.199329","293561.932685","294328.704687","298194.703661","298961.475045","285145.037925","285912.043045","286678.514529","287445.221605","288212.44933","288978.10676","298204.051851","Mapping"
"Blocked","m150","ball","5","m150cling.wav","None","734.262958169","177","297445.614566","289745.615215","290495.012866","291262.495969","292028.492563","292795.199329","293561.932685","294328.704687","298194.703661","298961.475045","299728.342582","285912.043045","286678.514529","287445.221605","288212.44933","288978.10676","298970.587644","Mapping"
"Blocked","m150","ball","5","m150priest.wav","None","732.401420595","177","297445.614566","289745.615215","290495.012866","291262.495969","292028.492563","292795.199329","293561.932685","294328.704687","298194.703661","298961.475045","299728.342582","300495.082431","286678.514529","287445.221605","288212.44933","288978.10676","299737.369849","Mapping"
"Blocked","m150","ball","5","m150ball.wav","None","730.431053787","177","297445.614566","289745.615215","290495.012866","291262.495969","292028.492563","292795.199329","293561.932685","294328.704687","298194.703661","298961.475045","299728.342582","300495.082431","301261.807748","287445.221605","288212.44933","288978.10676","300504.453808","Mapping"
"Blocked","m150","ball","5","m150jaw.wav","space","498.108318076","177","297445.614566","289745.615215","290495.012866","291262.495969","292028.492563","292795.199329","293561.932685","294328.704687","298194.703661","298961.475045","299728.342582","300495.082431","301261.807748","302028.33272","288212.44933","288978.10676","301271.414716","Mapping"
"Blocked","m150","ball","5","m150greet.wav","None","725.871662376","177","297445.614566","289745.615215","290495.012866","291262.495969","292028.492563","292795.199329","293561.932685","294328.704687","298194.703661","298961.475045","299728.342582","300495.082431","301261.807748","302028.33272","302795.096065","288978.10676","302037.75944","Mapping"
"Blocked","m150","ball","5","m150ball.wav","None","724.411123665","177","297445.614566","289745.615215","290495.012866","291262.495969","292028.492563","292795.199329","293561.932685","294328.704687","298194.703661","298961.475045","299728.342582","300495.082431","301261.807748","302028.33272","302795.096065","303562.121899","302804.684792","Mapping"
"Blocked","m150","ball","5","m150dime.wav","space","381.467730273","177","297445.614566","304328.625848","290495.012866","291262.495969","292028.492563","292795.199329","293561.932685","294328.704687","298194.703661","298961.475045","299728.342582","300495.082431","301261.807748","302028.33272","302795.096065","303562.121899","303572.045462","Mapping"
"Blocked","m150","ball","5","m150romp.wav","None","719.528336311","177","297445.614566","304328.625848","305078.187671","291262.495969","292028.492563","292795.199329","293561.932685","294328.704687","298194.703661","298961.475045","299728.342582","300495.082431","301261.807748","302028.33272","302795.096065","303562.121899","304338.198807","Mapping"
"Blocked","m150","ball","5","m150cad.wav","None","736.267334083","177","297445.614566","304328.625848","305078.187671","305844.985334","292028.492563","292795.199329","293561.932685","294328.704687","298194.703661","298961.475045","299728.342582","300495.082431","301261.807748","302028.33272","302795.096065","303562.121899","305086.978729","Mapping"
"Blocked","m150","ball","5","m150ball.wav","None","733.647701563","177","297445.614566","304328.625848","305078.187671","305844.985334","306611.743115","292795.199329","293561.932685","294328.704687","298194.703661","298961.475045","299728.342582","300495.082431","301261.807748","302028.33272","302795.096065","303562.121899","305854.551492","Mapping"
"Blocked","m150","ball","5","m150gnash.wav","space","364.12646086","177","297445.614566","304328.625848","305078.187671","305844.985334","306611.743115","307378.12463","293561.932685","294328.704687","298194.703661","298961.475045","299728.342582","300495.082431","301261.807748","302028.33272","302795.096065","303562.121899","306621.311746","Mapping"
"Blocked","m150","ball","5","m150ball.wav","None","729.668011889","177","297445.614566","304328.625848","305078.187671","305844.985334","306611.743115","307378.12463","308145.074717","294328.704687","298194.703661","298961.475045","299728.342582","300495.082431","301261.807748","302028.33272","302795.096065","303562.121899","307387.145095","Mapping"
"Blocked","m150","ball","5","m150jolt.wav","space","550.994412275","177","297445.614566","304328.625848","305078.187671","305844.985334","306611.743115","307378.12463","308145.074717","308912.037789","298194.703661","298961.475045","299728.342582","300495.082431","301261.807748","302028.33272","302795.096065","303562.121899","308154.449805","Mapping"
"Blocked","m150","ball","4","m150depth.wav","None","723.472780082","177","312028.39239","304328.625848","305078.187671","305844.985334","306611.743115","307378.12463","308145.074717","308912.037789","298194.703661","298961.475045","299728.342582","300495.082431","301261.807748","302028.33272","302795.096065","303562.121899","308922.052867","Mapping"
"Blocked","m150","ball","4","m150jolt.wav","None","719.017271418","177","312028.39239","304328.625848","305078.187671","305844.985334","306611.743115","307378.12463","308145.074717","308912.037789","312777.885576","298961.475045","299728.342582","300495.082431","301261.807748","302028.33272","302795.096065","303562.121899","312038.761782","Mapping"
"Blocked","m150","ball","4","m150ball.wav","None","735.342594329","177","312028.39239","304328.625848","305078.187671","305844.985334","306611.743115","307378.12463","308145.074717","308912.037789","312777.885576","313544.624497","299728.342582","300495.082431","301261.807748","302028.33272","302795.096065","303562.121899","312787.356818","Mapping"
"Blocked","m150","ball","4","m150dime.wav","space","343.499597861","177","312028.39239","304328.625848","305078.187671","305844.985334","306611.743115","307378.12463","308145.074717","308912.037789","312777.885576","313544.624497","314311.618487","300495.082431","301261.807748","302028.33272","302795.096065","303562.121899","313553.85922","Mapping"
"Blocked","m150","ball","4","m150ball.wav","None","730.507728877","177","312028.39239","304328.625848","305078.187671","305844.985334","306611.743115","307378.12463","308145.074717","308912.037789","312777.885576","313544.624497","314311.618487","315078.020717","301261.807748","302028.33272","302795.096065","303562.121899","314320.837132","Mapping"
"Blocked","m150","ball","4","m150cave.wav","space","338.181184139","177","312028.39239","304328.625848","305078.187671","305844.985334","306611.743115","307378.12463","308145.074717","308912.037789","312777.885576","313544.624497","314311.618487","315078.020717","315844.546616","302028.33272","302795.096065","303562.121899","315087.156504","Mapping"
"Blocked","m150","ball","4","m150bluff.wav","None","726.592347259","177","312028.39239","304328.625848","305078.187671","305844.985334","306611.743115","307378.12463","308145.074717","308912.037789","312777.885576","313544.624497","314311.618487","315078.020717","315844.546616","316611.371178","302795.096065","303562.121899","315853.910574","Mapping"
"Blocked","m150","ball","4","m150ball.wav","None","725.13088095","177","312028.39239","304328.625848","305078.187671","305844.985334","306611.743115","307378.12463","308145.074717","308912.037789","312777.885576","313544.624497","314311.618487","315078.020717","315844.546616","316611.371178","317378.343835","303562.121899","316620.398445","Mapping"
"Blocked","m150","ball","4","m150tile.wav","space","453.227979131","177","312028.39239","304328.625848","305078.187671","305844.985334","306611.743115","307378.12463","308145.074717","308912.037789","312777.885576","313544.624497","314311.618487","315078.020717","315844.546616","316611.371178","317378.343835","318145.166541","317388.081893","Mapping"
"Blocked","m150","ball","4","m150dime.wav","None","719.630363863","177","312028.39239","318894.592637","305078.187671","305844.985334","306611.743115","307378.12463","308145.074717","308912.037789","312777.885576","313544.624497","314311.618487","315078.020717","315844.546616","316611.371178","317378.343835","318145.166541","318154.753723","Mapping"
"Blocked","m150","ball","4","m150jaw.wav","None","734.84111391","177","312028.39239","318894.592637","319661.534994","305844.985334","306611.743115","307378.12463","308145.074717","308912.037789","312777.885576","313544.624497","314311.618487","315078.020717","315844.546616","316611.371178","317378.343835","318145.166541","318904.52362","Mapping"
"Blocked","m150","ball","4","m150greet.wav","None","733.497133711","177","312028.39239","318894.592637","319661.534994","320428.083464","306611.743115","307378.12463","308145.074717","308912.037789","312777.885576","313544.624497","314311.618487","315078.020717","315844.546616","316611.371178","317378.343835","318145.166541","319670.893078","Mapping"
"Blocked","m150","ball","4","m150greet.wav","None","732.224263716","177","312028.39239","318894.592637","319661.534994","320428.083464","321194.640899","307378.12463","308145.074717","308912.037789","312777.885576","313544.624497","314311.618487","315078.020717","315844.546616","316611.371178","317378.343835","318145.166541","320437.152778","Mapping"
"Blocked","m150","ball","4","m150ball.wav","None","731.270770775","177","312028.39239","318894.592637","319661.534994","320428.083464","321194.640899","321961.181948","308145.074717","308912.037789","312777.885576","313544.624497","314311.618487","315078.020717","315844.546616","316611.371178","317378.343835","318145.166541","321203.779469","Mapping"
"Blocked","m150","ball","4","m150dime.wav","space","399.064377183","177","312028.39239","318894.592637","319661.534994","320428.083464","321194.640899","321961.181948","322727.989815","308912.037789","312777.885576","313544.624497","314311.618487","315078.020717","315844.546616","316611.371178","317378.343835","318145.166541","321970.167167","Mapping"
"Blocked","m150","ball","4","m150reek.wav","None","726.713234559","177","312028.39239","318894.592637","319661.534994","320428.083464","321194.640899","321961.181948","322727.989815","323494.505202","312777.885576","313544.624497","314311.618487","315078.020717","315844.546616","316611.371178","317378.343835","318145.166541","322737.057893","Mapping"
"Blocked","m150","cave","10","m150priest.wav","None","725.241565611","177","326611.878842","318894.592637","319661.534994","320428.083464","321194.640899","321961.181948","322727.989815","323494.505202","312777.885576","313544.624497","314311.618487","315078.020717","315844.546616","316611.371178","317378.343835","318145.166541","323503.463523","Mapping"
"Blocked","m150","cave","10","m150cave.wav","None","720.029198332","177","326611.878842","318894.592637","319661.534994","320428.083464","321194.640899","321961.181948","322727.989815","323494.505202","327361.285769","313544.624497","314311.618487","315078.020717","315844.546616","316611.371178","317378.343835","318145.166541","326621.649364","Mapping"
"Blocked","m150","cave","10","m150jolt.wav","space","455.021498492","177","326611.878842","318894.592637","319661.534994","320428.083464","321194.640899","321961.181948","322727.989815","323494.505202","327361.285769","328128.045713","314311.618487","315078.020717","315844.546616","316611.371178","317378.343835","318145.166541","327370.131551","Mapping"
"Blocked","m150","cave","10","m150cave.wav","None","733.031517593","177","326611.878842","318894.592637","319661.534994","320428.083464","321194.640899","321961.181948","322727.989815","323494.505202","327361.285769","328128.045713","328894.547807","315078.020717","315844.546616","316611.371178","317378.343835","318145.166541","328137.222621","Mapping"
"Blocked","m150","cave","10","m150tile.wav","space","424.676982453","177","326611.878842","318894.592637","319661.534994","320428.083464","321194.640899","321961.181948","322727.989815","323494.505202","327361.285769","328128.045713","328894.547807","329661.420291","315844.546616","316611.371178","317378.343835","318145.166541","328904.48992","Mapping"
"Blocked","m150","cave","10","m150ball.wav","None","727.720832918","177","326611.878842","318894.592637","319661.534994","320428.083464","321194.640899","321961.181948","322727.989815","323494.505202","327361.285769","328128.045713","328894.547807","329661.420291","330427.94619","316611.371178","317378.343835","318145.166541","329670.950584","Mapping"
"Blocked","m150","cave","10","m150cave.wav","None","726.761774858","177","326611.878842","318894.592637","319661.534994","320428.083464","321194.640899","321961.181948","322727.989815","323494.505202","327361.285769","328128.045713","328894.547807","329661.420291","330427.94619","331194.287204","317378.343835","318145.166541","330436.945631","Mapping"
"Blocked","m150","cave","10","m150depth.wav","space","430.096187163","177","326611.878842","318894.592637","319661.534994","320428.083464","321194.640899","321961.181948","322727.989815","323494.505202","327361.285769","328128.045713","328894.547807","329661.420291","330427.94619","331194.287204","331961.713728","318145.166541","331203.028485","Mapping"
"Blocked","m150","cave","10","m150bluff.wav","None","720.845108852","177","326611.878842","318894.592637","319661.534994","320428.083464","321194.640899","321961.181948","322727.989815","323494.505202","327361.285769","328128.045713","328894.547807","329661.420291","330427.94619","331194.287204","331961.713728","332728.337945","331971.48394","Mapping"
"Blocked","m150","cave","10","m150cave.wav","None","719.06271996","177","326611.878842","333477.508353","319661.534994","320428.083464","321194.640899","321961.181948","322727.989815","323494.505202","327361.285769","328128.045713","328894.547807","329661.420291","330427.94619","331194.287204","331961.713728","332728.337945","332738.31314","Mapping"
"Blocked","m150","cave","10","m150tile.wav","space","370.044981828","177","326611.878842","333477.508353","334244.558921","320428.083464","321194.640899","321961.181948","322727.989815","323494.505202","327361.285769","328128.045713","328894.547807","329661.420291","330427.94619","331194.287204","331961.713728","332728.337945","333487.037101","Mapping"
"Blocked","m150","cave","10","m150tile.wav","None","731.825119816","177","326611.878842","333477.508353","334244.558921","335011.311446","321194.640899","321961.181948","322727.989815","323494.505202","327361.285769","328128.045713","328894.547807","329661.420291","330427.94619","331194.287204","331961.713728","332728.337945","334254.045312","Mapping"
"Blocked","m150","cave","10","m150cad.wav","None","730.359943816","177","326611.878842","333477.508353","334244.558921","335011.311446","335777.713367","321961.181948","322727.989815","323494.505202","327361.285769","328128.045713","328894.547807","329661.420291","330427.94619","331194.287204","331961.713728","332728.337945","335020.588835","Mapping"
"Blocked","m150","cave","10","m150greet.wav","None","729.016582016","177","326611.878842","333477.508353","334244.558921","335011.311446","335777.713367","336544.204639","322727.989815","323494.505202","327361.285769","328128.045713","328894.547807","329661.420291","330427.94619","331194.287204","331961.713728","332728.337945","335786.891201","Mapping"
"Blocked","m150","cave","10","m150park.wav","None","730.584094767","177","326611.878842","333477.508353","334244.558921","335011.311446","335777.713367","336544.204639","337311.313332","323494.505202","327361.285769","328128.045713","328894.547807","329661.420291","330427.94619","331194.287204","331961.713728","332728.337945","336553.028469","Mapping"
"Blocked","m150","cave","10","m150knife.wav","None","727.293554228","177","326611.878842","333477.508353","334244.558921","335011.311446","335777.713367","336544.204639","337311.313332","338077.836449","327361.285769","328128.045713","328894.547807","329661.420291","330427.94619","331194.287204","331961.713728","332728.337945","337321.325628","Mapping"
"Blocked","m150","tile","16","m150ball.wav","None","726.934912382","177","341211.606522","333477.508353","334244.558921","335011.311446","335777.713367","336544.204639","337311.313332","338077.836449","327361.285769","328128.045713","328894.547807","329661.420291","330427.94619","331194.287204","331961.713728","332728.337945","338086.870827","Mapping"
"Blocked","m150","tile","16","m150tile.wav","None","719.709512312","177","341211.606522","333477.508353","334244.558921","335011.311446","335777.713367","336544.204639","337311.313332","338077.836449","341978.111088","328128.045713","328894.547807","329661.420291","330427.94619","331194.287204","331961.713728","332728.337945","341221.740014","Mapping"
"Blocked","m150","tile","16","m150greet.wav","space","509.140270296","177","341211.606522","333477.508353","334244.558921","335011.311446","335777.713367","336544.204639","337311.313332","338077.836449","341978.111088","342727.817605","328894.547807","329661.420291","330427.94619","331194.287204","331961.713728","332728.337945","341987.8105","Mapping"
"Blocked","m150","tile","16","m150cave.wav","None","733.550002566","177","341211.606522","333477.508353","334244.558921","335011.311446","335777.713367","336544.204639","337311.313332","338077.836449","341978.111088","342727.817605","343494.21798","329661.420291","330427.94619","331194.287204","331961.713728","332728.337945","342736.815191","Mapping"
"Blocked","m150","tile","16","m150reek.wav","None","732.291354565","177","341211.606522","333477.508353","334244.558921","335011.311446","335777.713367","336544.204639","337311.313332","338077.836449","341978.111088","342727.817605","343494.21798","344260.873732","330427.94619","331194.287204","331961.713728","332728.337945","343503.240609","Mapping"
"Blocked","m150","tile","16","m150park.wav","None","730.880901916","177","341211.606522","333477.508353","334244.558921","335011.311446","335777.713367","336544.204639","337311.313332","338077.836449","341978.111088","342727.817605","343494.21798","344260.873732","345027.678507","331194.287204","331961.713728","332728.337945","344269.895434","Mapping"
"Blocked","m150","tile","16","m150tile.wav","None","729.871448362","177","341211.606522","333477.508353","334244.558921","335011.311446","335777.713367","336544.204639","337311.313332","338077.836449","341978.111088","342727.817605","343494.21798","344260.873732","345027.678507","345794.470297","331961.713728","332728.337945","345036.745348","Mapping"
"Blocked","m150","tile","16","m150park.wav","space","484.563707374","177","341211.606522","333477.508353","334244.558921","335011.311446","335777.713367","336544.204639","337311.313332","338077.836449","341978.111088","342727.817605","343494.21798","344260.873732","345027.678507","345794.470297","346561.266415","332728.337945","345804.322749","Mapping"
"Blocked","m150","tile","16","m150park.wav","None","724.457809236","177","341211.606522","333477.508353","334244.558921","335011.311446","335777.713367","336544.204639","337311.313332","338077.836449","341978.111088","342727.817605","343494.21798","344260.873732","345027.678507","345794.470297","346561.266415","347327.965452","346571.086713","Mapping"
"Blocked","m150","tile","16","m150tile.wav","None","723.05941442","177","341211.606522","348094.611002","334244.558921","335011.311446","335777.713367","336544.204639","337311.313332","338077.836449","341978.111088","342727.817605","343494.21798","344260.873732","345027.678507","345794.470297","346561.266415","347327.965452","347337.628999","Mapping"
"Blocked","m150","tile","16","m150depth.wav","space","488.601212623","177","341211.606522","348094.611002","348844.41429","335011.311446","335777.713367","336544.204639","337311.313332","338077.836449","341978.111088","342727.817605","343494.21798","344260.873732","345027.678507","345794.470297","346561.266415","347327.965452","348104.260327","Mapping"
"Blocked","m150","tile","16","m150romp.wav","None","735.229745973","177","341211.606522","348094.611002","348844.41429","349611.038198","335777.713367","336544.204639","337311.313332","338077.836449","341978.111088","342727.817605","343494.21798","344260.873732","345027.678507","345794.470297","346561.266415","347327.965452","348854.240463","Mapping"
"Blocked","m150","tile","16","m150tile.wav","None","734.196485719","177","341211.606522","348094.611002","348844.41429","349611.038198","350377.62686","336544.204639","337311.313332","338077.836449","341978.111088","342727.817605","343494.21798","344260.873732","345027.678507","345794.470297","346561.266415","347327.965452","349620.558288","Mapping"
"Blocked","m150","tile","16","m150depth.wav","None","733.20929287","177","341211.606522","348094.611002","348844.41429","349611.038198","350377.62686","351144.324351","337311.313332","338077.836449","341978.111088","342727.817605","343494.21798","344260.873732","345027.678507","345794.470297","346561.266415","347327.965452","350386.678242","Mapping"
"Blocked","m150","tile","16","m150knife.wav","space","118.993093958","177","341211.606522","348094.611002","348844.41429","349611.038198","350377.62686","351144.324351","351911.066363","338077.836449","341978.111088","342727.817605","343494.21798","344260.873732","345027.678507","345794.470297","346561.266415","347327.965452","351153.821253","Mapping"
"Blocked","m150","tile","16","m150done.wav","None","727.756697452","177","341211.606522","348094.611002","348844.41429","349611.038198","350377.62686","351144.324351","351911.066363","352677.461173","341978.111088","342727.817605","343494.21798","344260.873732","345027.678507","345794.470297","346561.266415","347327.965452","351920.997965","Mapping"
"Blocked","m150","done","24","m150ball.wav","None","727.538729552","177","355811.358626","348094.611002","348844.41429","349611.038198","350377.62686","351144.324351","351911.066363","352677.461173","341978.111088","342727.817605","343494.21798","344260.873732","345027.678507","345794.470297","346561.266415","347327.965452","352686.495551","Mapping"
"Blocked","m150","done","24","m150cad.wav","None","719.923770055","177","355811.358626","348094.611002","348844.41429","349611.038198","350377.62686","351144.324351","351911.066363","352677.461173","356561.250956","342727.817605","343494.21798","344260.873732","345027.678507","345794.470297","346561.266415","347327.965452","355821.231793","Mapping"
"Blocked","m150","done","24","m150done.wav","None","735.831089551","177","355811.358626","348094.611002","348844.41429","349611.038198","350377.62686","351144.324351","351911.066363","352677.461173","356561.250956","357327.284959","343494.21798","344260.873732","345027.678507","345794.470297","346561.266415","347327.965452","356570.667164","Mapping"
"Blocked","m150","done","24","m150reek.wav","space","352.254173486","177","355811.358626","348094.611002","348844.41429","349611.038198","350377.62686","351144.324351","351911.066363","352677.461173","356561.250956","357327.284959","358094.114777","344260.873732","345027.678507","345794.470297","346561.266415","347327.965452","357336.44548","Mapping"
"Blocked","m150","done","24","m150cad.wav","None","731.633741176","177","355811.358626","348094.611002","348844.41429","349611.038198","350377.62686","351144.324351","351911.066363","352677.461173","356561.250956","357327.284959","358094.114777","358860.955725","345027.678507","345794.470297","346561.266415","347327.965452","358103.53655","Mapping"
"Blocked","m150","done","24","m150done.wav","None","729.681924684","177","355811.358626","348094.611002","348844.41429","349611.038198","350377.62686","351144.324351","351911.066363","352677.461173","356561.250956","357327.284959","358094.114777","358860.955725","359627.451944","345794.470297","346561.266415","347327.965452","358870.72903","Mapping"
"Blocked","m150","done","24","m150knife.wav","space","340.216786833","177","355811.358626","348094.611002","348844.41429","349611.038198","350377.62686","351144.324351","351911.066363","352677.461173","356561.250956","357327.284959","358094.114777","358860.955725","359627.451944","360393.846445","346561.266415","347327.965452","359636.444584","Mapping"
"Blocked","m150","done","24","m150tile.wav","None","726.323984331","177","355811.358626","348094.611002","348844.41429","349611.038198","350377.62686","351144.324351","351911.066363","352677.461173","356561.250956","357327.284959","358094.114777","358860.955725","359627.451944","360393.846445","361161.277916","347327.965452","360403.100337","Mapping"
"Blocked","m150","done","24","m150bluff.wav","None","723.297169199","177","355811.358626","348094.611002","348844.41429","349611.038198","350377.62686","351144.324351","351911.066363","352677.461173","356561.250956","357327.284959","358094.114777","358860.955725","359627.451944","360393.846445","361161.277916","361928.137105","361171.366578","Mapping"
"Blocked","m150","done","24","m150dime.wav","None","721.458819695","177","355811.358626","362694.468534","348844.41429","349611.038198","350377.62686","351144.324351","351911.066363","352677.461173","356561.250956","357327.284959","358094.114777","358860.955725","359627.451944","360393.846445","361161.277916","361928.137105","361938.384683","Mapping"
"Blocked","m150","done","24","m150knife.wav","space","344.3569378","177","355811.358626","362694.468534","363444.074569","349611.038198","350377.62686","351144.324351","351911.066363","352677.461173","356561.250956","357327.284959","358094.114777","358860.955725","359627.451944","360393.846445","361161.277916","361928.137105","362704.259771","Mapping"
"Blocked","m150","done","24","m150done.wav","None","734.951489139","177","355811.358626","362694.468534","363444.074569","364210.908406","350377.62686","351144.324351","351911.066363","352677.461173","356561.250956","357327.284959","358094.114777","358860.955725","359627.451944","360393.846445","361161.277916","361928.137105","363453.513965","Mapping"
"Blocked","m150","done","24","m150priest.wav","space","684.643288841","177","355811.358626","362694.468534","363444.074569","364210.908406","364977.459349","351144.324351","351911.066363","352677.461173","356561.250956","357327.284959","358094.114777","358860.955725","359627.451944","360393.846445","361161.277916","361928.137105","364219.958243","Mapping"
"Blocked","m150","done","24","m150dime.wav","None","730.862042401","177","355811.358626","362694.468534","363444.074569","364210.908406","364977.459349","365744.002253","351911.066363","352677.461173","356561.250956","357327.284959","358094.114777","358860.955725","359627.451944","360393.846445","361161.277916","361928.137105","364986.441168","Mapping"
"Blocked","m150","done","24","m150done.wav","None","728.655775776","177","355811.358626","362694.468534","363444.074569","364210.908406","364977.459349","365744.002253","366510.839801","352677.461173","356561.250956","357327.284959","358094.114777","358860.955725","359627.451944","360393.846445","361161.277916","361928.137105","365753.931072","Mapping"
"Blocked","m150","done","24","m150ball.wav","space","680.108631263","177","355811.358626","362694.468534","363444.074569","364210.908406","364977.459349","365744.002253","366510.839801","367277.427844","356561.250956","357327.284959","358094.114777","358860.955725","359627.451944","360393.846445","361161.277916","361928.137105","366520.492527","Mapping"
"Blocked","m150","ball","6","m150depth.wav","None","725.568671944","177","370411.191734","362694.468534","363444.074569","364210.908406","364977.459349","365744.002253","366510.839801","367277.427844","356561.250956","357327.284959","358094.114777","358860.955725","359627.451944","360393.846445","361161.277916","361928.137105","367286.423575","Mapping"
"Blocked","m150","ball","6","m150reek.wav","None","719.687560806","177","370411.191734","362694.468534","363444.074569","364210.908406","364977.459349","365744.002253","366510.839801","367277.427844","371177.656108","357327.284959","358094.114777","358860.955725","359627.451944","360393.846445","361161.277916","361928.137105","370421.201865","Mapping"
"Blocked","m150","ball","6","m150knife.wav","None","718.936886173","177","370411.191734","362694.468534","363444.074569","364210.908406","364977.459349","365744.002253","366510.839801","367277.427844","371177.656108","371927.023769","358094.114777","358860.955725","359627.451944","360393.846445","361161.277916","361928.137105","371187.454146","Mapping"
"Blocked","m150","ball","6","m150cad.wav","None","735.229127342","177","370411.191734","362694.468534","363444.074569","364210.908406","364977.459349","365744.002253","366510.839801","367277.427844","371177.656108","371927.023769","372693.888833","358860.955725","359627.451944","360393.846445","361161.277916","361928.137105","371936.555608","Mapping"
"Blocked","m150","ball","6","m150ball.wav","None","733.424477745","177","370411.191734","362694.468534","363444.074569","364210.908406","364977.459349","365744.002253","366510.839801","367277.427844","371177.656108","371927.023769","372693.888833","373460.740293","359627.451944","360393.846445","361161.277916","361928.137105","372703.691818","Mapping"
"Blocked","m150","ball","6","m150cad.wav","space","386.468622135","177","370411.191734","362694.468534","363444.074569","364210.908406","364977.459349","365744.002253","366510.839801","367277.427844","371177.656108","371927.023769","372693.888833","373460.740293","374227.150561","360393.846445","361161.277916","361928.137105","373469.989856","Mapping"
"Blocked","m150","ball","6","m150ball.wav","None","729.818270542","177","370411.191734","362694.468534","363444.074569","364210.908406","364977.459349","365744.002253","366510.839801","367277.427844","371177.656108","371927.023769","372693.888833","373460.740293","374227.150561","374993.643998","361161.277916","361928.137105","374236.14351","Mapping"
"Blocked","m150","ball","6","m150dime.wav","space","357.746342896","177","370411.191734","362694.468534","363444.074569","364210.908406","364977.459349","365744.002253","366510.839801","367277.427844","371177.656108","371927.023769","372693.888833","373460.740293","374227.150561","374993.643998","375760.710952","361928.137105","375002.70311","Mapping"
"Blocked","m150","ball","6","m150ball.wav","None","724.928990472","177","370411.191734","362694.468534","363444.074569","364210.908406","364977.459349","365744.002253","366510.839801","367277.427844","371177.656108","371927.023769","372693.888833","373460.740293","374227.150561","374993.643998","375760.710952","376527.594566","375770.419948","Mapping"
"Blocked","m150","ball","6","m150lash.wav","None","723.146292381","177","370411.191734","377294.140562","363444.074569","364210.908406","364977.459349","365744.002253","366510.839801","367277.427844","371177.656108","371927.023769","372693.888833","373460.740293","374227.150561","374993.643998","375760.710952","376527.594566","376537.446092","Mapping"
"Blocked","m150","ball","6","m150reek.wav","space","0.0272071920335","177","370411.191734","377294.140562","378060.581439","364210.908406","364977.459349","365744.002253","366510.839801","367277.427844","371177.656108","371927.023769","372693.888833","373460.740293","374227.150561","374993.643998","375760.710952","376527.594566","377303.290881","Mapping"
"Blocked","m150","ball","6","m150cave.wav","None","719.778458122","177","370411.191734","377294.140562","378060.581439","378810.198914","364977.459349","365744.002253","366510.839801","367277.427844","371177.656108","371927.023769","372693.888833","373460.740293","374227.150561","374993.643998","375760.710952","376527.594566","378069.932102","Mapping"
